Subject	TrialProc	Trial	Condition	RT	Accuracy	Response	TargetArrowDirection	SessionDate	SessionTime
12000	practice	1	neutral	711	1	right	right	02-18-2015	13:05:32
12000	practice	2	congruent	647	1	right	right	02-18-2015	13:05:32
12000	practice	3	neutral	573	1	left	left	02-18-2015	13:05:32
12000	practice	4	incongruent	808	1	right	right	02-18-2015	13:05:32
12000	practice	5	congruent	557	1	left	left	02-18-2015	13:05:32
12000	practice	6	incongruent	653	1	left	left	02-18-2015	13:05:32
12000	real	1	neutral	600	1	left	left	02-18-2015	13:05:32
12000	real	2	incongruent	576	1	right	right	02-18-2015	13:05:32
12000	real	3	neutral	581	1	right	right	02-18-2015	13:05:32
12000	real	4	congruent	577	1	left	left	02-18-2015	13:05:32
12000	real	5	incongruent	638	1	left	left	02-18-2015	13:05:32
12000	real	6	neutral	522	1	left	left	02-18-2015	13:05:32
12000	real	7	incongruent	564	1	left	left	02-18-2015	13:05:32
12000	real	8	congruent	473	1	left	left	02-18-2015	13:05:32
12000	real	9	neutral	610	1	right	right	02-18-2015	13:05:32
12000	real	10	incongruent	555	1	left	left	02-18-2015	13:05:32
12000	real	11	neutral	471	1	right	right	02-18-2015	13:05:32
12000	real	12	congruent	997	1	right	right	02-18-2015	13:05:32
12000	real	13	incongruent	480	1	left	left	02-18-2015	13:05:32
12000	real	14	neutral	406	1	left	left	02-18-2015	13:05:32
12000	real	15	incongruent	608	1	right	right	02-18-2015	13:05:32
12000	real	16	congruent	605	1	right	right	02-18-2015	13:05:32
12000	real	17	neutral	424	1	right	right	02-18-2015	13:05:32
12000	real	18	neutral	422	1	right	right	02-18-2015	13:05:32
12000	real	19	congruent	374	1	right	right	02-18-2015	13:05:32
12000	real	20	neutral	524	1	right	right	02-18-2015	13:05:32
12000	real	21	congruent	451	1	right	right	02-18-2015	13:05:32
12000	real	22	incongruent	497	1	left	left	02-18-2015	13:05:32
12000	real	23	congruent	860	1	right	right	02-18-2015	13:05:32
12000	real	24	congruent	446	1	left	left	02-18-2015	13:05:32
12000	real	25	neutral	526	1	left	left	02-18-2015	13:05:32
12000	real	26	incongruent	499	1	left	left	02-18-2015	13:05:32
12000	real	27	congruent	427	1	right	right	02-18-2015	13:05:32
12000	real	28	congruent	420	1	right	right	02-18-2015	13:05:32
12000	real	29	neutral	528	1	right	right	02-18-2015	13:05:32
12000	real	30	incongruent	545	1	left	left	02-18-2015	13:05:32
12000	real	31	incongruent	503	1	left	left	02-18-2015	13:05:32
12000	real	32	neutral	1195	1	left	left	02-18-2015	13:05:32
12000	real	33	neutral	378	1	left	left	02-18-2015	13:05:32
12000	real	34	neutral	454	1	right	right	02-18-2015	13:05:32
12000	real	35	neutral	489	1	right	right	02-18-2015	13:05:32
12000	real	36	neutral	612	1	left	left	02-18-2015	13:05:32
12000	real	37	congruent	365	1	left	left	02-18-2015	13:05:32
12000	real	38	neutral	522	1	left	left	02-18-2015	13:05:32
12000	real	39	neutral	383	1	left	left	02-18-2015	13:05:32
12000	real	40	incongruent	583	1	right	right	02-18-2015	13:05:32
12000	real	41	incongruent	469	1	left	left	02-18-2015	13:05:32
12000	real	42	neutral	433	1	right	right	02-18-2015	13:05:32
12000	real	43	congruent	446	1	right	right	02-18-2015	13:05:32
12000	real	44	congruent	404	1	right	right	02-18-2015	13:05:32
12000	real	45	congruent	418	1	left	left	02-18-2015	13:05:32
12000	real	46	congruent	464	1	left	left	02-18-2015	13:05:32
12000	real	47	incongruent	523	1	left	left	02-18-2015	13:05:32
12000	real	48	congruent	425	1	right	right	02-18-2015	13:05:32
12000	real	49	congruent	479	1	left	left	02-18-2015	13:05:32
12000	real	50	congruent	536	1	right	right	02-18-2015	13:05:32
12000	real	51	incongruent	591	1	right	right	02-18-2015	13:05:32
12000	real	52	incongruent	564	1	right	right	02-18-2015	13:05:32
12000	real	53	incongruent	533	1	right	right	02-18-2015	13:05:32
12000	real	54	neutral	440	1	right	right	02-18-2015	13:05:32
12000	real	55	congruent	574	1	left	left	02-18-2015	13:05:32
12000	real	56	congruent	437	1	right	right	02-18-2015	13:05:32
12000	real	57	congruent	469	1	left	left	02-18-2015	13:05:32
12000	real	58	incongruent	496	1	left	left	02-18-2015	13:05:32
12000	real	59	incongruent	553	1	left	left	02-18-2015	13:05:32
12000	real	60	neutral	467	1	left	left	02-18-2015	13:05:32
12000	real	61	neutral	459	1	right	right	02-18-2015	13:05:32
12000	real	62	congruent	428	1	left	left	02-18-2015	13:05:32
12000	real	63	incongruent	590	1	right	right	02-18-2015	13:05:32
12000	real	64	congruent	493	1	left	left	02-18-2015	13:05:32
12000	real	65	congruent	424	1	left	left	02-18-2015	13:05:32
12000	real	66	incongruent	495	1	left	left	02-18-2015	13:05:32
12000	real	67	congruent	403	1	right	right	02-18-2015	13:05:32
12000	real	68	neutral	761	1	left	left	02-18-2015	13:05:32
12000	real	69	neutral	404	1	left	left	02-18-2015	13:05:32
12000	real	70	neutral	407	1	right	right	02-18-2015	13:05:32
12000	real	71	incongruent	846	1	right	right	02-18-2015	13:05:32
12000	real	72	incongruent	543	1	right	right	02-18-2015	13:05:32
12000	real	73	neutral	438	1	left	left	02-18-2015	13:05:32
12000	real	74	neutral	410	1	left	left	02-18-2015	13:05:32
12000	real	75	neutral	425	1	right	right	02-18-2015	13:05:32
12000	real	76	incongruent	512	1	right	right	02-18-2015	13:05:32
12000	real	77	congruent	357	1	right	right	02-18-2015	13:05:32
12000	real	78	incongruent	498	1	left	left	02-18-2015	13:05:32
12000	real	79	congruent	438	1	left	left	02-18-2015	13:05:32
12000	real	80	congruent	459	1	left	left	02-18-2015	13:05:32
12000	real	81	incongruent	557	1	right	right	02-18-2015	13:05:32
12000	real	82	neutral	467	1	right	right	02-18-2015	13:05:32
12000	real	83	neutral	493	1	left	left	02-18-2015	13:05:32
12000	real	84	incongruent	546	1	right	right	02-18-2015	13:05:32
12000	real	85	incongruent	882	1	left	left	02-18-2015	13:05:32
12000	real	86	incongruent	615	1	left	left	02-18-2015	13:05:32
12000	real	87	incongruent	789	1	right	right	02-18-2015	13:05:32
12000	real	88	incongruent	529	1	right	right	02-18-2015	13:05:32
12000	real	89	congruent	552	1	right	right	02-18-2015	13:05:32
12000	real	90	neutral	448	1	left	left	02-18-2015	13:05:32
12000	real	91	congruent	492	1	left	left	02-18-2015	13:05:32
12000	real	92	congruent	471	1	left	left	02-18-2015	13:05:32
12000	real	93	congruent	498	1	right	right	02-18-2015	13:05:32
12000	real	94	neutral	525	1	right	right	02-18-2015	13:05:32
12000	real	95	incongruent	458	1	right	right	02-18-2015	13:05:32
12000	real	96	incongruent	471	1	right	right	02-18-2015	13:05:32
12000	real	1	neutral	443	1	right	right	02-18-2015	13:05:32
12000	real	2	congruent	372	1	right	right	02-18-2015	13:05:32
12000	real	3	incongruent	529	1	right	right	02-18-2015	13:05:32
12000	real	4	incongruent	464	1	right	right	02-18-2015	13:05:32
12000	real	5	neutral	500	1	left	left	02-18-2015	13:05:32
12000	real	6	congruent	463	1	left	left	02-18-2015	13:05:32
12000	real	7	congruent	773	1	left	left	02-18-2015	13:05:32
12000	real	8	neutral	531	1	right	right	02-18-2015	13:05:32
12000	real	9	incongruent	533	1	right	right	02-18-2015	13:05:32
12000	real	10	neutral	486	1	left	left	02-18-2015	13:05:32
12000	real	11	incongruent	492	1	right	right	02-18-2015	13:05:32
12000	real	12	incongruent	490	1	right	right	02-18-2015	13:05:32
12000	real	13	incongruent	545	1	left	left	02-18-2015	13:05:32
12000	real	14	neutral	488	1	left	left	02-18-2015	13:05:32
12000	real	15	incongruent	667	1	right	right	02-18-2015	13:05:32
12000	real	16	neutral	795	1	left	left	02-18-2015	13:05:32
12000	real	17	neutral	567	1	right	right	02-18-2015	13:05:32
12000	real	18	neutral	679	1	left	left	02-18-2015	13:05:32
12000	real	19	congruent	525	1	right	right	02-18-2015	13:05:32
12000	real	20	neutral	381	1	right	right	02-18-2015	13:05:32
12000	real	21	incongruent	363	0	right	left	02-18-2015	13:05:32
12000	real	22	incongruent	520	1	left	left	02-18-2015	13:05:32
12000	real	23	incongruent	594	1	left	left	02-18-2015	13:05:32
12000	real	24	incongruent	520	1	right	right	02-18-2015	13:05:32
12000	real	25	congruent	501	1	right	right	02-18-2015	13:05:32
12000	real	26	congruent	530	1	left	left	02-18-2015	13:05:32
12000	real	27	congruent	406	1	left	left	02-18-2015	13:05:32
12000	real	28	neutral	478	1	right	right	02-18-2015	13:05:32
12000	real	29	incongruent	532	1	right	right	02-18-2015	13:05:32
12000	real	30	incongruent	554	1	right	right	02-18-2015	13:05:32
12000	real	31	congruent	672	1	left	left	02-18-2015	13:05:32
12000	real	32	neutral	1211	1	left	left	02-18-2015	13:05:32
12000	real	33	incongruent	554	1	left	left	02-18-2015	13:05:32
12000	real	34	incongruent	489	1	left	left	02-18-2015	13:05:32
12000	real	35	neutral	396	1	right	right	02-18-2015	13:05:32
12000	real	36	incongruent	559	1	right	right	02-18-2015	13:05:32
12000	real	37	congruent	607	1	right	right	02-18-2015	13:05:32
12000	real	38	incongruent	694	1	right	right	02-18-2015	13:05:32
12000	real	39	incongruent	464	1	left	left	02-18-2015	13:05:32
12000	real	40	neutral	445	1	left	left	02-18-2015	13:05:32
12000	real	41	congruent	524	1	left	left	02-18-2015	13:05:32
12000	real	42	incongruent	630	1	left	left	02-18-2015	13:05:32
12000	real	43	neutral	462	1	left	left	02-18-2015	13:05:32
12000	real	44	congruent	490	1	left	left	02-18-2015	13:05:32
12000	real	45	incongruent	598	1	right	right	02-18-2015	13:05:32
12000	real	46	incongruent	897	1	left	left	02-18-2015	13:05:32
12000	real	47	incongruent	1200	1	left	left	02-18-2015	13:05:32
12000	real	48	neutral	504	1	right	right	02-18-2015	13:05:32
12000	real	49	incongruent	489	1	left	left	02-18-2015	13:05:32
12000	real	50	neutral	570	1	right	right	02-18-2015	13:05:32
12000	real	51	neutral	328	1	right	right	02-18-2015	13:05:32
12000	real	52	congruent	418	1	right	right	02-18-2015	13:05:32
12000	real	53	congruent	648	1	left	left	02-18-2015	13:05:32
12000	real	54	incongruent	847	1	left	left	02-18-2015	13:05:32
12000	real	55	neutral	613	1	left	left	02-18-2015	13:05:32
12000	real	56	incongruent	599	1	left	left	02-18-2015	13:05:32
12000	real	57	neutral	517	1	left	left	02-18-2015	13:05:32
12000	real	58	neutral	513	1	right	right	02-18-2015	13:05:32
12000	real	59	neutral	704	1	right	right	02-18-2015	13:05:32
12000	real	60	congruent	479	1	right	right	02-18-2015	13:05:32
12000	real	61	congruent	535	1	right	right	02-18-2015	13:05:32
12000	real	62	congruent	537	1	left	left	02-18-2015	13:05:32
12000	real	63	congruent	567	1	right	right	02-18-2015	13:05:32
12000	real	64	neutral	407	1	right	right	02-18-2015	13:05:32
12000	real	65	incongruent	594	1	right	right	02-18-2015	13:05:32
12000	real	66	neutral	474	1	left	left	02-18-2015	13:05:32
12000	real	67	incongruent	545	1	left	left	02-18-2015	13:05:32
12000	real	68	neutral	441	1	right	right	02-18-2015	13:05:32
12000	real	69	congruent	456	1	left	left	02-18-2015	13:05:32
12000	real	70	congruent	1025	1	left	left	02-18-2015	13:05:32
12000	real	71	incongruent	699	1	right	right	02-18-2015	13:05:32
12000	real	72	congruent	629	1	left	left	02-18-2015	13:05:32
12000	real	73	incongruent	811	1	right	right	02-18-2015	13:05:32
12000	real	74	congruent	579	1	left	left	02-18-2015	13:05:32
12000	real	75	neutral	494	1	left	left	02-18-2015	13:05:32
12000	real	76	neutral	398	1	left	left	02-18-2015	13:05:32
12000	real	77	neutral	398	1	right	right	02-18-2015	13:05:32
12000	real	78	neutral	575	1	right	right	02-18-2015	13:05:32
12000	real	79	congruent	429	1	right	right	02-18-2015	13:05:32
12000	real	80	congruent	0	0		right	02-18-2015	13:05:32
12000	real	81	incongruent	611	1	left	left	02-18-2015	13:05:32
12000	real	82	neutral	511	1	left	left	02-18-2015	13:05:32
12000	real	83	neutral	401	1	left	left	02-18-2015	13:05:32
12000	real	84	congruent	640	1	left	left	02-18-2015	13:05:32
12000	real	85	congruent	548	1	right	right	02-18-2015	13:05:32
12000	real	86	congruent	507	1	right	right	02-18-2015	13:05:32
12000	real	87	congruent	377	1	right	right	02-18-2015	13:05:32
12000	real	88	congruent	354	1	right	right	02-18-2015	13:05:32
12000	real	89	congruent	551	1	left	left	02-18-2015	13:05:32
12000	real	90	neutral	505	1	right	right	02-18-2015	13:05:32
12000	real	91	neutral	478	1	left	left	02-18-2015	13:05:32
12000	real	92	congruent	411	1	left	left	02-18-2015	13:05:32
12000	real	93	congruent	637	1	right	right	02-18-2015	13:05:32
12000	real	94	incongruent	615	1	right	right	02-18-2015	13:05:32
12000	real	95	incongruent	825	1	left	left	02-18-2015	13:05:32
12000	real	96	congruent	438	1	right	right	02-18-2015	13:05:32
12000	real	1	neutral	370	1	right	right	02-18-2015	13:05:32
12000	real	2	neutral	435	1	left	left	02-18-2015	13:05:32
12000	real	3	congruent	459	1	left	left	02-18-2015	13:05:32
12000	real	4	incongruent	527	1	right	right	02-18-2015	13:05:32
12000	real	5	incongruent	565	1	left	left	02-18-2015	13:05:32
12000	real	6	congruent	447	1	left	left	02-18-2015	13:05:32
12000	real	7	incongruent	643	1	right	right	02-18-2015	13:05:32
12000	real	8	congruent	426	1	right	right	02-18-2015	13:05:32
12000	real	9	neutral	0	0		right	02-18-2015	13:05:32
12000	real	10	incongruent	1086	1	right	right	02-18-2015	13:05:32
12000	real	11	incongruent	558	1	left	left	02-18-2015	13:05:32
12000	real	12	incongruent	500	1	left	left	02-18-2015	13:05:32
12000	real	13	neutral	405	1	right	right	02-18-2015	13:05:32
12000	real	14	neutral	553	1	left	left	02-18-2015	13:05:32
12000	real	15	incongruent	501	1	right	right	02-18-2015	13:05:32
12000	real	16	congruent	415	1	left	left	02-18-2015	13:05:32
12000	real	17	congruent	474	1	left	left	02-18-2015	13:05:32
12000	real	18	congruent	446	1	left	left	02-18-2015	13:05:32
12000	real	19	incongruent	474	1	right	right	02-18-2015	13:05:32
12000	real	20	incongruent	513	1	left	left	02-18-2015	13:05:32
12000	real	21	incongruent	497	1	right	right	02-18-2015	13:05:32
12000	real	22	neutral	430	1	left	left	02-18-2015	13:05:32
12000	real	23	incongruent	595	1	left	left	02-18-2015	13:05:32
12000	real	24	incongruent	489	1	right	right	02-18-2015	13:05:32
12000	real	25	congruent	613	1	left	left	02-18-2015	13:05:32
12000	real	26	congruent	677	1	right	right	02-18-2015	13:05:32
12000	real	27	incongruent	585	1	right	right	02-18-2015	13:05:32
12000	real	28	neutral	666	1	left	left	02-18-2015	13:05:32
12000	real	29	incongruent	1205	1	right	right	02-18-2015	13:05:32
12000	real	30	congruent	472	1	right	right	02-18-2015	13:05:32
12000	real	31	incongruent	491	1	right	right	02-18-2015	13:05:32
12000	real	32	congruent	422	1	right	right	02-18-2015	13:05:32
12000	real	33	congruent	408	1	right	right	02-18-2015	13:05:32
12000	real	34	neutral	430	1	right	right	02-18-2015	13:05:32
12000	real	35	incongruent	571	1	left	left	02-18-2015	13:05:32
12000	real	36	congruent	467	1	right	right	02-18-2015	13:05:32
12000	real	37	congruent	384	1	left	left	02-18-2015	13:05:32
12000	real	38	incongruent	529	1	left	left	02-18-2015	13:05:32
12000	real	39	neutral	469	1	right	right	02-18-2015	13:05:32
12000	real	40	congruent	431	1	right	right	02-18-2015	13:05:32
12000	real	41	incongruent	626	1	left	left	02-18-2015	13:05:32
12000	real	42	neutral	1026	1	right	right	02-18-2015	13:05:32
12000	real	43	incongruent	540	1	left	left	02-18-2015	13:05:32
12000	real	44	congruent	553	1	left	left	02-18-2015	13:05:32
12000	real	45	congruent	430	1	left	left	02-18-2015	13:05:32
12000	real	46	incongruent	608	1	left	left	02-18-2015	13:05:32
12000	real	47	neutral	445	1	right	right	02-18-2015	13:05:32
12000	real	48	neutral	777	1	right	right	02-18-2015	13:05:32
12000	real	49	congruent	469	1	right	right	02-18-2015	13:05:32
12000	real	50	neutral	436	1	right	right	02-18-2015	13:05:32
12000	real	51	congruent	294	1	right	right	02-18-2015	13:05:32
12000	real	52	congruent	310	0	right	left	02-18-2015	13:05:32
12000	real	53	neutral	1034	1	left	left	02-18-2015	13:05:32
12000	real	54	incongruent	598	1	right	right	02-18-2015	13:05:32
12000	real	55	neutral	539	1	left	left	02-18-2015	13:05:32
12000	real	56	congruent	468	1	left	left	02-18-2015	13:05:32
12000	real	57	neutral	585	1	right	right	02-18-2015	13:05:32
12000	real	58	congruent	1064	1	left	left	02-18-2015	13:05:32
12000	real	59	congruent	714	1	right	right	02-18-2015	13:05:32
12000	real	60	neutral	757	1	left	left	02-18-2015	13:05:32
12000	real	61	neutral	500	1	right	right	02-18-2015	13:05:32
12000	real	62	congruent	403	1	right	right	02-18-2015	13:05:32
12000	real	63	incongruent	861	1	left	left	02-18-2015	13:05:32
12000	real	64	congruent	717	1	left	left	02-18-2015	13:05:32
12000	real	65	neutral	1352	1	left	left	02-18-2015	13:05:32
12000	real	66	congruent	482	1	right	right	02-18-2015	13:05:32
12000	real	67	incongruent	558	1	right	right	02-18-2015	13:05:32
12000	real	68	neutral	415	1	right	right	02-18-2015	13:05:32
12000	real	69	incongruent	1002	1	left	left	02-18-2015	13:05:32
12000	real	70	neutral	621	1	left	left	02-18-2015	13:05:32
12000	real	71	congruent	572	1	right	right	02-18-2015	13:05:32
12000	real	72	incongruent	524	1	left	left	02-18-2015	13:05:32
12000	real	73	neutral	410	1	left	left	02-18-2015	13:05:32
12000	real	74	neutral	386	1	left	left	02-18-2015	13:05:32
12000	real	75	incongruent	444	1	left	left	02-18-2015	13:05:32
12000	real	76	neutral	704	1	right	right	02-18-2015	13:05:32
12000	real	77	neutral	529	1	left	left	02-18-2015	13:05:32
12000	real	78	neutral	391	1	right	right	02-18-2015	13:05:32
12000	real	79	neutral	544	1	left	left	02-18-2015	13:05:32
12000	real	80	neutral	331	1	left	left	02-18-2015	13:05:32
12000	real	81	congruent	345	1	right	right	02-18-2015	13:05:32
12000	real	82	neutral	535	1	left	left	02-18-2015	13:05:32
12000	real	83	incongruent	703	1	right	right	02-18-2015	13:05:32
12000	real	84	incongruent	838	1	right	right	02-18-2015	13:05:32
12000	real	85	incongruent	674	1	left	left	02-18-2015	13:05:32
12000	real	86	incongruent	494	1	right	right	02-18-2015	13:05:32
12000	real	87	congruent	512	1	left	left	02-18-2015	13:05:32
12000	real	88	congruent	614	1	right	right	02-18-2015	13:05:32
12000	real	89	incongruent	1131	1	right	right	02-18-2015	13:05:32
12000	real	90	neutral	436	1	left	left	02-18-2015	13:05:32
12000	real	91	neutral	0	0		right	02-18-2015	13:05:32
12000	real	92	congruent	658	1	right	right	02-18-2015	13:05:32
12000	real	93	congruent	451	1	left	left	02-18-2015	13:05:32
12000	real	94	congruent	380	1	left	left	02-18-2015	13:05:32
12000	real	95	incongruent	511	1	left	left	02-18-2015	13:05:32
12000	real	96	neutral	418	1	right	right	02-18-2015	13:05:32
12002	practice	1	congruent	568	1	left	left	02-18-2015	16:21:36
12002	practice	2	incongruent	661	1	right	right	02-18-2015	16:21:36
12002	practice	3	congruent	411	1	right	right	02-18-2015	16:21:36
12002	practice	4	neutral	432	1	right	right	02-18-2015	16:21:36
12002	practice	5	incongruent	524	1	left	left	02-18-2015	16:21:36
12002	practice	6	neutral	560	1	left	left	02-18-2015	16:21:36
12002	real	1	congruent	507	1	right	right	02-18-2015	16:21:36
12002	real	2	congruent	450	1	right	right	02-18-2015	16:21:36
12002	real	3	neutral	500	1	left	left	02-18-2015	16:21:36
12002	real	4	incongruent	465	1	left	left	02-18-2015	16:21:36
12002	real	5	congruent	502	1	left	left	02-18-2015	16:21:36
12002	real	6	incongruent	530	1	right	right	02-18-2015	16:21:36
12002	real	7	incongruent	461	1	right	right	02-18-2015	16:21:36
12002	real	8	congruent	679	1	left	left	02-18-2015	16:21:36
12002	real	9	neutral	453	1	left	left	02-18-2015	16:21:36
12002	real	10	incongruent	508	1	left	left	02-18-2015	16:21:36
12002	real	11	congruent	447	1	left	left	02-18-2015	16:21:36
12002	real	12	neutral	433	1	left	left	02-18-2015	16:21:36
12002	real	13	congruent	446	1	left	left	02-18-2015	16:21:36
12002	real	14	neutral	469	1	right	right	02-18-2015	16:21:36
12002	real	15	incongruent	464	1	left	left	02-18-2015	16:21:36
12002	real	16	congruent	432	1	left	left	02-18-2015	16:21:36
12002	real	17	incongruent	501	1	right	right	02-18-2015	16:21:36
12002	real	18	neutral	651	1	left	left	02-18-2015	16:21:36
12002	real	19	congruent	493	1	left	left	02-18-2015	16:21:36
12002	real	20	neutral	772	1	left	left	02-18-2015	16:21:36
12002	real	21	congruent	451	1	left	left	02-18-2015	16:21:36
12002	real	22	neutral	574	1	left	left	02-18-2015	16:21:36
12002	real	23	congruent	820	1	right	right	02-18-2015	16:21:36
12002	real	24	neutral	488	1	left	left	02-18-2015	16:21:36
12002	real	25	neutral	461	1	left	left	02-18-2015	16:21:36
12002	real	26	incongruent	632	1	right	right	02-18-2015	16:21:36
12002	real	27	neutral	417	1	right	right	02-18-2015	16:21:36
12002	real	28	incongruent	509	1	right	right	02-18-2015	16:21:36
12002	real	29	neutral	456	1	right	right	02-18-2015	16:21:36
12002	real	30	neutral	709	1	left	left	02-18-2015	16:21:36
12002	real	31	congruent	503	1	right	right	02-18-2015	16:21:36
12002	real	32	neutral	435	1	right	right	02-18-2015	16:21:36
12002	real	33	congruent	951	1	left	left	02-18-2015	16:21:36
12002	real	34	incongruent	570	1	left	left	02-18-2015	16:21:36
12002	real	35	congruent	625	1	right	right	02-18-2015	16:21:36
12002	real	36	congruent	432	1	right	right	02-18-2015	16:21:36
12002	real	37	neutral	528	1	right	right	02-18-2015	16:21:36
12002	real	38	incongruent	602	1	left	left	02-18-2015	16:21:36
12002	real	39	congruent	583	1	left	left	02-18-2015	16:21:36
12002	real	40	incongruent	708	1	left	left	02-18-2015	16:21:36
12002	real	41	incongruent	544	1	left	left	02-18-2015	16:21:36
12002	real	42	neutral	534	1	right	right	02-18-2015	16:21:36
12002	real	43	neutral	543	1	left	left	02-18-2015	16:21:36
12002	real	44	neutral	516	1	right	right	02-18-2015	16:21:36
12002	real	45	incongruent	534	1	right	right	02-18-2015	16:21:36
12002	real	46	congruent	469	1	right	right	02-18-2015	16:21:36
12002	real	47	congruent	890	1	left	left	02-18-2015	16:21:36
12002	real	48	congruent	459	1	right	right	02-18-2015	16:21:36
12002	real	49	congruent	1089	1	left	left	02-18-2015	16:21:36
12002	real	50	neutral	455	1	left	left	02-18-2015	16:21:36
12002	real	51	congruent	416	1	right	right	02-18-2015	16:21:36
12002	real	52	neutral	406	1	right	right	02-18-2015	16:21:36
12002	real	53	neutral	443	1	left	left	02-18-2015	16:21:36
12002	real	54	incongruent	526	1	left	left	02-18-2015	16:21:36
12002	real	55	neutral	596	1	right	right	02-18-2015	16:21:36
12002	real	56	neutral	475	1	right	right	02-18-2015	16:21:36
12002	real	57	neutral	389	1	right	right	02-18-2015	16:21:36
12002	real	58	neutral	371	1	right	right	02-18-2015	16:21:36
12002	real	59	congruent	475	1	left	left	02-18-2015	16:21:36
12002	real	60	neutral	499	1	left	left	02-18-2015	16:21:36
12002	real	61	congruent	463	1	left	left	02-18-2015	16:21:36
12002	real	62	neutral	796	1	right	right	02-18-2015	16:21:36
12002	real	63	congruent	444	1	right	right	02-18-2015	16:21:36
12002	real	64	incongruent	577	1	right	right	02-18-2015	16:21:36
12002	real	65	incongruent	498	1	right	right	02-18-2015	16:21:36
12002	real	66	congruent	465	1	right	right	02-18-2015	16:21:36
12002	real	67	congruent	583	1	left	left	02-18-2015	16:21:36
12002	real	68	congruent	480	1	right	right	02-18-2015	16:21:36
12002	real	69	neutral	517	1	left	left	02-18-2015	16:21:36
12002	real	70	incongruent	546	1	left	left	02-18-2015	16:21:36
12002	real	71	incongruent	743	1	right	right	02-18-2015	16:21:36
12002	real	72	incongruent	566	1	right	right	02-18-2015	16:21:36
12002	real	73	neutral	517	1	left	left	02-18-2015	16:21:36
12002	real	74	incongruent	453	1	left	left	02-18-2015	16:21:36
12002	real	75	incongruent	460	1	left	left	02-18-2015	16:21:36
12002	real	76	congruent	721	1	left	left	02-18-2015	16:21:36
12002	real	77	congruent	455	1	right	right	02-18-2015	16:21:36
12002	real	78	neutral	501	1	right	right	02-18-2015	16:21:36
12002	real	79	congruent	406	1	right	right	02-18-2015	16:21:36
12002	real	80	congruent	547	1	right	right	02-18-2015	16:21:36
12002	real	81	incongruent	514	1	left	left	02-18-2015	16:21:36
12002	real	82	neutral	564	1	right	right	02-18-2015	16:21:36
12002	real	83	incongruent	549	1	left	left	02-18-2015	16:21:36
12002	real	84	incongruent	548	1	right	right	02-18-2015	16:21:36
12002	real	85	incongruent	701	1	right	right	02-18-2015	16:21:36
12002	real	86	incongruent	663	1	left	left	02-18-2015	16:21:36
12002	real	87	incongruent	527	1	right	right	02-18-2015	16:21:36
12002	real	88	incongruent	872	1	left	left	02-18-2015	16:21:36
12002	real	89	incongruent	634	1	right	right	02-18-2015	16:21:36
12002	real	90	congruent	522	1	right	right	02-18-2015	16:21:36
12002	real	91	incongruent	494	1	right	right	02-18-2015	16:21:36
12002	real	92	neutral	465	1	right	right	02-18-2015	16:21:36
12002	real	93	incongruent	479	1	right	right	02-18-2015	16:21:36
12002	real	94	congruent	714	1	left	left	02-18-2015	16:21:36
12002	real	95	neutral	460	1	left	left	02-18-2015	16:21:36
12002	real	96	incongruent	539	1	left	left	02-18-2015	16:21:36
12002	real	1	neutral	645	1	right	right	02-18-2015	16:21:36
12002	real	2	congruent	644	1	left	left	02-18-2015	16:21:36
12002	real	3	incongruent	594	1	right	right	02-18-2015	16:21:36
12002	real	4	incongruent	986	1	left	left	02-18-2015	16:21:36
12002	real	5	incongruent	561	1	right	right	02-18-2015	16:21:36
12002	real	6	neutral	691	1	left	left	02-18-2015	16:21:36
12002	real	7	incongruent	542	1	left	left	02-18-2015	16:21:36
12002	real	8	congruent	411	1	left	left	02-18-2015	16:21:36
12002	real	9	incongruent	568	1	right	right	02-18-2015	16:21:36
12002	real	10	congruent	644	1	right	right	02-18-2015	16:21:36
12002	real	11	neutral	444	1	left	left	02-18-2015	16:21:36
12002	real	12	incongruent	528	1	left	left	02-18-2015	16:21:36
12002	real	13	incongruent	496	1	right	right	02-18-2015	16:21:36
12002	real	14	neutral	406	1	right	right	02-18-2015	16:21:36
12002	real	15	congruent	432	1	left	left	02-18-2015	16:21:36
12002	real	16	congruent	452	1	left	left	02-18-2015	16:21:36
12002	real	17	neutral	436	1	right	right	02-18-2015	16:21:36
12002	real	18	incongruent	472	1	left	left	02-18-2015	16:21:36
12002	real	19	congruent	398	1	right	right	02-18-2015	16:21:36
12002	real	20	congruent	499	1	left	left	02-18-2015	16:21:36
12002	real	21	incongruent	586	1	left	left	02-18-2015	16:21:36
12002	real	22	incongruent	468	1	right	right	02-18-2015	16:21:36
12002	real	23	congruent	450	1	left	left	02-18-2015	16:21:36
12002	real	24	congruent	461	1	left	left	02-18-2015	16:21:36
12002	real	25	neutral	461	1	left	left	02-18-2015	16:21:36
12002	real	26	incongruent	735	1	left	left	02-18-2015	16:21:36
12002	real	27	incongruent	514	1	right	right	02-18-2015	16:21:36
12002	real	28	incongruent	512	1	right	right	02-18-2015	16:21:36
12002	real	29	congruent	450	1	right	right	02-18-2015	16:21:36
12002	real	30	neutral	434	1	right	right	02-18-2015	16:21:36
12002	real	31	neutral	409	1	right	right	02-18-2015	16:21:36
12002	real	32	neutral	595	1	right	right	02-18-2015	16:21:36
12002	real	33	congruent	374	1	right	right	02-18-2015	16:21:36
12002	real	34	neutral	403	1	left	left	02-18-2015	16:21:36
12002	real	35	incongruent	582	1	left	left	02-18-2015	16:21:36
12002	real	36	incongruent	783	1	left	left	02-18-2015	16:21:36
12002	real	37	congruent	444	1	right	right	02-18-2015	16:21:36
12002	real	38	neutral	465	1	right	right	02-18-2015	16:21:36
12002	real	39	neutral	487	1	left	left	02-18-2015	16:21:36
12002	real	40	congruent	380	1	left	left	02-18-2015	16:21:36
12002	real	41	congruent	357	1	left	left	02-18-2015	16:21:36
12002	real	42	incongruent	434	1	left	left	02-18-2015	16:21:36
12002	real	43	neutral	412	1	left	left	02-18-2015	16:21:36
12002	real	44	incongruent	514	1	right	right	02-18-2015	16:21:36
12002	real	45	incongruent	486	1	left	left	02-18-2015	16:21:36
12002	real	46	neutral	497	1	left	left	02-18-2015	16:21:36
12002	real	47	neutral	382	1	right	right	02-18-2015	16:21:36
12002	real	48	incongruent	494	1	right	right	02-18-2015	16:21:36
12002	real	49	incongruent	361	0	right	left	02-18-2015	16:21:36
12002	real	50	neutral	542	1	left	left	02-18-2015	16:21:36
12002	real	51	congruent	442	1	right	right	02-18-2015	16:21:36
12002	real	52	neutral	461	1	right	right	02-18-2015	16:21:36
12002	real	53	congruent	360	1	right	right	02-18-2015	16:21:36
12002	real	54	incongruent	1346	1	left	left	02-18-2015	16:21:36
12002	real	55	congruent	632	1	left	left	02-18-2015	16:21:36
12002	real	56	incongruent	490	1	right	right	02-18-2015	16:21:36
12002	real	57	incongruent	485	1	left	left	02-18-2015	16:21:36
12002	real	58	neutral	437	1	right	right	02-18-2015	16:21:36
12002	real	59	neutral	420	1	right	right	02-18-2015	16:21:36
12002	real	60	congruent	461	1	left	left	02-18-2015	16:21:36
12002	real	61	incongruent	549	1	left	left	02-18-2015	16:21:36
12002	real	62	congruent	467	1	left	left	02-18-2015	16:21:36
12002	real	63	neutral	495	1	left	left	02-18-2015	16:21:36
12002	real	64	congruent	466	1	left	left	02-18-2015	16:21:36
12002	real	65	incongruent	498	1	right	right	02-18-2015	16:21:36
12002	real	66	congruent	450	1	right	right	02-18-2015	16:21:36
12002	real	67	neutral	585	1	left	left	02-18-2015	16:21:36
12002	real	68	congruent	423	1	right	right	02-18-2015	16:21:36
12002	real	69	incongruent	575	1	right	right	02-18-2015	16:21:36
12002	real	70	congruent	573	1	left	left	02-18-2015	16:21:36
12002	real	71	congruent	465	1	right	right	02-18-2015	16:21:36
12002	real	72	neutral	413	1	right	right	02-18-2015	16:21:36
12002	real	73	incongruent	497	1	left	left	02-18-2015	16:21:36
12002	real	74	neutral	439	1	left	left	02-18-2015	16:21:36
12002	real	75	neutral	441	1	left	left	02-18-2015	16:21:36
12002	real	76	congruent	464	1	left	left	02-18-2015	16:21:36
12002	real	77	neutral	391	1	left	left	02-18-2015	16:21:36
12002	real	78	incongruent	516	1	right	right	02-18-2015	16:21:36
12002	real	79	neutral	633	1	left	left	02-18-2015	16:21:36
12002	real	80	incongruent	865	1	left	left	02-18-2015	16:21:36
12002	real	81	incongruent	475	1	right	right	02-18-2015	16:21:36
12002	real	82	congruent	463	1	right	right	02-18-2015	16:21:36
12002	real	83	congruent	540	1	right	right	02-18-2015	16:21:36
12002	real	84	congruent	649	1	right	right	02-18-2015	16:21:36
12002	real	85	incongruent	492	1	right	right	02-18-2015	16:21:36
12002	real	86	congruent	448	1	right	right	02-18-2015	16:21:36
12002	real	87	neutral	491	1	right	right	02-18-2015	16:21:36
12002	real	88	neutral	407	1	right	right	02-18-2015	16:21:36
12002	real	89	congruent	596	1	left	left	02-18-2015	16:21:36
12002	real	90	congruent	436	1	right	right	02-18-2015	16:21:36
12002	real	91	neutral	444	1	right	right	02-18-2015	16:21:36
12002	real	92	congruent	453	1	right	right	02-18-2015	16:21:36
12002	real	93	neutral	462	1	right	right	02-18-2015	16:21:36
12002	real	94	neutral	423	1	left	left	02-18-2015	16:21:36
12002	real	95	neutral	381	1	left	left	02-18-2015	16:21:36
12002	real	96	incongruent	450	1	right	right	02-18-2015	16:21:36
12002	real	1	neutral	466	1	left	left	02-18-2015	16:21:36
12002	real	2	neutral	449	1	left	left	02-18-2015	16:21:36
12002	real	3	neutral	419	1	left	left	02-18-2015	16:21:36
12002	real	4	neutral	382	1	left	left	02-18-2015	16:21:36
12002	real	5	neutral	386	1	left	left	02-18-2015	16:21:36
12002	real	6	incongruent	920	1	left	left	02-18-2015	16:21:36
12002	real	7	congruent	578	1	right	right	02-18-2015	16:21:36
12002	real	8	neutral	389	1	right	right	02-18-2015	16:21:36
12002	real	9	incongruent	1066	1	left	left	02-18-2015	16:21:36
12002	real	10	incongruent	518	1	right	right	02-18-2015	16:21:36
12002	real	11	neutral	440	1	left	left	02-18-2015	16:21:36
12002	real	12	neutral	395	1	right	right	02-18-2015	16:21:36
12002	real	13	neutral	387	1	right	right	02-18-2015	16:21:36
12002	real	14	congruent	615	1	left	left	02-18-2015	16:21:36
12002	real	15	incongruent	562	1	left	left	02-18-2015	16:21:36
12002	real	16	neutral	446	1	left	left	02-18-2015	16:21:36
12002	real	17	incongruent	456	1	left	left	02-18-2015	16:21:36
12002	real	18	neutral	383	1	left	left	02-18-2015	16:21:36
12002	real	19	congruent	412	1	left	left	02-18-2015	16:21:36
12002	real	20	neutral	382	1	left	left	02-18-2015	16:21:36
12002	real	21	congruent	336	1	left	left	02-18-2015	16:21:36
12002	real	22	incongruent	331	1	left	left	02-18-2015	16:21:36
12002	real	23	congruent	425	1	right	right	02-18-2015	16:21:36
12002	real	24	congruent	492	1	right	right	02-18-2015	16:21:36
12002	real	25	incongruent	831	1	right	right	02-18-2015	16:21:36
12002	real	26	congruent	673	1	left	left	02-18-2015	16:21:36
12002	real	27	congruent	428	1	left	left	02-18-2015	16:21:36
12002	real	28	congruent	475	1	right	right	02-18-2015	16:21:36
12002	real	29	neutral	480	1	left	left	02-18-2015	16:21:36
12002	real	30	neutral	416	1	right	right	02-18-2015	16:21:36
12002	real	31	incongruent	490	1	right	right	02-18-2015	16:21:36
12002	real	32	congruent	440	1	right	right	02-18-2015	16:21:36
12002	real	33	incongruent	466	1	left	left	02-18-2015	16:21:36
12002	real	34	congruent	475	1	left	left	02-18-2015	16:21:36
12002	real	35	congruent	424	1	right	right	02-18-2015	16:21:36
12002	real	36	congruent	401	1	right	right	02-18-2015	16:21:36
12002	real	37	neutral	405	1	right	right	02-18-2015	16:21:36
12002	real	38	incongruent	485	1	right	right	02-18-2015	16:21:36
12002	real	39	incongruent	495	1	right	right	02-18-2015	16:21:36
12002	real	40	congruent	422	1	right	right	02-18-2015	16:21:36
12002	real	41	incongruent	472	1	right	right	02-18-2015	16:21:36
12002	real	42	congruent	331	1	right	right	02-18-2015	16:21:36
12002	real	43	congruent	369	1	right	right	02-18-2015	16:21:36
12002	real	44	incongruent	611	1	left	left	02-18-2015	16:21:36
12002	real	45	neutral	436	1	right	right	02-18-2015	16:21:36
12002	real	46	incongruent	495	1	right	right	02-18-2015	16:21:36
12002	real	47	incongruent	509	1	right	right	02-18-2015	16:21:36
12002	real	48	congruent	507	1	left	left	02-18-2015	16:21:36
12002	real	49	congruent	409	1	right	right	02-18-2015	16:21:36
12002	real	50	neutral	450	1	right	right	02-18-2015	16:21:36
12002	real	51	neutral	397	1	right	right	02-18-2015	16:21:36
12002	real	52	neutral	399	1	right	right	02-18-2015	16:21:36
12002	real	53	neutral	470	1	left	left	02-18-2015	16:21:36
12002	real	54	congruent	374	1	left	left	02-18-2015	16:21:36
12002	real	55	incongruent	573	1	left	left	02-18-2015	16:21:36
12002	real	56	neutral	381	1	left	left	02-18-2015	16:21:36
12002	real	57	incongruent	497	1	left	left	02-18-2015	16:21:36
12002	real	58	congruent	406	1	left	left	02-18-2015	16:21:36
12002	real	59	neutral	448	1	left	left	02-18-2015	16:21:36
12002	real	60	neutral	496	1	right	right	02-18-2015	16:21:36
12002	real	61	incongruent	695	1	right	right	02-18-2015	16:21:36
12002	real	62	incongruent	636	1	left	left	02-18-2015	16:21:36
12002	real	63	neutral	445	1	right	right	02-18-2015	16:21:36
12002	real	64	neutral	505	1	left	left	02-18-2015	16:21:36
12002	real	65	congruent	463	1	left	left	02-18-2015	16:21:36
12002	real	66	congruent	424	1	right	right	02-18-2015	16:21:36
12002	real	67	incongruent	437	1	left	left	02-18-2015	16:21:36
12002	real	68	congruent	430	1	right	right	02-18-2015	16:21:36
12002	real	69	incongruent	529	1	left	left	02-18-2015	16:21:36
12002	real	70	incongruent	470	1	left	left	02-18-2015	16:21:36
12002	real	71	incongruent	509	1	left	left	02-18-2015	16:21:36
12002	real	72	neutral	411	1	left	left	02-18-2015	16:21:36
12002	real	73	incongruent	664	1	right	right	02-18-2015	16:21:36
12002	real	74	congruent	453	1	right	right	02-18-2015	16:21:36
12002	real	75	incongruent	473	1	right	right	02-18-2015	16:21:36
12002	real	76	congruent	728	1	left	left	02-18-2015	16:21:36
12002	real	77	incongruent	530	1	left	left	02-18-2015	16:21:36
12002	real	78	incongruent	0	0		left	02-18-2015	16:21:36
12002	real	79	neutral	637	1	right	right	02-18-2015	16:21:36
12002	real	80	congruent	448	1	left	left	02-18-2015	16:21:36
12002	real	81	congruent	490	1	left	left	02-18-2015	16:21:36
12002	real	82	incongruent	456	1	right	right	02-18-2015	16:21:36
12002	real	83	neutral	553	1	right	right	02-18-2015	16:21:36
12002	real	84	neutral	451	1	right	right	02-18-2015	16:21:36
12002	real	85	incongruent	502	1	right	right	02-18-2015	16:21:36
12002	real	86	neutral	352	1	right	right	02-18-2015	16:21:36
12002	real	87	neutral	459	1	left	left	02-18-2015	16:21:36
12002	real	88	congruent	422	1	left	left	02-18-2015	16:21:36
12002	real	89	congruent	415	1	right	right	02-18-2015	16:21:36
12002	real	90	incongruent	463	1	right	right	02-18-2015	16:21:36
12002	real	91	incongruent	471	1	right	right	02-18-2015	16:21:36
12002	real	92	congruent	427	1	left	left	02-18-2015	16:21:36
12002	real	93	incongruent	493	1	right	right	02-18-2015	16:21:36
12002	real	94	congruent	374	1	right	right	02-18-2015	16:21:36
12002	real	95	congruent	461	1	left	left	02-18-2015	16:21:36
12002	real	96	neutral	359	1	right	right	02-18-2015	16:21:36
12006	practice	1	congruent	585	1	right	right	02-20-2015	10:28:45
12006	practice	2	congruent	603	1	left	left	02-20-2015	10:28:45
12006	practice	3	neutral	671	1	right	right	02-20-2015	10:28:45
12006	practice	4	neutral	523	1	left	left	02-20-2015	10:28:45
12006	practice	5	incongruent	684	1	right	right	02-20-2015	10:28:45
12006	practice	6	incongruent	640	1	left	left	02-20-2015	10:28:45
12006	real	1	neutral	586	1	right	right	02-20-2015	10:28:45
12006	real	2	neutral	533	1	right	right	02-20-2015	10:28:45
12006	real	3	incongruent	642	1	right	right	02-20-2015	10:28:45
12006	real	4	congruent	665	1	right	right	02-20-2015	10:28:45
12006	real	5	incongruent	751	1	right	right	02-20-2015	10:28:45
12006	real	6	incongruent	719	1	right	right	02-20-2015	10:28:45
12006	real	7	incongruent	597	1	left	left	02-20-2015	10:28:45
12006	real	8	incongruent	645	1	left	left	02-20-2015	10:28:45
12006	real	9	congruent	490	1	left	left	02-20-2015	10:28:45
12006	real	10	congruent	641	1	left	left	02-20-2015	10:28:45
12006	real	11	neutral	653	1	left	left	02-20-2015	10:28:45
12006	real	12	incongruent	668	1	left	left	02-20-2015	10:28:45
12006	real	13	congruent	524	1	left	left	02-20-2015	10:28:45
12006	real	14	neutral	505	1	right	right	02-20-2015	10:28:45
12006	real	15	congruent	553	1	left	left	02-20-2015	10:28:45
12006	real	16	incongruent	596	1	left	left	02-20-2015	10:28:45
12006	real	17	neutral	493	1	left	left	02-20-2015	10:28:45
12006	real	18	congruent	509	1	right	right	02-20-2015	10:28:45
12006	real	19	incongruent	608	1	left	left	02-20-2015	10:28:45
12006	real	20	neutral	463	1	left	left	02-20-2015	10:28:45
12006	real	21	congruent	433	1	left	left	02-20-2015	10:28:45
12006	real	22	neutral	419	1	left	left	02-20-2015	10:28:45
12006	real	23	congruent	0	0		right	02-20-2015	10:28:45
12006	real	24	incongruent	685	0	left	right	02-20-2015	10:28:45
12006	real	25	neutral	481	1	right	right	02-20-2015	10:28:45
12006	real	26	neutral	453	1	right	right	02-20-2015	10:28:45
12006	real	27	incongruent	523	1	left	left	02-20-2015	10:28:45
12006	real	28	congruent	444	1	right	right	02-20-2015	10:28:45
12006	real	29	incongruent	490	1	right	right	02-20-2015	10:28:45
12006	real	30	congruent	440	1	left	left	02-20-2015	10:28:45
12006	real	31	incongruent	511	1	left	left	02-20-2015	10:28:45
12006	real	32	incongruent	484	1	left	left	02-20-2015	10:28:45
12006	real	33	incongruent	540	1	right	right	02-20-2015	10:28:45
12006	real	34	neutral	448	1	left	left	02-20-2015	10:28:45
12006	real	35	neutral	436	1	left	left	02-20-2015	10:28:45
12006	real	36	congruent	450	1	right	right	02-20-2015	10:28:45
12006	real	37	congruent	435	1	left	left	02-20-2015	10:28:45
12006	real	38	incongruent	654	1	left	left	02-20-2015	10:28:45
12006	real	39	incongruent	444	1	left	left	02-20-2015	10:28:45
12006	real	40	congruent	432	1	left	left	02-20-2015	10:28:45
12006	real	41	incongruent	475	1	left	left	02-20-2015	10:28:45
12006	real	42	congruent	469	1	left	left	02-20-2015	10:28:45
12006	real	43	incongruent	485	1	right	right	02-20-2015	10:28:45
12006	real	44	incongruent	384	1	left	left	02-20-2015	10:28:45
12006	real	45	incongruent	584	1	left	left	02-20-2015	10:28:45
12006	real	46	neutral	454	1	right	right	02-20-2015	10:28:45
12006	real	47	congruent	400	1	right	right	02-20-2015	10:28:45
12006	real	48	incongruent	484	1	right	right	02-20-2015	10:28:45
12006	real	49	incongruent	469	1	right	right	02-20-2015	10:28:45
12006	real	50	incongruent	573	1	left	left	02-20-2015	10:28:45
12006	real	51	neutral	563	1	left	left	02-20-2015	10:28:45
12006	real	52	incongruent	497	1	right	right	02-20-2015	10:28:45
12006	real	53	neutral	485	1	right	right	02-20-2015	10:28:45
12006	real	54	congruent	386	1	right	right	02-20-2015	10:28:45
12006	real	55	incongruent	702	1	right	right	02-20-2015	10:28:45
12006	real	56	neutral	456	1	right	right	02-20-2015	10:28:45
12006	real	57	congruent	457	1	right	right	02-20-2015	10:28:45
12006	real	58	congruent	419	1	left	left	02-20-2015	10:28:45
12006	real	59	congruent	499	1	right	right	02-20-2015	10:28:45
12006	real	60	congruent	547	1	left	left	02-20-2015	10:28:45
12006	real	61	neutral	451	1	right	right	02-20-2015	10:28:45
12006	real	62	neutral	590	1	left	left	02-20-2015	10:28:45
12006	real	63	congruent	459	1	left	left	02-20-2015	10:28:45
12006	real	64	neutral	384	1	right	right	02-20-2015	10:28:45
12006	real	65	neutral	415	1	right	right	02-20-2015	10:28:45
12006	real	66	congruent	475	1	right	right	02-20-2015	10:28:45
12006	real	67	neutral	408	1	right	right	02-20-2015	10:28:45
12006	real	68	neutral	468	1	left	left	02-20-2015	10:28:45
12006	real	69	incongruent	485	1	right	right	02-20-2015	10:28:45
12006	real	70	congruent	416	1	left	left	02-20-2015	10:28:45
12006	real	71	neutral	474	1	left	left	02-20-2015	10:28:45
12006	real	72	incongruent	627	1	right	right	02-20-2015	10:28:45
12006	real	73	congruent	471	1	right	right	02-20-2015	10:28:45
12006	real	74	congruent	511	1	right	right	02-20-2015	10:28:45
12006	real	75	neutral	461	1	right	right	02-20-2015	10:28:45
12006	real	76	congruent	458	1	right	right	02-20-2015	10:28:45
12006	real	77	incongruent	499	1	left	left	02-20-2015	10:28:45
12006	real	78	incongruent	598	1	right	right	02-20-2015	10:28:45
12006	real	79	neutral	457	1	left	left	02-20-2015	10:28:45
12006	real	80	neutral	511	1	right	right	02-20-2015	10:28:45
12006	real	81	neutral	551	1	left	left	02-20-2015	10:28:45
12006	real	82	incongruent	558	1	left	left	02-20-2015	10:28:45
12006	real	83	congruent	479	1	right	right	02-20-2015	10:28:45
12006	real	84	neutral	465	1	right	right	02-20-2015	10:28:45
12006	real	85	neutral	464	1	left	left	02-20-2015	10:28:45
12006	real	86	congruent	477	1	right	right	02-20-2015	10:28:45
12006	real	87	neutral	475	1	left	left	02-20-2015	10:28:45
12006	real	88	neutral	415	1	left	left	02-20-2015	10:28:45
12006	real	89	incongruent	486	1	right	right	02-20-2015	10:28:45
12006	real	90	congruent	551	1	left	left	02-20-2015	10:28:45
12006	real	91	congruent	473	1	left	left	02-20-2015	10:28:45
12006	real	92	incongruent	542	1	right	right	02-20-2015	10:28:45
12006	real	93	neutral	456	1	left	left	02-20-2015	10:28:45
12006	real	94	congruent	494	1	left	left	02-20-2015	10:28:45
12006	real	95	congruent	440	1	right	right	02-20-2015	10:28:45
12006	real	96	neutral	539	1	right	right	02-20-2015	10:28:45
12006	real	1	incongruent	618	1	right	right	02-20-2015	10:28:45
12006	real	2	incongruent	520	1	left	left	02-20-2015	10:28:45
12006	real	3	incongruent	534	1	right	right	02-20-2015	10:28:45
12006	real	4	incongruent	522	1	right	right	02-20-2015	10:28:45
12006	real	5	neutral	465	1	right	right	02-20-2015	10:28:45
12006	real	6	neutral	431	1	left	left	02-20-2015	10:28:45
12006	real	7	congruent	484	1	left	left	02-20-2015	10:28:45
12006	real	8	congruent	407	1	right	right	02-20-2015	10:28:45
12006	real	9	neutral	418	1	right	right	02-20-2015	10:28:45
12006	real	10	congruent	495	1	left	left	02-20-2015	10:28:45
12006	real	11	congruent	490	1	right	right	02-20-2015	10:28:45
12006	real	12	neutral	460	1	right	right	02-20-2015	10:28:45
12006	real	13	neutral	475	1	right	right	02-20-2015	10:28:45
12006	real	14	congruent	513	1	left	left	02-20-2015	10:28:45
12006	real	15	congruent	483	1	right	right	02-20-2015	10:28:45
12006	real	16	incongruent	509	1	right	right	02-20-2015	10:28:45
12006	real	17	incongruent	496	1	left	left	02-20-2015	10:28:45
12006	real	18	neutral	441	1	right	right	02-20-2015	10:28:45
12006	real	19	incongruent	489	1	left	left	02-20-2015	10:28:45
12006	real	20	incongruent	526	1	left	left	02-20-2015	10:28:45
12006	real	21	neutral	411	1	right	right	02-20-2015	10:28:45
12006	real	22	incongruent	495	1	right	right	02-20-2015	10:28:45
12006	real	23	congruent	454	1	right	right	02-20-2015	10:28:45
12006	real	24	congruent	406	1	left	left	02-20-2015	10:28:45
12006	real	25	neutral	460	1	left	left	02-20-2015	10:28:45
12006	real	26	incongruent	533	1	right	right	02-20-2015	10:28:45
12006	real	27	neutral	397	1	right	right	02-20-2015	10:28:45
12006	real	28	incongruent	519	1	right	right	02-20-2015	10:28:45
12006	real	29	incongruent	460	1	left	left	02-20-2015	10:28:45
12006	real	30	incongruent	458	1	right	right	02-20-2015	10:28:45
12006	real	31	congruent	473	1	right	right	02-20-2015	10:28:45
12006	real	32	incongruent	679	1	left	left	02-20-2015	10:28:45
12006	real	33	congruent	505	1	right	right	02-20-2015	10:28:45
12006	real	34	congruent	482	1	right	right	02-20-2015	10:28:45
12006	real	35	congruent	455	1	left	left	02-20-2015	10:28:45
12006	real	36	neutral	412	1	left	left	02-20-2015	10:28:45
12006	real	37	neutral	399	1	left	left	02-20-2015	10:28:45
12006	real	38	incongruent	485	1	left	left	02-20-2015	10:28:45
12006	real	39	congruent	335	1	left	left	02-20-2015	10:28:45
12006	real	40	congruent	322	1	left	left	02-20-2015	10:28:45
12006	real	41	congruent	402	1	left	left	02-20-2015	10:28:45
12006	real	42	incongruent	564	1	right	right	02-20-2015	10:28:45
12006	real	43	neutral	518	1	right	right	02-20-2015	10:28:45
12006	real	44	incongruent	490	1	left	left	02-20-2015	10:28:45
12006	real	45	congruent	434	1	right	right	02-20-2015	10:28:45
12006	real	46	congruent	704	1	left	left	02-20-2015	10:28:45
12006	real	47	neutral	586	1	right	right	02-20-2015	10:28:45
12006	real	48	incongruent	525	1	right	right	02-20-2015	10:28:45
12006	real	49	neutral	473	1	left	left	02-20-2015	10:28:45
12006	real	50	neutral	544	1	left	left	02-20-2015	10:28:45
12006	real	51	congruent	496	1	right	right	02-20-2015	10:28:45
12006	real	52	neutral	432	1	left	left	02-20-2015	10:28:45
12006	real	53	incongruent	512	1	left	left	02-20-2015	10:28:45
12006	real	54	congruent	441	1	right	right	02-20-2015	10:28:45
12006	real	55	neutral	425	1	right	right	02-20-2015	10:28:45
12006	real	56	neutral	486	1	left	left	02-20-2015	10:28:45
12006	real	57	congruent	629	1	left	left	02-20-2015	10:28:45
12006	real	58	neutral	409	1	left	left	02-20-2015	10:28:45
12006	real	59	incongruent	450	1	left	left	02-20-2015	10:28:45
12006	real	60	congruent	455	1	left	left	02-20-2015	10:28:45
12006	real	61	congruent	432	1	left	left	02-20-2015	10:28:45
12006	real	62	neutral	457	1	right	right	02-20-2015	10:28:45
12006	real	63	neutral	536	1	left	left	02-20-2015	10:28:45
12006	real	64	congruent	368	1	left	left	02-20-2015	10:28:45
12006	real	65	incongruent	538	1	left	left	02-20-2015	10:28:45
12006	real	66	incongruent	464	1	left	left	02-20-2015	10:28:45
12006	real	67	neutral	572	1	right	right	02-20-2015	10:28:45
12006	real	68	congruent	423	1	right	right	02-20-2015	10:28:45
12006	real	69	incongruent	487	1	right	right	02-20-2015	10:28:45
12006	real	70	neutral	403	1	right	right	02-20-2015	10:28:45
12006	real	71	incongruent	661	1	left	left	02-20-2015	10:28:45
12006	real	72	congruent	507	1	left	left	02-20-2015	10:28:45
12006	real	73	neutral	454	1	left	left	02-20-2015	10:28:45
12006	real	74	incongruent	529	1	right	right	02-20-2015	10:28:45
12006	real	75	neutral	428	1	right	right	02-20-2015	10:28:45
12006	real	76	congruent	390	1	right	right	02-20-2015	10:28:45
12006	real	77	neutral	490	1	left	left	02-20-2015	10:28:45
12006	real	78	incongruent	509	1	right	right	02-20-2015	10:28:45
12006	real	79	congruent	408	1	right	right	02-20-2015	10:28:45
12006	real	80	incongruent	772	1	left	left	02-20-2015	10:28:45
12006	real	81	incongruent	587	1	right	right	02-20-2015	10:28:45
12006	real	82	congruent	443	1	right	right	02-20-2015	10:28:45
12006	real	83	neutral	448	1	left	left	02-20-2015	10:28:45
12006	real	84	neutral	441	1	left	left	02-20-2015	10:28:45
12006	real	85	incongruent	525	1	right	right	02-20-2015	10:28:45
12006	real	86	incongruent	602	1	left	left	02-20-2015	10:28:45
12006	real	87	incongruent	522	1	right	right	02-20-2015	10:28:45
12006	real	88	neutral	405	1	left	left	02-20-2015	10:28:45
12006	real	89	congruent	410	1	left	left	02-20-2015	10:28:45
12006	real	90	congruent	406	1	left	left	02-20-2015	10:28:45
12006	real	91	neutral	374	1	right	right	02-20-2015	10:28:45
12006	real	92	congruent	518	1	right	right	02-20-2015	10:28:45
12006	real	93	congruent	453	1	right	right	02-20-2015	10:28:45
12006	real	94	neutral	483	1	left	left	02-20-2015	10:28:45
12006	real	95	neutral	407	1	right	right	02-20-2015	10:28:45
12006	real	96	incongruent	456	1	left	left	02-20-2015	10:28:45
12006	real	1	incongruent	592	1	left	left	02-20-2015	10:28:45
12006	real	2	incongruent	473	1	left	left	02-20-2015	10:28:45
12006	real	3	neutral	506	1	right	right	02-20-2015	10:28:45
12006	real	4	incongruent	512	1	left	left	02-20-2015	10:28:45
12006	real	5	congruent	422	1	left	left	02-20-2015	10:28:45
12006	real	6	congruent	503	1	right	right	02-20-2015	10:28:45
12006	real	7	incongruent	506	1	right	right	02-20-2015	10:28:45
12006	real	8	neutral	423	1	left	left	02-20-2015	10:28:45
12006	real	9	neutral	468	1	right	right	02-20-2015	10:28:45
12006	real	10	congruent	462	1	right	right	02-20-2015	10:28:45
12006	real	11	congruent	504	1	left	left	02-20-2015	10:28:45
12006	real	12	neutral	428	1	right	right	02-20-2015	10:28:45
12006	real	13	congruent	396	1	right	right	02-20-2015	10:28:45
12006	real	14	incongruent	561	1	right	right	02-20-2015	10:28:45
12006	real	15	incongruent	448	1	left	left	02-20-2015	10:28:45
12006	real	16	congruent	461	1	left	left	02-20-2015	10:28:45
12006	real	17	congruent	484	1	left	left	02-20-2015	10:28:45
12006	real	18	congruent	459	1	left	left	02-20-2015	10:28:45
12006	real	19	neutral	425	1	left	left	02-20-2015	10:28:45
12006	real	20	neutral	458	1	right	right	02-20-2015	10:28:45
12006	real	21	neutral	395	1	left	left	02-20-2015	10:28:45
12006	real	22	neutral	362	1	right	right	02-20-2015	10:28:45
12006	real	23	congruent	473	1	right	right	02-20-2015	10:28:45
12006	real	24	incongruent	489	1	left	left	02-20-2015	10:28:45
12006	real	25	incongruent	587	1	right	right	02-20-2015	10:28:45
12006	real	26	incongruent	827	1	left	left	02-20-2015	10:28:45
12006	real	27	neutral	438	1	right	right	02-20-2015	10:28:45
12006	real	28	congruent	422	1	right	right	02-20-2015	10:28:45
12006	real	29	congruent	446	1	left	left	02-20-2015	10:28:45
12006	real	30	neutral	514	1	left	left	02-20-2015	10:28:45
12006	real	31	neutral	391	1	left	left	02-20-2015	10:28:45
12006	real	32	congruent	451	1	left	left	02-20-2015	10:28:45
12006	real	33	congruent	437	1	right	right	02-20-2015	10:28:45
12006	real	34	incongruent	523	1	left	left	02-20-2015	10:28:45
12006	real	35	incongruent	484	1	left	left	02-20-2015	10:28:45
12006	real	36	neutral	453	1	right	right	02-20-2015	10:28:45
12006	real	37	incongruent	495	1	right	right	02-20-2015	10:28:45
12006	real	38	congruent	475	1	right	right	02-20-2015	10:28:45
12006	real	39	incongruent	524	1	right	right	02-20-2015	10:28:45
12006	real	40	incongruent	493	1	right	right	02-20-2015	10:28:45
12006	real	41	neutral	474	1	left	left	02-20-2015	10:28:45
12006	real	42	congruent	480	1	right	right	02-20-2015	10:28:45
12006	real	43	congruent	403	1	left	left	02-20-2015	10:28:45
12006	real	44	congruent	479	1	left	left	02-20-2015	10:28:45
12006	real	45	neutral	467	1	right	right	02-20-2015	10:28:45
12006	real	46	congruent	458	1	right	right	02-20-2015	10:28:45
12006	real	47	neutral	524	1	left	left	02-20-2015	10:28:45
12006	real	48	incongruent	710	1	left	left	02-20-2015	10:28:45
12006	real	49	incongruent	623	1	right	right	02-20-2015	10:28:45
12006	real	50	neutral	495	1	right	right	02-20-2015	10:28:45
12006	real	51	congruent	506	1	left	left	02-20-2015	10:28:45
12006	real	52	neutral	517	1	right	right	02-20-2015	10:28:45
12006	real	53	incongruent	523	1	left	left	02-20-2015	10:28:45
12006	real	54	congruent	611	1	left	left	02-20-2015	10:28:45
12006	real	55	incongruent	628	1	left	left	02-20-2015	10:28:45
12006	real	56	incongruent	899	1	right	right	02-20-2015	10:28:45
12006	real	57	neutral	598	1	left	left	02-20-2015	10:28:45
12006	real	58	neutral	472	1	right	right	02-20-2015	10:28:45
12006	real	59	incongruent	726	1	right	right	02-20-2015	10:28:45
12006	real	60	congruent	567	1	left	left	02-20-2015	10:28:45
12006	real	61	incongruent	521	1	left	left	02-20-2015	10:28:45
12006	real	62	neutral	437	1	right	right	02-20-2015	10:28:45
12006	real	63	neutral	547	1	left	left	02-20-2015	10:28:45
12006	real	64	congruent	471	1	left	left	02-20-2015	10:28:45
12006	real	65	incongruent	712	1	right	right	02-20-2015	10:28:45
12006	real	66	congruent	452	1	right	right	02-20-2015	10:28:45
12006	real	67	incongruent	616	1	left	left	02-20-2015	10:28:45
12006	real	68	incongruent	642	1	left	left	02-20-2015	10:28:45
12006	real	69	congruent	491	1	left	left	02-20-2015	10:28:45
12006	real	70	congruent	477	1	right	right	02-20-2015	10:28:45
12006	real	71	incongruent	674	1	left	left	02-20-2015	10:28:45
12006	real	72	neutral	504	1	left	left	02-20-2015	10:28:45
12006	real	73	incongruent	545	1	right	right	02-20-2015	10:28:45
12006	real	74	incongruent	523	1	right	right	02-20-2015	10:28:45
12006	real	75	neutral	583	1	left	left	02-20-2015	10:28:45
12006	real	76	incongruent	487	1	right	right	02-20-2015	10:28:45
12006	real	77	congruent	500	1	right	right	02-20-2015	10:28:45
12006	real	78	incongruent	598	1	right	right	02-20-2015	10:28:45
12006	real	79	neutral	480	1	left	left	02-20-2015	10:28:45
12006	real	80	congruent	469	1	right	right	02-20-2015	10:28:45
12006	real	81	congruent	404	1	right	right	02-20-2015	10:28:45
12006	real	82	neutral	433	1	right	right	02-20-2015	10:28:45
12006	real	83	congruent	579	1	left	left	02-20-2015	10:28:45
12006	real	84	neutral	501	1	left	left	02-20-2015	10:28:45
12006	real	85	incongruent	575	1	right	right	02-20-2015	10:28:45
12006	real	86	incongruent	543	1	left	left	02-20-2015	10:28:45
12006	real	87	neutral	417	1	left	left	02-20-2015	10:28:45
12006	real	88	neutral	459	1	left	left	02-20-2015	10:28:45
12006	real	89	congruent	481	1	right	right	02-20-2015	10:28:45
12006	real	90	congruent	422	1	left	left	02-20-2015	10:28:45
12006	real	91	neutral	374	1	left	left	02-20-2015	10:28:45
12006	real	92	neutral	497	1	right	right	02-20-2015	10:28:45
12006	real	93	neutral	434	1	right	right	02-20-2015	10:28:45
12006	real	94	incongruent	544	1	right	right	02-20-2015	10:28:45
12006	real	95	neutral	407	1	right	right	02-20-2015	10:28:45
12006	real	96	congruent	437	1	right	right	02-20-2015	10:28:45
12008	practice	1	congruent	714	1	right	right	02-20-2015	13:04:28
12008	practice	2	neutral	646	1	left	left	02-20-2015	13:04:28
12008	practice	3	incongruent	519	1	left	left	02-20-2015	13:04:28
12008	practice	4	congruent	456	1	left	left	02-20-2015	13:04:28
12008	practice	5	incongruent	596	1	right	right	02-20-2015	13:04:28
12008	practice	6	neutral	548	1	right	right	02-20-2015	13:04:28
12008	real	1	incongruent	785	1	left	left	02-20-2015	13:04:28
12008	real	2	incongruent	562	1	right	right	02-20-2015	13:04:28
12008	real	3	neutral	502	1	left	left	02-20-2015	13:04:28
12008	real	4	incongruent	549	1	left	left	02-20-2015	13:04:28
12008	real	5	incongruent	566	1	right	right	02-20-2015	13:04:28
12008	real	6	congruent	523	1	right	right	02-20-2015	13:04:28
12008	real	7	congruent	443	1	left	left	02-20-2015	13:04:28
12008	real	8	incongruent	483	1	right	right	02-20-2015	13:04:28
12008	real	9	incongruent	559	1	right	right	02-20-2015	13:04:28
12008	real	10	incongruent	531	1	right	right	02-20-2015	13:04:28
12008	real	11	congruent	702	1	left	left	02-20-2015	13:04:28
12008	real	12	neutral	518	1	right	right	02-20-2015	13:04:28
12008	real	13	congruent	420	1	left	left	02-20-2015	13:04:28
12008	real	14	neutral	473	1	right	right	02-20-2015	13:04:28
12008	real	15	congruent	461	1	left	left	02-20-2015	13:04:28
12008	real	16	neutral	442	1	right	right	02-20-2015	13:04:28
12008	real	17	neutral	455	1	right	right	02-20-2015	13:04:28
12008	real	18	congruent	479	1	right	right	02-20-2015	13:04:28
12008	real	19	incongruent	471	1	left	left	02-20-2015	13:04:28
12008	real	20	congruent	524	1	right	right	02-20-2015	13:04:28
12008	real	21	neutral	445	1	left	left	02-20-2015	13:04:28
12008	real	22	neutral	528	1	left	left	02-20-2015	13:04:28
12008	real	23	neutral	545	1	right	right	02-20-2015	13:04:28
12008	real	24	incongruent	575	1	right	right	02-20-2015	13:04:28
12008	real	25	congruent	544	1	right	right	02-20-2015	13:04:28
12008	real	26	incongruent	577	1	right	right	02-20-2015	13:04:28
12008	real	27	incongruent	619	1	right	right	02-20-2015	13:04:28
12008	real	28	congruent	496	1	right	right	02-20-2015	13:04:28
12008	real	29	neutral	486	1	left	left	02-20-2015	13:04:28
12008	real	30	incongruent	607	1	right	right	02-20-2015	13:04:28
12008	real	31	neutral	451	1	left	left	02-20-2015	13:04:28
12008	real	32	neutral	537	1	left	left	02-20-2015	13:04:28
12008	real	33	incongruent	519	1	left	left	02-20-2015	13:04:28
12008	real	34	congruent	548	1	right	right	02-20-2015	13:04:28
12008	real	35	neutral	579	1	right	right	02-20-2015	13:04:28
12008	real	36	incongruent	561	1	left	left	02-20-2015	13:04:28
12008	real	37	congruent	744	1	right	right	02-20-2015	13:04:28
12008	real	38	congruent	612	1	right	right	02-20-2015	13:04:28
12008	real	39	incongruent	577	1	right	right	02-20-2015	13:04:28
12008	real	40	congruent	462	1	left	left	02-20-2015	13:04:28
12008	real	41	congruent	399	1	left	left	02-20-2015	13:04:28
12008	real	42	incongruent	840	1	right	right	02-20-2015	13:04:28
12008	real	43	congruent	560	1	left	left	02-20-2015	13:04:28
12008	real	44	neutral	482	1	right	right	02-20-2015	13:04:28
12008	real	45	incongruent	511	1	left	left	02-20-2015	13:04:28
12008	real	46	incongruent	567	1	left	left	02-20-2015	13:04:28
12008	real	47	neutral	500	1	left	left	02-20-2015	13:04:28
12008	real	48	neutral	431	1	right	right	02-20-2015	13:04:28
12008	real	49	incongruent	512	1	left	left	02-20-2015	13:04:28
12008	real	50	neutral	432	1	right	right	02-20-2015	13:04:28
12008	real	51	neutral	476	1	left	left	02-20-2015	13:04:28
12008	real	52	incongruent	521	1	right	right	02-20-2015	13:04:28
12008	real	53	congruent	457	1	right	right	02-20-2015	13:04:28
12008	real	54	incongruent	480	1	left	left	02-20-2015	13:04:28
12008	real	55	neutral	991	1	right	right	02-20-2015	13:04:28
12008	real	56	congruent	447	1	left	left	02-20-2015	13:04:28
12008	real	57	neutral	459	1	right	right	02-20-2015	13:04:28
12008	real	58	incongruent	772	1	right	right	02-20-2015	13:04:28
12008	real	59	congruent	900	1	right	right	02-20-2015	13:04:28
12008	real	60	incongruent	548	1	left	left	02-20-2015	13:04:28
12008	real	61	neutral	508	1	right	right	02-20-2015	13:04:28
12008	real	62	neutral	546	1	left	left	02-20-2015	13:04:28
12008	real	63	congruent	598	1	left	left	02-20-2015	13:04:28
12008	real	64	neutral	406	1	left	left	02-20-2015	13:04:28
12008	real	65	neutral	576	1	right	right	02-20-2015	13:04:28
12008	real	66	congruent	530	1	right	right	02-20-2015	13:04:28
12008	real	67	neutral	427	1	left	left	02-20-2015	13:04:28
12008	real	68	incongruent	513	1	left	left	02-20-2015	13:04:28
12008	real	69	congruent	473	1	right	right	02-20-2015	13:04:28
12008	real	70	congruent	585	1	left	left	02-20-2015	13:04:28
12008	real	71	incongruent	1212	1	left	left	02-20-2015	13:04:28
12008	real	72	congruent	463	1	left	left	02-20-2015	13:04:28
12008	real	73	neutral	479	1	right	right	02-20-2015	13:04:28
12008	real	74	neutral	455	1	left	left	02-20-2015	13:04:28
12008	real	75	neutral	447	1	left	left	02-20-2015	13:04:28
12008	real	76	congruent	449	1	right	right	02-20-2015	13:04:28
12008	real	77	neutral	438	1	right	right	02-20-2015	13:04:28
12008	real	78	neutral	411	1	right	right	02-20-2015	13:04:28
12008	real	79	incongruent	567	1	left	left	02-20-2015	13:04:28
12008	real	80	congruent	527	1	left	left	02-20-2015	13:04:28
12008	real	81	incongruent	604	1	right	right	02-20-2015	13:04:28
12008	real	82	congruent	570	1	right	right	02-20-2015	13:04:28
12008	real	83	congruent	436	1	right	right	02-20-2015	13:04:28
12008	real	84	incongruent	603	1	left	left	02-20-2015	13:04:28
12008	real	85	neutral	482	1	left	left	02-20-2015	13:04:28
12008	real	86	incongruent	636	1	left	left	02-20-2015	13:04:28
12008	real	87	incongruent	478	1	left	left	02-20-2015	13:04:28
12008	real	88	congruent	513	1	left	left	02-20-2015	13:04:28
12008	real	89	congruent	483	1	left	left	02-20-2015	13:04:28
12008	real	90	incongruent	570	1	right	right	02-20-2015	13:04:28
12008	real	91	congruent	529	1	left	left	02-20-2015	13:04:28
12008	real	92	neutral	394	1	left	left	02-20-2015	13:04:28
12008	real	93	congruent	591	1	right	right	02-20-2015	13:04:28
12008	real	94	congruent	869	1	left	left	02-20-2015	13:04:28
12008	real	95	neutral	555	1	left	left	02-20-2015	13:04:28
12008	real	96	incongruent	622	1	right	right	02-20-2015	13:04:28
12008	real	1	incongruent	537	1	left	left	02-20-2015	13:04:28
12008	real	2	neutral	489	1	right	right	02-20-2015	13:04:28
12008	real	3	neutral	522	1	left	left	02-20-2015	13:04:28
12008	real	4	congruent	415	1	left	left	02-20-2015	13:04:28
12008	real	5	neutral	410	1	left	left	02-20-2015	13:04:28
12008	real	6	congruent	618	1	right	right	02-20-2015	13:04:28
12008	real	7	congruent	475	1	right	right	02-20-2015	13:04:28
12008	real	8	incongruent	548	1	right	right	02-20-2015	13:04:28
12008	real	9	congruent	457	1	right	right	02-20-2015	13:04:28
12008	real	10	incongruent	756	1	left	left	02-20-2015	13:04:28
12008	real	11	congruent	530	1	right	right	02-20-2015	13:04:28
12008	real	12	incongruent	513	1	right	right	02-20-2015	13:04:28
12008	real	13	neutral	574	1	right	right	02-20-2015	13:04:28
12008	real	14	neutral	481	1	left	left	02-20-2015	13:04:28
12008	real	15	incongruent	612	1	left	left	02-20-2015	13:04:28
12008	real	16	neutral	529	1	right	right	02-20-2015	13:04:28
12008	real	17	incongruent	803	1	right	right	02-20-2015	13:04:28
12008	real	18	neutral	495	1	right	right	02-20-2015	13:04:28
12008	real	19	congruent	516	1	left	left	02-20-2015	13:04:28
12008	real	20	congruent	482	1	right	right	02-20-2015	13:04:28
12008	real	21	congruent	596	1	right	right	02-20-2015	13:04:28
12008	real	22	neutral	500	1	left	left	02-20-2015	13:04:28
12008	real	23	incongruent	574	1	left	left	02-20-2015	13:04:28
12008	real	24	congruent	488	1	left	left	02-20-2015	13:04:28
12008	real	25	congruent	476	1	right	right	02-20-2015	13:04:28
12008	real	26	incongruent	597	1	right	right	02-20-2015	13:04:28
12008	real	27	congruent	436	1	left	left	02-20-2015	13:04:28
12008	real	28	incongruent	789	1	right	right	02-20-2015	13:04:28
12008	real	29	neutral	476	1	left	left	02-20-2015	13:04:28
12008	real	30	congruent	491	1	left	left	02-20-2015	13:04:28
12008	real	31	incongruent	539	1	right	right	02-20-2015	13:04:28
12008	real	32	neutral	662	1	right	right	02-20-2015	13:04:28
12008	real	33	incongruent	598	1	right	right	02-20-2015	13:04:28
12008	real	34	neutral	492	1	right	right	02-20-2015	13:04:28
12008	real	35	congruent	482	1	right	right	02-20-2015	13:04:28
12008	real	36	congruent	503	1	left	left	02-20-2015	13:04:28
12008	real	37	neutral	421	1	left	left	02-20-2015	13:04:28
12008	real	38	congruent	528	1	right	right	02-20-2015	13:04:28
12008	real	39	incongruent	536	1	right	right	02-20-2015	13:04:28
12008	real	40	congruent	516	1	right	right	02-20-2015	13:04:28
12008	real	41	incongruent	515	1	right	right	02-20-2015	13:04:28
12008	real	42	neutral	587	1	left	left	02-20-2015	13:04:28
12008	real	43	neutral	512	1	right	right	02-20-2015	13:04:28
12008	real	44	congruent	579	1	left	left	02-20-2015	13:04:28
12008	real	45	congruent	524	1	left	left	02-20-2015	13:04:28
12008	real	46	incongruent	600	1	left	left	02-20-2015	13:04:28
12008	real	47	neutral	619	1	left	left	02-20-2015	13:04:28
12008	real	48	neutral	513	1	right	right	02-20-2015	13:04:28
12008	real	49	incongruent	683	1	right	right	02-20-2015	13:04:28
12008	real	50	neutral	1073	1	right	right	02-20-2015	13:04:28
12008	real	51	congruent	487	1	left	left	02-20-2015	13:04:28
12008	real	52	incongruent	505	1	left	left	02-20-2015	13:04:28
12008	real	53	incongruent	584	1	right	right	02-20-2015	13:04:28
12008	real	54	incongruent	582	1	right	right	02-20-2015	13:04:28
12008	real	55	incongruent	626	1	left	left	02-20-2015	13:04:28
12008	real	56	neutral	483	1	right	right	02-20-2015	13:04:28
12008	real	57	neutral	447	1	left	left	02-20-2015	13:04:28
12008	real	58	neutral	490	1	right	right	02-20-2015	13:04:28
12008	real	59	incongruent	625	1	left	left	02-20-2015	13:04:28
12008	real	60	neutral	527	1	left	left	02-20-2015	13:04:28
12008	real	61	congruent	663	1	left	left	02-20-2015	13:04:28
12008	real	62	incongruent	587	1	right	right	02-20-2015	13:04:28
12008	real	63	congruent	715	1	left	left	02-20-2015	13:04:28
12008	real	64	neutral	470	1	right	right	02-20-2015	13:04:28
12008	real	65	congruent	418	1	left	left	02-20-2015	13:04:28
12008	real	66	incongruent	654	1	left	left	02-20-2015	13:04:28
12008	real	67	congruent	501	1	right	right	02-20-2015	13:04:28
12008	real	68	neutral	491	1	right	right	02-20-2015	13:04:28
12008	real	69	incongruent	642	1	left	left	02-20-2015	13:04:28
12008	real	70	incongruent	635	1	left	left	02-20-2015	13:04:28
12008	real	71	neutral	534	1	right	right	02-20-2015	13:04:28
12008	real	72	incongruent	560	1	left	left	02-20-2015	13:04:28
12008	real	73	incongruent	617	1	right	right	02-20-2015	13:04:28
12008	real	74	neutral	544	1	right	right	02-20-2015	13:04:28
12008	real	75	incongruent	516	1	right	right	02-20-2015	13:04:28
12008	real	76	congruent	533	1	right	right	02-20-2015	13:04:28
12008	real	77	neutral	568	1	left	left	02-20-2015	13:04:28
12008	real	78	neutral	693	1	left	left	02-20-2015	13:04:28
12008	real	79	congruent	581	1	left	left	02-20-2015	13:04:28
12008	real	80	neutral	1047	1	left	left	02-20-2015	13:04:28
12008	real	81	congruent	459	1	right	right	02-20-2015	13:04:28
12008	real	82	congruent	1177	1	left	left	02-20-2015	13:04:28
12008	real	83	incongruent	623	1	left	left	02-20-2015	13:04:28
12008	real	84	neutral	522	1	left	left	02-20-2015	13:04:28
12008	real	85	congruent	500	1	right	right	02-20-2015	13:04:28
12008	real	86	congruent	478	1	right	right	02-20-2015	13:04:28
12008	real	87	incongruent	910	1	right	right	02-20-2015	13:04:28
12008	real	88	congruent	494	1	left	left	02-20-2015	13:04:28
12008	real	89	neutral	562	1	left	left	02-20-2015	13:04:28
12008	real	90	neutral	853	1	right	right	02-20-2015	13:04:28
12008	real	91	incongruent	565	1	left	left	02-20-2015	13:04:28
12008	real	92	incongruent	597	1	left	left	02-20-2015	13:04:28
12008	real	93	congruent	725	1	right	right	02-20-2015	13:04:28
12008	real	94	incongruent	474	1	left	left	02-20-2015	13:04:28
12008	real	95	congruent	503	1	left	left	02-20-2015	13:04:28
12008	real	96	neutral	423	1	left	left	02-20-2015	13:04:28
12008	real	1	incongruent	565	1	left	left	02-20-2015	13:04:28
12008	real	2	neutral	487	1	right	right	02-20-2015	13:04:28
12008	real	3	incongruent	579	1	left	left	02-20-2015	13:04:28
12008	real	4	neutral	473	1	left	left	02-20-2015	13:04:28
12008	real	5	congruent	527	1	left	left	02-20-2015	13:04:28
12008	real	6	neutral	444	1	left	left	02-20-2015	13:04:28
12008	real	7	incongruent	623	1	right	right	02-20-2015	13:04:28
12008	real	8	congruent	542	1	right	right	02-20-2015	13:04:28
12008	real	9	neutral	1132	1	right	right	02-20-2015	13:04:28
12008	real	10	neutral	494	1	left	left	02-20-2015	13:04:28
12008	real	11	incongruent	617	1	left	left	02-20-2015	13:04:28
12008	real	12	neutral	516	1	right	right	02-20-2015	13:04:28
12008	real	13	neutral	722	1	left	left	02-20-2015	13:04:28
12008	real	14	incongruent	563	1	left	left	02-20-2015	13:04:28
12008	real	15	congruent	549	1	right	right	02-20-2015	13:04:28
12008	real	16	congruent	462	1	right	right	02-20-2015	13:04:28
12008	real	17	neutral	572	1	right	right	02-20-2015	13:04:28
12008	real	18	incongruent	769	1	left	left	02-20-2015	13:04:28
12008	real	19	incongruent	825	1	right	right	02-20-2015	13:04:28
12008	real	20	congruent	549	1	left	left	02-20-2015	13:04:28
12008	real	21	neutral	604	1	left	left	02-20-2015	13:04:28
12008	real	22	neutral	596	1	right	right	02-20-2015	13:04:28
12008	real	23	incongruent	644	1	left	left	02-20-2015	13:04:28
12008	real	24	neutral	627	1	right	right	02-20-2015	13:04:28
12008	real	25	neutral	733	1	right	right	02-20-2015	13:04:28
12008	real	26	congruent	516	1	left	left	02-20-2015	13:04:28
12008	real	27	neutral	463	1	right	right	02-20-2015	13:04:28
12008	real	28	incongruent	613	1	right	right	02-20-2015	13:04:28
12008	real	29	congruent	517	1	right	right	02-20-2015	13:04:28
12008	real	30	neutral	437	1	left	left	02-20-2015	13:04:28
12008	real	31	congruent	463	1	left	left	02-20-2015	13:04:28
12008	real	32	congruent	554	1	left	left	02-20-2015	13:04:28
12008	real	33	congruent	487	1	right	right	02-20-2015	13:04:28
12008	real	34	neutral	579	1	left	left	02-20-2015	13:04:28
12008	real	35	incongruent	594	1	right	right	02-20-2015	13:04:28
12008	real	36	congruent	461	1	left	left	02-20-2015	13:04:28
12008	real	37	incongruent	802	1	left	left	02-20-2015	13:04:28
12008	real	38	congruent	629	1	right	right	02-20-2015	13:04:28
12008	real	39	congruent	697	1	left	left	02-20-2015	13:04:28
12008	real	40	incongruent	858	1	left	left	02-20-2015	13:04:28
12008	real	41	congruent	498	1	right	right	02-20-2015	13:04:28
12008	real	42	congruent	481	1	left	left	02-20-2015	13:04:28
12008	real	43	congruent	483	1	right	right	02-20-2015	13:04:28
12008	real	44	congruent	638	1	right	right	02-20-2015	13:04:28
12008	real	45	congruent	838	1	left	left	02-20-2015	13:04:28
12008	real	46	incongruent	584	1	left	left	02-20-2015	13:04:28
12008	real	47	congruent	472	1	left	left	02-20-2015	13:04:28
12008	real	48	congruent	713	1	left	left	02-20-2015	13:04:28
12008	real	49	neutral	530	1	right	right	02-20-2015	13:04:28
12008	real	50	neutral	429	1	right	right	02-20-2015	13:04:28
12008	real	51	congruent	439	1	right	right	02-20-2015	13:04:28
12008	real	52	incongruent	524	1	left	left	02-20-2015	13:04:28
12008	real	53	incongruent	760	1	right	right	02-20-2015	13:04:28
12008	real	54	neutral	642	1	right	right	02-20-2015	13:04:28
12008	real	55	incongruent	727	1	right	right	02-20-2015	13:04:28
12008	real	56	incongruent	787	1	right	right	02-20-2015	13:04:28
12008	real	57	neutral	566	1	right	right	02-20-2015	13:04:28
12008	real	58	neutral	625	1	left	left	02-20-2015	13:04:28
12008	real	59	neutral	475	1	left	left	02-20-2015	13:04:28
12008	real	60	congruent	543	1	right	right	02-20-2015	13:04:28
12008	real	61	neutral	477	1	left	left	02-20-2015	13:04:28
12008	real	62	incongruent	614	1	left	left	02-20-2015	13:04:28
12008	real	63	neutral	726	1	right	right	02-20-2015	13:04:28
12008	real	64	incongruent	849	1	right	right	02-20-2015	13:04:28
12008	real	65	congruent	475	1	right	right	02-20-2015	13:04:28
12008	real	66	neutral	450	1	right	right	02-20-2015	13:04:28
12008	real	67	congruent	474	1	right	right	02-20-2015	13:04:28
12008	real	68	neutral	554	1	left	left	02-20-2015	13:04:28
12008	real	69	incongruent	760	1	right	right	02-20-2015	13:04:28
12008	real	70	incongruent	549	1	left	left	02-20-2015	13:04:28
12008	real	71	congruent	526	1	left	left	02-20-2015	13:04:28
12008	real	72	incongruent	661	1	right	right	02-20-2015	13:04:28
12008	real	73	congruent	681	1	left	left	02-20-2015	13:04:28
12008	real	74	incongruent	642	1	right	right	02-20-2015	13:04:28
12008	real	75	congruent	538	1	left	left	02-20-2015	13:04:28
12008	real	76	incongruent	679	1	left	left	02-20-2015	13:04:28
12008	real	77	incongruent	541	1	left	left	02-20-2015	13:04:28
12008	real	78	incongruent	682	1	right	right	02-20-2015	13:04:28
12008	real	79	neutral	491	1	right	right	02-20-2015	13:04:28
12008	real	80	neutral	485	1	left	left	02-20-2015	13:04:28
12008	real	81	incongruent	931	1	right	right	02-20-2015	13:04:28
12008	real	82	congruent	522	1	left	left	02-20-2015	13:04:28
12008	real	83	neutral	518	1	right	right	02-20-2015	13:04:28
12008	real	84	congruent	615	1	right	right	02-20-2015	13:04:28
12008	real	85	incongruent	580	1	right	right	02-20-2015	13:04:28
12008	real	86	incongruent	522	1	right	right	02-20-2015	13:04:28
12008	real	87	incongruent	561	1	left	left	02-20-2015	13:04:28
12008	real	88	congruent	510	1	right	right	02-20-2015	13:04:28
12008	real	89	incongruent	522	1	right	right	02-20-2015	13:04:28
12008	real	90	congruent	577	1	left	left	02-20-2015	13:04:28
12008	real	91	neutral	527	1	left	left	02-20-2015	13:04:28
12008	real	92	neutral	424	1	left	left	02-20-2015	13:04:28
12008	real	93	congruent	499	1	right	right	02-20-2015	13:04:28
12008	real	94	neutral	506	1	left	left	02-20-2015	13:04:28
12008	real	95	incongruent	965	1	left	left	02-20-2015	13:04:28
12008	real	96	neutral	471	1	left	left	02-20-2015	13:04:28
12012	practice	1	congruent	711	1	right	right	02-20-2015	15:33:09
12012	practice	2	congruent	461	1	left	left	02-20-2015	15:33:09
12012	practice	3	neutral	465	1	right	right	02-20-2015	15:33:09
12012	practice	4	incongruent	620	1	right	right	02-20-2015	15:33:09
12012	practice	5	neutral	458	1	left	left	02-20-2015	15:33:09
12012	practice	6	incongruent	596	1	left	left	02-20-2015	15:33:09
12012	real	1	incongruent	752	1	right	right	02-20-2015	15:33:09
12012	real	2	congruent	575	1	right	right	02-20-2015	15:33:09
12012	real	3	incongruent	968	1	right	right	02-20-2015	15:33:09
12012	real	4	neutral	497	1	right	right	02-20-2015	15:33:09
12012	real	5	incongruent	672	1	right	right	02-20-2015	15:33:09
12012	real	6	congruent	496	1	right	right	02-20-2015	15:33:09
12012	real	7	incongruent	520	1	left	left	02-20-2015	15:33:09
12012	real	8	neutral	471	1	left	left	02-20-2015	15:33:09
12012	real	9	congruent	856	1	right	right	02-20-2015	15:33:09
12012	real	10	congruent	418	1	left	left	02-20-2015	15:33:09
12012	real	11	incongruent	522	1	right	right	02-20-2015	15:33:09
12012	real	12	incongruent	504	1	left	left	02-20-2015	15:33:09
12012	real	13	congruent	569	1	right	right	02-20-2015	15:33:09
12012	real	14	neutral	510	1	left	left	02-20-2015	15:33:09
12012	real	15	congruent	424	1	left	left	02-20-2015	15:33:09
12012	real	16	incongruent	577	1	right	right	02-20-2015	15:33:09
12012	real	17	congruent	450	1	left	left	02-20-2015	15:33:09
12012	real	18	incongruent	524	1	right	right	02-20-2015	15:33:09
12012	real	19	neutral	431	1	right	right	02-20-2015	15:33:09
12012	real	20	neutral	439	1	left	left	02-20-2015	15:33:09
12012	real	21	neutral	502	1	right	right	02-20-2015	15:33:09
12012	real	22	incongruent	630	1	left	left	02-20-2015	15:33:09
12012	real	23	congruent	0	0		left	02-20-2015	15:33:09
12012	real	24	incongruent	931	1	left	left	02-20-2015	15:33:09
12012	real	25	neutral	503	1	right	right	02-20-2015	15:33:09
12012	real	26	incongruent	546	1	right	right	02-20-2015	15:33:09
12012	real	27	incongruent	500	1	right	right	02-20-2015	15:33:09
12012	real	28	neutral	416	1	right	right	02-20-2015	15:33:09
12012	real	29	congruent	415	1	left	left	02-20-2015	15:33:09
12012	real	30	incongruent	469	1	left	left	02-20-2015	15:33:09
12012	real	31	neutral	391	1	right	right	02-20-2015	15:33:09
12012	real	32	neutral	418	1	left	left	02-20-2015	15:33:09
12012	real	33	neutral	438	1	right	right	02-20-2015	15:33:09
12012	real	34	congruent	495	1	left	left	02-20-2015	15:33:09
12012	real	35	incongruent	615	1	left	left	02-20-2015	15:33:09
12012	real	36	congruent	527	1	left	left	02-20-2015	15:33:09
12012	real	37	neutral	495	1	left	left	02-20-2015	15:33:09
12012	real	38	incongruent	571	1	left	left	02-20-2015	15:33:09
12012	real	39	neutral	451	1	right	right	02-20-2015	15:33:09
12012	real	40	incongruent	782	1	left	left	02-20-2015	15:33:09
12012	real	41	neutral	391	1	right	right	02-20-2015	15:33:09
12012	real	42	congruent	697	1	right	right	02-20-2015	15:33:09
12012	real	43	congruent	362	1	left	left	02-20-2015	15:33:09
12012	real	44	congruent	434	1	right	right	02-20-2015	15:33:09
12012	real	45	congruent	495	1	right	right	02-20-2015	15:33:09
12012	real	46	neutral	461	1	left	left	02-20-2015	15:33:09
12012	real	47	incongruent	518	1	right	right	02-20-2015	15:33:09
12012	real	48	congruent	507	1	right	right	02-20-2015	15:33:09
12012	real	49	neutral	518	1	right	right	02-20-2015	15:33:09
12012	real	50	incongruent	489	0	left	right	02-20-2015	15:33:09
12012	real	51	incongruent	498	1	left	left	02-20-2015	15:33:09
12012	real	52	congruent	473	1	right	right	02-20-2015	15:33:09
12012	real	53	incongruent	525	1	right	right	02-20-2015	15:33:09
12012	real	54	congruent	478	1	left	left	02-20-2015	15:33:09
12012	real	55	neutral	504	1	left	left	02-20-2015	15:33:09
12012	real	56	neutral	489	1	left	left	02-20-2015	15:33:09
12012	real	57	congruent	440	1	right	right	02-20-2015	15:33:09
12012	real	58	neutral	453	1	left	left	02-20-2015	15:33:09
12012	real	59	neutral	462	1	left	left	02-20-2015	15:33:09
12012	real	60	congruent	444	1	left	left	02-20-2015	15:33:09
12012	real	61	congruent	482	1	left	left	02-20-2015	15:33:09
12012	real	62	congruent	469	1	right	right	02-20-2015	15:33:09
12012	real	63	neutral	404	1	right	right	02-20-2015	15:33:09
12012	real	64	incongruent	543	1	left	left	02-20-2015	15:33:09
12012	real	65	neutral	480	1	left	left	02-20-2015	15:33:09
12012	real	66	incongruent	437	0	right	left	02-20-2015	15:33:09
12012	real	67	congruent	465	1	right	right	02-20-2015	15:33:09
12012	real	68	incongruent	517	1	right	right	02-20-2015	15:33:09
12012	real	69	congruent	515	1	right	right	02-20-2015	15:33:09
12012	real	70	congruent	500	1	right	right	02-20-2015	15:33:09
12012	real	71	neutral	645	1	left	left	02-20-2015	15:33:09
12012	real	72	congruent	435	1	left	left	02-20-2015	15:33:09
12012	real	73	neutral	446	1	right	right	02-20-2015	15:33:09
12012	real	74	congruent	392	1	left	left	02-20-2015	15:33:09
12012	real	75	incongruent	483	1	right	right	02-20-2015	15:33:09
12012	real	76	incongruent	528	1	left	left	02-20-2015	15:33:09
12012	real	77	neutral	516	1	left	left	02-20-2015	15:33:09
12012	real	78	incongruent	676	1	left	left	02-20-2015	15:33:09
12012	real	79	congruent	430	1	left	left	02-20-2015	15:33:09
12012	real	80	incongruent	352	1	left	left	02-20-2015	15:33:09
12012	real	81	incongruent	547	1	left	left	02-20-2015	15:33:09
12012	real	82	neutral	359	1	left	left	02-20-2015	15:33:09
12012	real	83	incongruent	328	0	left	right	02-20-2015	15:33:09
12012	real	84	neutral	527	1	right	right	02-20-2015	15:33:09
12012	real	85	neutral	456	1	right	right	02-20-2015	15:33:09
12012	real	86	neutral	589	1	left	left	02-20-2015	15:33:09
12012	real	87	congruent	624	1	left	left	02-20-2015	15:33:09
12012	real	88	incongruent	578	1	right	right	02-20-2015	15:33:09
12012	real	89	incongruent	637	1	left	left	02-20-2015	15:33:09
12012	real	90	congruent	459	1	left	left	02-20-2015	15:33:09
12012	real	91	congruent	628	1	right	right	02-20-2015	15:33:09
12012	real	92	neutral	434	1	right	right	02-20-2015	15:33:09
12012	real	93	incongruent	547	1	right	right	02-20-2015	15:33:09
12012	real	94	congruent	1383	1	right	right	02-20-2015	15:33:09
12012	real	95	neutral	473	1	left	left	02-20-2015	15:33:09
12012	real	96	neutral	499	1	right	right	02-20-2015	15:33:09
12012	real	1	congruent	547	1	left	left	02-20-2015	15:33:09
12012	real	2	incongruent	535	1	right	right	02-20-2015	15:33:09
12012	real	3	neutral	500	1	left	left	02-20-2015	15:33:09
12012	real	4	incongruent	400	0	right	left	02-20-2015	15:33:09
12012	real	5	congruent	462	1	left	left	02-20-2015	15:33:09
12012	real	6	neutral	1044	1	right	right	02-20-2015	15:33:09
12012	real	7	incongruent	501	1	left	left	02-20-2015	15:33:09
12012	real	8	incongruent	540	1	right	right	02-20-2015	15:33:09
12012	real	9	neutral	443	1	right	right	02-20-2015	15:33:09
12012	real	10	neutral	621	1	right	right	02-20-2015	15:33:09
12012	real	11	congruent	555	1	right	right	02-20-2015	15:33:09
12012	real	12	incongruent	590	1	left	left	02-20-2015	15:33:09
12012	real	13	neutral	423	1	right	right	02-20-2015	15:33:09
12012	real	14	incongruent	558	1	left	left	02-20-2015	15:33:09
12012	real	15	congruent	523	1	right	right	02-20-2015	15:33:09
12012	real	16	incongruent	573	1	left	left	02-20-2015	15:33:09
12012	real	17	neutral	484	1	right	right	02-20-2015	15:33:09
12012	real	18	neutral	460	1	right	right	02-20-2015	15:33:09
12012	real	19	congruent	446	1	left	left	02-20-2015	15:33:09
12012	real	20	congruent	377	1	right	right	02-20-2015	15:33:09
12012	real	21	neutral	568	1	right	right	02-20-2015	15:33:09
12012	real	22	congruent	538	1	left	left	02-20-2015	15:33:09
12012	real	23	neutral	406	1	left	left	02-20-2015	15:33:09
12012	real	24	incongruent	559	1	right	right	02-20-2015	15:33:09
12012	real	25	neutral	453	1	left	left	02-20-2015	15:33:09
12012	real	26	incongruent	502	0	right	left	02-20-2015	15:33:09
12012	real	27	congruent	519	1	right	right	02-20-2015	15:33:09
12012	real	28	incongruent	688	1	left	left	02-20-2015	15:33:09
12012	real	29	congruent	451	1	right	right	02-20-2015	15:33:09
12012	real	30	neutral	932	1	left	left	02-20-2015	15:33:09
12012	real	31	congruent	479	1	left	left	02-20-2015	15:33:09
12012	real	32	incongruent	1242	1	right	right	02-20-2015	15:33:09
12012	real	33	neutral	523	1	right	right	02-20-2015	15:33:09
12012	real	34	neutral	449	1	right	right	02-20-2015	15:33:09
12012	real	35	incongruent	470	1	left	left	02-20-2015	15:33:09
12012	real	36	incongruent	514	1	right	right	02-20-2015	15:33:09
12012	real	37	congruent	457	1	right	right	02-20-2015	15:33:09
12012	real	38	neutral	398	1	right	right	02-20-2015	15:33:09
12012	real	39	incongruent	539	1	left	left	02-20-2015	15:33:09
12012	real	40	congruent	589	1	left	left	02-20-2015	15:33:09
12012	real	41	neutral	379	1	left	left	02-20-2015	15:33:09
12012	real	42	congruent	360	1	left	left	02-20-2015	15:33:09
12012	real	43	incongruent	442	0	left	right	02-20-2015	15:33:09
12012	real	44	neutral	424	1	right	right	02-20-2015	15:33:09
12012	real	45	congruent	769	1	right	right	02-20-2015	15:33:09
12012	real	46	incongruent	606	1	left	left	02-20-2015	15:33:09
12012	real	47	congruent	492	1	left	left	02-20-2015	15:33:09
12012	real	48	incongruent	571	1	left	left	02-20-2015	15:33:09
12012	real	49	neutral	458	1	right	right	02-20-2015	15:33:09
12012	real	50	incongruent	541	1	right	right	02-20-2015	15:33:09
12012	real	51	neutral	428	1	left	left	02-20-2015	15:33:09
12012	real	52	incongruent	514	1	left	left	02-20-2015	15:33:09
12012	real	53	incongruent	511	1	right	right	02-20-2015	15:33:09
12012	real	54	incongruent	611	1	right	right	02-20-2015	15:33:09
12012	real	55	congruent	423	1	right	right	02-20-2015	15:33:09
12012	real	56	neutral	476	1	left	left	02-20-2015	15:33:09
12012	real	57	incongruent	544	1	left	left	02-20-2015	15:33:09
12012	real	58	congruent	385	1	right	right	02-20-2015	15:33:09
12012	real	59	neutral	404	1	right	right	02-20-2015	15:33:09
12012	real	60	incongruent	649	1	right	right	02-20-2015	15:33:09
12012	real	61	congruent	453	1	left	left	02-20-2015	15:33:09
12012	real	62	congruent	468	1	left	left	02-20-2015	15:33:09
12012	real	63	congruent	876	1	left	left	02-20-2015	15:33:09
12012	real	64	congruent	453	1	right	right	02-20-2015	15:33:09
12012	real	65	neutral	360	1	left	left	02-20-2015	15:33:09
12012	real	66	neutral	642	1	left	left	02-20-2015	15:33:09
12012	real	67	neutral	818	1	left	left	02-20-2015	15:33:09
12012	real	68	neutral	904	1	right	right	02-20-2015	15:33:09
12012	real	69	neutral	387	1	right	right	02-20-2015	15:33:09
12012	real	70	congruent	434	1	left	left	02-20-2015	15:33:09
12012	real	71	incongruent	439	1	right	right	02-20-2015	15:33:09
12012	real	72	congruent	385	1	left	left	02-20-2015	15:33:09
12012	real	73	neutral	557	1	left	left	02-20-2015	15:33:09
12012	real	74	congruent	383	1	right	right	02-20-2015	15:33:09
12012	real	75	congruent	524	1	right	right	02-20-2015	15:33:09
12012	real	76	congruent	430	1	right	right	02-20-2015	15:33:09
12012	real	77	congruent	790	1	left	left	02-20-2015	15:33:09
12012	real	78	congruent	351	1	right	right	02-20-2015	15:33:09
12012	real	79	congruent	564	1	left	left	02-20-2015	15:33:09
12012	real	80	incongruent	1104	1	right	right	02-20-2015	15:33:09
12012	real	81	neutral	514	1	left	left	02-20-2015	15:33:09
12012	real	82	incongruent	868	1	right	right	02-20-2015	15:33:09
12012	real	83	congruent	495	1	right	right	02-20-2015	15:33:09
12012	real	84	neutral	434	1	left	left	02-20-2015	15:33:09
12012	real	85	neutral	593	1	left	left	02-20-2015	15:33:09
12012	real	86	neutral	446	1	left	left	02-20-2015	15:33:09
12012	real	87	incongruent	532	1	right	right	02-20-2015	15:33:09
12012	real	88	congruent	521	1	right	right	02-20-2015	15:33:09
12012	real	89	incongruent	462	0	left	right	02-20-2015	15:33:09
12012	real	90	neutral	494	1	left	left	02-20-2015	15:33:09
12012	real	91	incongruent	1261	1	left	left	02-20-2015	15:33:09
12012	real	92	congruent	456	1	left	left	02-20-2015	15:33:09
12012	real	93	incongruent	0	0		left	02-20-2015	15:33:09
12012	real	94	neutral	462	1	right	right	02-20-2015	15:33:09
12012	real	95	incongruent	593	1	right	right	02-20-2015	15:33:09
12012	real	96	incongruent	518	1	left	left	02-20-2015	15:33:09
12012	real	1	congruent	882	1	left	left	02-20-2015	15:33:09
12012	real	2	neutral	437	1	right	right	02-20-2015	15:33:09
12012	real	3	incongruent	587	1	right	right	02-20-2015	15:33:09
12012	real	4	neutral	468	1	left	left	02-20-2015	15:33:09
12012	real	5	congruent	554	1	left	left	02-20-2015	15:33:09
12012	real	6	congruent	431	1	right	right	02-20-2015	15:33:09
12012	real	7	congruent	532	1	left	left	02-20-2015	15:33:09
12012	real	8	congruent	476	1	left	left	02-20-2015	15:33:09
12012	real	9	congruent	529	1	left	left	02-20-2015	15:33:09
12012	real	10	incongruent	503	1	right	right	02-20-2015	15:33:09
12012	real	11	incongruent	570	1	left	left	02-20-2015	15:33:09
12012	real	12	neutral	460	1	right	right	02-20-2015	15:33:09
12012	real	13	incongruent	582	0	right	left	02-20-2015	15:33:09
12012	real	14	neutral	500	1	right	right	02-20-2015	15:33:09
12012	real	15	congruent	519	1	right	right	02-20-2015	15:33:09
12012	real	16	neutral	677	1	left	left	02-20-2015	15:33:09
12012	real	17	neutral	426	1	right	right	02-20-2015	15:33:09
12012	real	18	neutral	618	1	left	left	02-20-2015	15:33:09
12012	real	19	congruent	387	1	right	right	02-20-2015	15:33:09
12012	real	20	neutral	395	1	left	left	02-20-2015	15:33:09
12012	real	21	neutral	493	1	left	left	02-20-2015	15:33:09
12012	real	22	congruent	454	1	left	left	02-20-2015	15:33:09
12012	real	23	congruent	487	1	right	right	02-20-2015	15:33:09
12012	real	24	incongruent	673	1	right	right	02-20-2015	15:33:09
12012	real	25	incongruent	502	1	left	left	02-20-2015	15:33:09
12012	real	26	incongruent	1154	1	right	right	02-20-2015	15:33:09
12012	real	27	neutral	510	1	right	right	02-20-2015	15:33:09
12012	real	28	neutral	477	1	left	left	02-20-2015	15:33:09
12012	real	29	incongruent	495	1	left	left	02-20-2015	15:33:09
12012	real	30	congruent	394	1	right	right	02-20-2015	15:33:09
12012	real	31	congruent	468	1	right	right	02-20-2015	15:33:09
12012	real	32	neutral	442	1	right	right	02-20-2015	15:33:09
12012	real	33	neutral	329	1	left	left	02-20-2015	15:33:09
12012	real	34	congruent	356	1	right	right	02-20-2015	15:33:09
12012	real	35	incongruent	709	1	left	left	02-20-2015	15:33:09
12012	real	36	congruent	478	1	left	left	02-20-2015	15:33:09
12012	real	37	incongruent	301	0	right	left	02-20-2015	15:33:09
12012	real	38	congruent	421	1	left	left	02-20-2015	15:33:09
12012	real	39	neutral	580	1	right	right	02-20-2015	15:33:09
12012	real	40	incongruent	545	1	right	right	02-20-2015	15:33:09
12012	real	41	neutral	468	1	left	left	02-20-2015	15:33:09
12012	real	42	incongruent	533	1	left	left	02-20-2015	15:33:09
12012	real	43	congruent	505	1	right	right	02-20-2015	15:33:09
12012	real	44	congruent	464	1	right	right	02-20-2015	15:33:09
12012	real	45	neutral	493	1	right	right	02-20-2015	15:33:09
12012	real	46	incongruent	464	1	left	left	02-20-2015	15:33:09
12012	real	47	congruent	381	1	left	left	02-20-2015	15:33:09
12012	real	48	incongruent	729	1	left	left	02-20-2015	15:33:09
12012	real	49	incongruent	432	0	right	left	02-20-2015	15:33:09
12012	real	50	neutral	443	1	right	right	02-20-2015	15:33:09
12012	real	51	incongruent	532	1	left	left	02-20-2015	15:33:09
12012	real	52	incongruent	513	1	right	right	02-20-2015	15:33:09
12012	real	53	congruent	416	1	right	right	02-20-2015	15:33:09
12012	real	54	neutral	369	1	left	left	02-20-2015	15:33:09
12012	real	55	incongruent	441	1	right	right	02-20-2015	15:33:09
12012	real	56	congruent	418	1	right	right	02-20-2015	15:33:09
12012	real	57	congruent	413	1	left	left	02-20-2015	15:33:09
12012	real	58	neutral	412	1	right	right	02-20-2015	15:33:09
12012	real	59	neutral	428	1	left	left	02-20-2015	15:33:09
12012	real	60	incongruent	368	0	right	left	02-20-2015	15:33:09
12012	real	61	neutral	446	1	left	left	02-20-2015	15:33:09
12012	real	62	congruent	407	1	right	right	02-20-2015	15:33:09
12012	real	63	neutral	505	1	right	right	02-20-2015	15:33:09
12012	real	64	incongruent	632	1	right	right	02-20-2015	15:33:09
12012	real	65	congruent	637	1	left	left	02-20-2015	15:33:09
12012	real	66	incongruent	459	1	right	right	02-20-2015	15:33:09
12012	real	67	neutral	421	1	left	left	02-20-2015	15:33:09
12012	real	68	neutral	524	1	left	left	02-20-2015	15:33:09
12012	real	69	neutral	431	1	right	right	02-20-2015	15:33:09
12012	real	70	neutral	425	1	left	left	02-20-2015	15:33:09
12012	real	71	incongruent	511	1	right	right	02-20-2015	15:33:09
12012	real	72	incongruent	510	1	right	right	02-20-2015	15:33:09
12012	real	73	incongruent	436	0	left	right	02-20-2015	15:33:09
12012	real	74	incongruent	421	1	right	right	02-20-2015	15:33:09
12012	real	75	congruent	494	1	left	left	02-20-2015	15:33:09
12012	real	76	neutral	369	1	right	right	02-20-2015	15:33:09
12012	real	77	neutral	480	1	right	right	02-20-2015	15:33:09
12012	real	78	congruent	546	1	left	left	02-20-2015	15:33:09
12012	real	79	congruent	426	1	right	right	02-20-2015	15:33:09
12012	real	80	congruent	453	1	right	right	02-20-2015	15:33:09
12012	real	81	incongruent	551	1	left	left	02-20-2015	15:33:09
12012	real	82	incongruent	546	1	left	left	02-20-2015	15:33:09
12012	real	83	incongruent	504	1	right	right	02-20-2015	15:33:09
12012	real	84	incongruent	662	1	right	right	02-20-2015	15:33:09
12012	real	85	congruent	417	1	right	right	02-20-2015	15:33:09
12012	real	86	incongruent	550	1	right	right	02-20-2015	15:33:09
12012	real	87	incongruent	509	1	left	left	02-20-2015	15:33:09
12012	real	88	neutral	392	1	right	right	02-20-2015	15:33:09
12012	real	89	incongruent	395	0	right	left	02-20-2015	15:33:09
12012	real	90	congruent	393	1	left	left	02-20-2015	15:33:09
12012	real	91	neutral	391	1	right	right	02-20-2015	15:33:09
12012	real	92	congruent	503	1	left	left	02-20-2015	15:33:09
12012	real	93	neutral	522	1	left	left	02-20-2015	15:33:09
12012	real	94	congruent	526	1	left	left	02-20-2015	15:33:09
12012	real	95	congruent	456	1	right	right	02-20-2015	15:33:09
12012	real	96	neutral	458	1	left	left	02-20-2015	15:33:09
12013	practice	1	incongruent	597	1	left	left	02-20-2015	16:46:04
12013	practice	2	congruent	567	1	right	right	02-20-2015	16:46:04
12013	practice	3	congruent	480	1	left	left	02-20-2015	16:46:04
12013	practice	4	incongruent	581	1	right	right	02-20-2015	16:46:04
12013	practice	5	neutral	396	1	left	left	02-20-2015	16:46:04
12013	practice	6	neutral	499	1	right	right	02-20-2015	16:46:04
12013	real	1	congruent	521	1	right	right	02-20-2015	16:46:04
12013	real	2	congruent	512	1	right	right	02-20-2015	16:46:04
12013	real	3	neutral	371	1	right	right	02-20-2015	16:46:04
12013	real	4	incongruent	466	1	right	right	02-20-2015	16:46:04
12013	real	5	incongruent	362	1	left	left	02-20-2015	16:46:04
12013	real	6	congruent	519	1	left	left	02-20-2015	16:46:04
12013	real	7	congruent	445	1	left	left	02-20-2015	16:46:04
12013	real	8	congruent	551	1	right	right	02-20-2015	16:46:04
12013	real	9	neutral	456	1	left	left	02-20-2015	16:46:04
12013	real	10	congruent	496	1	right	right	02-20-2015	16:46:04
12013	real	11	congruent	449	1	right	right	02-20-2015	16:46:04
12013	real	12	neutral	453	1	right	right	02-20-2015	16:46:04
12013	real	13	neutral	468	1	left	left	02-20-2015	16:46:04
12013	real	14	neutral	405	1	left	left	02-20-2015	16:46:04
12013	real	15	neutral	465	1	right	right	02-20-2015	16:46:04
12013	real	16	neutral	522	1	right	right	02-20-2015	16:46:04
12013	real	17	incongruent	524	1	right	right	02-20-2015	16:46:04
12013	real	18	congruent	587	1	left	left	02-20-2015	16:46:04
12013	real	19	neutral	456	1	right	right	02-20-2015	16:46:04
12013	real	20	congruent	503	1	left	left	02-20-2015	16:46:04
12013	real	21	neutral	547	1	left	left	02-20-2015	16:46:04
12013	real	22	congruent	414	1	right	right	02-20-2015	16:46:04
12013	real	23	congruent	1172	1	left	left	02-20-2015	16:46:04
12013	real	24	neutral	486	1	right	right	02-20-2015	16:46:04
12013	real	25	neutral	461	1	right	right	02-20-2015	16:46:04
12013	real	26	incongruent	510	1	left	left	02-20-2015	16:46:04
12013	real	27	neutral	451	1	left	left	02-20-2015	16:46:04
12013	real	28	incongruent	582	1	right	right	02-20-2015	16:46:04
12013	real	29	neutral	436	1	right	right	02-20-2015	16:46:04
12013	real	30	congruent	483	1	left	left	02-20-2015	16:46:04
12013	real	31	congruent	511	1	right	right	02-20-2015	16:46:04
12013	real	32	congruent	441	1	left	left	02-20-2015	16:46:04
12013	real	33	incongruent	524	1	left	left	02-20-2015	16:46:04
12013	real	34	congruent	498	1	left	left	02-20-2015	16:46:04
12013	real	35	neutral	572	1	right	right	02-20-2015	16:46:04
12013	real	36	congruent	446	1	right	right	02-20-2015	16:46:04
12013	real	37	congruent	425	1	right	right	02-20-2015	16:46:04
12013	real	38	neutral	552	1	right	right	02-20-2015	16:46:04
12013	real	39	congruent	480	1	right	right	02-20-2015	16:46:04
12013	real	40	congruent	434	1	right	right	02-20-2015	16:46:04
12013	real	41	incongruent	339	0	right	left	02-20-2015	16:46:04
12013	real	42	neutral	527	1	left	left	02-20-2015	16:46:04
12013	real	43	neutral	455	1	right	right	02-20-2015	16:46:04
12013	real	44	congruent	515	1	right	right	02-20-2015	16:46:04
12013	real	45	incongruent	489	1	left	left	02-20-2015	16:46:04
12013	real	46	congruent	480	1	right	right	02-20-2015	16:46:04
12013	real	47	incongruent	516	1	left	left	02-20-2015	16:46:04
12013	real	48	neutral	461	1	left	left	02-20-2015	16:46:04
12013	real	49	incongruent	810	1	right	right	02-20-2015	16:46:04
12013	real	50	congruent	507	1	right	right	02-20-2015	16:46:04
12013	real	51	congruent	393	1	right	right	02-20-2015	16:46:04
12013	real	52	incongruent	316	0	right	left	02-20-2015	16:46:04
12013	real	53	neutral	764	1	right	right	02-20-2015	16:46:04
12013	real	54	neutral	463	1	left	left	02-20-2015	16:46:04
12013	real	55	incongruent	893	1	left	left	02-20-2015	16:46:04
12013	real	56	neutral	605	1	right	right	02-20-2015	16:46:04
12013	real	57	incongruent	608	1	left	left	02-20-2015	16:46:04
12013	real	58	neutral	478	1	right	right	02-20-2015	16:46:04
12013	real	59	incongruent	526	1	right	right	02-20-2015	16:46:04
12013	real	60	neutral	546	1	left	left	02-20-2015	16:46:04
12013	real	61	incongruent	506	1	right	right	02-20-2015	16:46:04
12013	real	62	incongruent	392	1	left	left	02-20-2015	16:46:04
12013	real	63	neutral	604	1	left	left	02-20-2015	16:46:04
12013	real	64	incongruent	631	1	right	right	02-20-2015	16:46:04
12013	real	65	congruent	509	1	left	left	02-20-2015	16:46:04
12013	real	66	incongruent	592	1	left	left	02-20-2015	16:46:04
12013	real	67	incongruent	651	1	right	right	02-20-2015	16:46:04
12013	real	68	incongruent	622	1	left	left	02-20-2015	16:46:04
12013	real	69	neutral	465	1	left	left	02-20-2015	16:46:04
12013	real	70	incongruent	519	1	right	right	02-20-2015	16:46:04
12013	real	71	congruent	563	1	left	left	02-20-2015	16:46:04
12013	real	72	neutral	679	1	left	left	02-20-2015	16:46:04
12013	real	73	incongruent	539	1	right	right	02-20-2015	16:46:04
12013	real	74	incongruent	931	1	left	left	02-20-2015	16:46:04
12013	real	75	incongruent	477	1	right	right	02-20-2015	16:46:04
12013	real	76	congruent	524	1	left	left	02-20-2015	16:46:04
12013	real	77	congruent	643	1	left	left	02-20-2015	16:46:04
12013	real	78	incongruent	483	1	right	right	02-20-2015	16:46:04
12013	real	79	congruent	581	1	left	left	02-20-2015	16:46:04
12013	real	80	incongruent	602	1	left	left	02-20-2015	16:46:04
12013	real	81	congruent	474	1	left	left	02-20-2015	16:46:04
12013	real	82	neutral	458	1	left	left	02-20-2015	16:46:04
12013	real	83	congruent	515	1	left	left	02-20-2015	16:46:04
12013	real	84	incongruent	542	1	right	right	02-20-2015	16:46:04
12013	real	85	congruent	652	1	left	left	02-20-2015	16:46:04
12013	real	86	incongruent	527	1	right	right	02-20-2015	16:46:04
12013	real	87	neutral	510	1	left	left	02-20-2015	16:46:04
12013	real	88	incongruent	578	1	right	right	02-20-2015	16:46:04
12013	real	89	congruent	479	1	right	right	02-20-2015	16:46:04
12013	real	90	neutral	536	1	left	left	02-20-2015	16:46:04
12013	real	91	neutral	463	1	right	right	02-20-2015	16:46:04
12013	real	92	neutral	479	1	right	right	02-20-2015	16:46:04
12013	real	93	neutral	465	1	left	left	02-20-2015	16:46:04
12013	real	94	incongruent	802	1	left	left	02-20-2015	16:46:04
12013	real	95	incongruent	483	1	right	right	02-20-2015	16:46:04
12013	real	96	incongruent	545	1	left	left	02-20-2015	16:46:04
12013	real	1	incongruent	559	1	left	left	02-20-2015	16:46:04
12013	real	2	congruent	510	1	left	left	02-20-2015	16:46:04
12013	real	3	incongruent	581	1	right	right	02-20-2015	16:46:04
12013	real	4	neutral	431	1	right	right	02-20-2015	16:46:04
12013	real	5	neutral	592	1	left	left	02-20-2015	16:46:04
12013	real	6	congruent	442	1	right	right	02-20-2015	16:46:04
12013	real	7	congruent	455	1	right	right	02-20-2015	16:46:04
12013	real	8	neutral	367	1	right	right	02-20-2015	16:46:04
12013	real	9	congruent	537	1	left	left	02-20-2015	16:46:04
12013	real	10	incongruent	512	1	right	right	02-20-2015	16:46:04
12013	real	11	neutral	392	1	right	right	02-20-2015	16:46:04
12013	real	12	congruent	510	1	left	left	02-20-2015	16:46:04
12013	real	13	neutral	445	1	right	right	02-20-2015	16:46:04
12013	real	14	neutral	462	1	right	right	02-20-2015	16:46:04
12013	real	15	congruent	563	1	left	left	02-20-2015	16:46:04
12013	real	16	incongruent	613	1	left	left	02-20-2015	16:46:04
12013	real	17	incongruent	619	1	right	right	02-20-2015	16:46:04
12013	real	18	neutral	469	1	left	left	02-20-2015	16:46:04
12013	real	19	incongruent	540	1	left	left	02-20-2015	16:46:04
12013	real	20	congruent	460	1	left	left	02-20-2015	16:46:04
12013	real	21	neutral	477	1	left	left	02-20-2015	16:46:04
12013	real	22	congruent	371	1	left	left	02-20-2015	16:46:04
12013	real	23	neutral	642	1	right	right	02-20-2015	16:46:04
12013	real	24	incongruent	570	1	right	right	02-20-2015	16:46:04
12013	real	25	neutral	561	1	left	left	02-20-2015	16:46:04
12013	real	26	incongruent	654	1	right	right	02-20-2015	16:46:04
12013	real	27	incongruent	489	1	left	left	02-20-2015	16:46:04
12013	real	28	congruent	611	1	left	left	02-20-2015	16:46:04
12013	real	29	incongruent	567	1	left	left	02-20-2015	16:46:04
12013	real	30	neutral	610	1	left	left	02-20-2015	16:46:04
12013	real	31	incongruent	706	1	right	right	02-20-2015	16:46:04
12013	real	32	congruent	556	1	right	right	02-20-2015	16:46:04
12013	real	33	congruent	592	1	right	right	02-20-2015	16:46:04
12013	real	34	neutral	518	1	right	right	02-20-2015	16:46:04
12013	real	35	congruent	616	1	left	left	02-20-2015	16:46:04
12013	real	36	incongruent	570	1	left	left	02-20-2015	16:46:04
12013	real	37	incongruent	516	1	left	left	02-20-2015	16:46:04
12013	real	38	neutral	610	1	right	right	02-20-2015	16:46:04
12013	real	39	neutral	514	1	left	left	02-20-2015	16:46:04
12013	real	40	congruent	557	1	right	right	02-20-2015	16:46:04
12013	real	41	neutral	515	1	left	left	02-20-2015	16:46:04
12013	real	42	neutral	632	1	right	right	02-20-2015	16:46:04
12013	real	43	incongruent	708	1	right	right	02-20-2015	16:46:04
12013	real	44	neutral	400	1	right	right	02-20-2015	16:46:04
12013	real	45	neutral	1043	1	left	left	02-20-2015	16:46:04
12013	real	46	neutral	468	1	left	left	02-20-2015	16:46:04
12013	real	47	neutral	784	1	right	right	02-20-2015	16:46:04
12013	real	48	incongruent	723	1	right	right	02-20-2015	16:46:04
12013	real	49	congruent	650	1	left	left	02-20-2015	16:46:04
12013	real	50	neutral	776	1	left	left	02-20-2015	16:46:04
12013	real	51	congruent	487	1	right	right	02-20-2015	16:46:04
12013	real	52	congruent	499	1	right	right	02-20-2015	16:46:04
12013	real	53	incongruent	638	1	left	left	02-20-2015	16:46:04
12013	real	54	congruent	449	1	right	right	02-20-2015	16:46:04
12013	real	55	congruent	469	1	left	left	02-20-2015	16:46:04
12013	real	56	incongruent	550	1	right	right	02-20-2015	16:46:04
12013	real	57	neutral	456	1	right	right	02-20-2015	16:46:04
12013	real	58	congruent	434	1	right	right	02-20-2015	16:46:04
12013	real	59	incongruent	607	1	left	left	02-20-2015	16:46:04
12013	real	60	neutral	476	1	left	left	02-20-2015	16:46:04
12013	real	61	congruent	469	1	right	right	02-20-2015	16:46:04
12013	real	62	congruent	559	1	left	left	02-20-2015	16:46:04
12013	real	63	neutral	922	1	right	right	02-20-2015	16:46:04
12013	real	64	incongruent	578	1	right	right	02-20-2015	16:46:04
12013	real	65	neutral	527	1	left	left	02-20-2015	16:46:04
12013	real	66	incongruent	641	1	left	left	02-20-2015	16:46:04
