ExperimentName	Subject	Session	Clock.Information	DataFile.Basename	Display.RefreshRate	ExperimentVersion	Group	RandomSeed	RuntimeCapabilities	RuntimeVersion	RuntimeVersionExpected	SessionDate	SessionStartDateTimeUtc	SessionTime	StudioVersion	Block	BlockList	BlockList.Cycle	BlockList.Sample	Both	CompletelyMW	CongMeanRT	CongTotal	Fragmented	GoodByeList	GoodByeList.Cycle	GoodByeList.Sample	IncongMeanRT	IncongTotal	MapBlockList	MapBlockList.Cycle	MapBlockList.Sample	Mindwandering	MostlyMW	MostlyOT	NeutralMeanRT	NeutralTotal	NumberProbes1	NumberProbes2	OnTask	PracBlockList	PracBlockList.Cycle	PracBlockList.Sample	Procedure[Block]	Running[Block]	Sequential	Trial	CorrectAnswer	CuePositionY	CuePositionY2	DurationOfFixation	FlankerType	MapTrialList	MapTrialList.Cycle	MapTrialList.Sample	PracSlideFixationStart.DurationError	PracSlideFixationStart.OnsetDelay	PracSlideFixationStart.OnsetTime	PracSlideFixationStart.OnsetToOnsetTime	PracSlideTarget.ACC	PracSlideTarget.CRESP	PracSlideTarget.DurationError	PracSlideTarget.OnsetDelay	PracSlideTarget.OnsetTime	PracSlideTarget.OnsetToOnsetTime	PracSlideTarget.RESP	PracSlideTarget.RT	PracSlideTarget.RTTime	PracSlideTarget.Tag	PracTrialList	PracTrialList.Cycle	PracTrialList.Sample	Probe1Resp	Probe2Resp	Procedure[Trial]	Running[Trial]	SlideFixationEnd.DurationError	SlideFixationEnd.OnsetDelay	SlideFixationEnd.OnsetTime	SlideFixationEnd.OnsetToOnsetTime	SlideFixationStart.DurationError	SlideFixationStart.OnsetDelay	SlideFixationStart.OnsetTime	SlideFixationStart.OnsetToOnsetTime	SlideTarget.ACC	SlideTarget.CRESP	SlideTarget.DurationError	SlideTarget.OnsetDelay	SlideTarget.OnsetTime	SlideTarget.OnsetToOnsetTime	SlideTarget.RESP	SlideTarget.RT	SlideTarget.RTTime	SlideTarget.Tag	TargerDirection	TargetDirection	TargetImage	TargetPosition	ThoughtProbe1.ACC	ThoughtProbe1.CRESP	ThoughtProbe1.DurationError	ThoughtProbe1.OnsetDelay	ThoughtProbe1.OnsetTime	ThoughtProbe1.OnsetToOnsetTime	ThoughtProbe1.RESP	ThoughtProbe1.RT	ThoughtProbe1.RTTime	ThoughtProbe2.ACC	ThoughtProbe2.CRESP	ThoughtProbe2.DurationError	ThoughtProbe2.OnsetDelay	ThoughtProbe2.OnsetTime	ThoughtProbe2.OnsetToOnsetTime	ThoughtProbe2.RESP	ThoughtProbe2.RT	ThoughtProbe2.RTTime	TrialList	TrialList.Cycle	TrialList.Sample
Arrow Flanker 2014	12137	1	"<?xml version=""1.0""?>\n<Clock xmlns:dt=""urn:schemas-microsoft-com:datatypes""><Description dt:dt=""string"">E-Prime Primary Realtime Clock</Description><StartTime><Timestamp dt:dt=""int"">0</Timestamp><DateUtc dt:dt=""string"">2015-03-16T16:28:08Z</DateUtc></StartTime><FrequencyChanges><FrequencyChange><Frequency dt:dt=""r8"">2825654</Frequency><Timestamp dt:dt=""r8"">698051417267</Timestamp><Current dt:dt=""r8"">0</Current><DateUtc dt:dt=""string"">2015-03-16T16:28:08Z</DateUtc></FrequencyChange></FrequencyChanges></Clock>\n"	Arrow Flanker 2014-12137-1	60.018	1.0.0.100	1	-2027705975	Professional	2.0.10.353	2.0.10.353	03-16-2015	3/16/2015 4:28:08 PM	12:28:08	2.0.10.248	1	NA	NA	NA	NA	NA	NA	NA	NA	NA	NA	NA	NA	NA	1	1	1	NA	NA	NA	NA	NA	NA	NA	NA	NA	NA	NA	MapBlockProc	MapBlockList	NA	1	{RIGHTARROW}	-100	NA	1057	NA	2	1	1	0	10	215226	1067	1	{RIGHTARROW}	-999999	0	216793	0	{RIGHTARROW}	647	217440	NA	NA	NA	NA	NA	NA	MapTrialProc	MapTrialList	NA	NA	NA	NA	NA	NA	NA	NA	NA	NA	NA	NA	NA	NA	NA	NA	NA	NA	right	NA	R.bmp	354	NA	NA	NA	NA	NA	NA	NA	NA	NA	NA	NA	NA	NA	NA	NA	NA	NA	NA	NA	NA	NA
Arrow Flanker 2014	12137	1	"<?xml version=""1.0""?>\n<Clock xmlns:dt=""urn:schemas-microsoft-com:datatypes""><Description dt:dt=""string"">E-Prime Primary Realtime Clock</Description><StartTime><Timestamp dt:dt=""int"">0</Timestamp><DateUtc dt:dt=""string"">2015-03-16T16:28:08Z</DateUtc></StartTime><FrequencyChanges><FrequencyChange><Frequency dt:dt=""r8"">2825654</Frequency><Timestamp dt:dt=""r8"">698051417267</Timestamp><Current dt:dt=""r8"">0</Current><DateUtc dt:dt=""string"">2015-03-16T16:28:08Z</DateUtc></FrequencyChange></FrequencyChanges></Clock>\n"	Arrow Flanker 2014-12137-1	60.018	1.0.0.100	1	-2027705975	Professional	2.0.10.353	2.0.10.353	03-16-2015	3/16/2015 4:28:08 PM	12:28:08	2.0.10.248	1	NA	NA	NA	NA	NA	NA	NA	NA	NA	NA	NA	NA	NA	1	1	1	NA	NA	NA	NA	NA	NA	NA	NA	NA	NA	NA	MapBlockProc	MapBlockList	NA	2	{RIGHTARROW}	-100	NA	715	NA	2	1	2	0	16	218975	717	1	{RIGHTARROW}	-999999	0	220192	0	{RIGHTARROW}	480	220672	NA	NA	NA	NA	NA	NA	MapTrialProc	MapTrialList	NA	NA	NA	NA	NA	NA	NA	NA	NA	NA	NA	NA	NA	NA	NA	NA	NA	NA	right	NA	R.bmp	354	NA	NA	NA	NA	NA	NA	NA	NA	NA	NA	NA	NA	NA	NA	NA	NA	NA	NA	NA	NA	NA
Arrow Flanker 2014	12137	1	"<?xml version=""1.0""?>\n<Clock xmlns:dt=""urn:schemas-microsoft-com:datatypes""><Description dt:dt=""string"">E-Prime Primary Realtime Clock</Description><StartTime><Timestamp dt:dt=""int"">0</Timestamp><DateUtc dt:dt=""string"">2015-03-16T16:28:08Z</DateUtc></StartTime><FrequencyChanges><FrequencyChange><Frequency dt:dt=""r8"">2825654</Frequency><Timestamp dt:dt=""r8"">698051417267</Timestamp><Current dt:dt=""r8"">0</Current><DateUtc dt:dt=""string"">2015-03-16T16:28:08Z</DateUtc></FrequencyChange></FrequencyChanges></Clock>\n"	Arrow Flanker 2014-12137-1	60.018	1.0.0.100	1	-2027705975	Professional	2.0.10.353	2.0.10.353	03-16-2015	3/16/2015 4:28:08 PM	12:28:08	2.0.10.248	1	NA	NA	NA	NA	NA	NA	NA	NA	NA	NA	NA	NA	NA	1	1	1	NA	NA	NA	NA	NA	NA	NA	NA	NA	NA	NA	MapBlockProc	MapBlockList	NA	3	{LEFTARROW}	-100	NA	855	NA	1	1	3	0	17	222208	866	1	{LEFTARROW}	-999999	0	223574	0	{LEFTARROW}	426	224000	NA	NA	NA	NA	NA	NA	MapTrialProc	MapTrialList	NA	NA	NA	NA	NA	NA	NA	NA	NA	NA	NA	NA	NA	NA	NA	NA	NA	NA	left	NA	L.bmp	354	NA	NA	NA	NA	NA	NA	NA	NA	NA	NA	NA	NA	NA	NA	NA	NA	NA	NA	NA	NA	NA
Arrow Flanker 2014	12137	1	"<?xml version=""1.0""?>\n<Clock xmlns:dt=""urn:schemas-microsoft-com:datatypes""><Description dt:dt=""string"">E-Prime Primary Realtime Clock</Description><StartTime><Timestamp dt:dt=""int"">0</Timestamp><DateUtc dt:dt=""string"">2015-03-16T16:28:08Z</DateUtc></StartTime><FrequencyChanges><FrequencyChange><Frequency dt:dt=""r8"">2825654</Frequency><Timestamp dt:dt=""r8"">698051417267</Timestamp><Current dt:dt=""r8"">0</Current><DateUtc dt:dt=""string"">2015-03-16T16:28:08Z</DateUtc></FrequencyChange></FrequencyChanges></Clock>\n"	Arrow Flanker 2014-12137-1	60.018	1.0.0.100	1	-2027705975	Professional	2.0.10.353	2.0.10.353	03-16-2015	3/16/2015 4:28:08 PM	12:28:08	2.0.10.248	1	NA	NA	NA	NA	NA	NA	NA	NA	NA	NA	NA	NA	NA	1	1	1	NA	NA	NA	NA	NA	NA	NA	NA	NA	NA	NA	MapBlockProc	MapBlockList	NA	4	{LEFTARROW}	-100	NA	1398	NA	1	1	4	0	16	225540	1400	1	{LEFTARROW}	-999999	16	227456	0	{LEFTARROW}	479	227935	NA	NA	NA	NA	NA	NA	MapTrialProc	MapTrialList	NA	NA	NA	NA	NA	NA	NA	NA	NA	NA	NA	NA	NA	NA	NA	NA	NA	NA	left	NA	L.bmp	354	NA	NA	NA	NA	NA	NA	NA	NA	NA	NA	NA	NA	NA	NA	NA	NA	NA	NA	NA	NA	NA
Arrow Flanker 2014	12137	1	"<?xml version=""1.0""?>\n<Clock xmlns:dt=""urn:schemas-microsoft-com:datatypes""><Description dt:dt=""string"">E-Prime Primary Realtime Clock</Description><StartTime><Timestamp dt:dt=""int"">0</Timestamp><DateUtc dt:dt=""string"">2015-03-16T16:28:08Z</DateUtc></StartTime><FrequencyChanges><FrequencyChange><Frequency dt:dt=""r8"">2825654</Frequency><Timestamp dt:dt=""r8"">698051417267</Timestamp><Current dt:dt=""r8"">0</Current><DateUtc dt:dt=""string"">2015-03-16T16:28:08Z</DateUtc></FrequencyChange></FrequencyChanges></Clock>\n"	Arrow Flanker 2014-12137-1	60.018	1.0.0.100	1	-2027705975	Professional	2.0.10.353	2.0.10.353	03-16-2015	3/16/2015 4:28:08 PM	12:28:08	2.0.10.248	1	NA	NA	NA	NA	NA	NA	NA	NA	NA	NA	NA	NA	NA	1	1	1	NA	NA	NA	NA	NA	NA	NA	NA	NA	NA	NA	MapBlockProc	MapBlockList	NA	5	{LEFTARROW}	-100	NA	810	NA	1	1	5	0	16	229472	817	1	{LEFTARROW}	-999999	16	230805	0	{LEFTARROW}	474	231279	NA	NA	NA	NA	NA	NA	MapTrialProc	MapTrialList	NA	NA	NA	NA	NA	NA	NA	NA	NA	NA	NA	NA	NA	NA	NA	NA	NA	NA	left	NA	L.bmp	354	NA	NA	NA	NA	NA	NA	NA	NA	NA	NA	NA	NA	NA	NA	NA	NA	NA	NA	NA	NA	NA
Arrow Flanker 2014	12137	1	"<?xml version=""1.0""?>\n<Clock xmlns:dt=""urn:schemas-microsoft-com:datatypes""><Description dt:dt=""string"">E-Prime Primary Realtime Clock</Description><StartTime><Timestamp dt:dt=""int"">0</Timestamp><DateUtc dt:dt=""string"">2015-03-16T16:28:08Z</DateUtc></StartTime><FrequencyChanges><FrequencyChange><Frequency dt:dt=""r8"">2825654</Frequency><Timestamp dt:dt=""r8"">698051417267</Timestamp><Current dt:dt=""r8"">0</Current><DateUtc dt:dt=""string"">2015-03-16T16:28:08Z</DateUtc></FrequencyChange></FrequencyChanges></Clock>\n"	Arrow Flanker 2014-12137-1	60.018	1.0.0.100	1	-2027705975	Professional	2.0.10.353	2.0.10.353	03-16-2015	3/16/2015 4:28:08 PM	12:28:08	2.0.10.248	1	NA	NA	NA	NA	NA	NA	NA	NA	NA	NA	NA	NA	NA	1	1	1	NA	NA	NA	NA	NA	NA	NA	NA	NA	NA	NA	MapBlockProc	MapBlockList	NA	6	{RIGHTARROW}	-100	NA	1406	NA	2	1	6	0	16	232821	1416	1	{RIGHTARROW}	-999999	0	234737	0	{RIGHTARROW}	398	235135	NA	NA	NA	NA	NA	NA	MapTrialProc	MapTrialList	NA	NA	NA	NA	NA	NA	NA	NA	NA	NA	NA	NA	NA	NA	NA	NA	NA	NA	right	NA	R.bmp	354	NA	NA	NA	NA	NA	NA	NA	NA	NA	NA	NA	NA	NA	NA	NA	NA	NA	NA	NA	NA	NA
Arrow Flanker 2014	12137	1	"<?xml version=""1.0""?>\n<Clock xmlns:dt=""urn:schemas-microsoft-com:datatypes""><Description dt:dt=""string"">E-Prime Primary Realtime Clock</Description><StartTime><Timestamp dt:dt=""int"">0</Timestamp><DateUtc dt:dt=""string"">2015-03-16T16:28:08Z</DateUtc></StartTime><FrequencyChanges><FrequencyChange><Frequency dt:dt=""r8"">2825654</Frequency><Timestamp dt:dt=""r8"">698051417267</Timestamp><Current dt:dt=""r8"">0</Current><DateUtc dt:dt=""string"">2015-03-16T16:28:08Z</DateUtc></FrequencyChange></FrequencyChanges></Clock>\n"	Arrow Flanker 2014-12137-1	60.018	1.0.0.100	1	-2027705975	Professional	2.0.10.353	2.0.10.353	03-16-2015	3/16/2015 4:28:08 PM	12:28:08	2.0.10.248	1	NA	NA	NA	NA	NA	NA	NA	NA	NA	NA	NA	NA	NA	1	1	1	NA	NA	NA	NA	NA	NA	NA	NA	NA	NA	NA	MapBlockProc	MapBlockList	NA	7	{LEFTARROW}	-100	NA	425	NA	1	1	7	0	16	236670	433	1	{LEFTARROW}	-999999	0	237603	0	{LEFTARROW}	428	238031	NA	NA	NA	NA	NA	NA	MapTrialProc	MapTrialList	NA	NA	NA	NA	NA	NA	NA	NA	NA	NA	NA	NA	NA	NA	NA	NA	NA	NA	left	NA	L.bmp	354	NA	NA	NA	NA	NA	NA	NA	NA	NA	NA	NA	NA	NA	NA	NA	NA	NA	NA	NA	NA	NA
Arrow Flanker 2014	12137	1	"<?xml version=""1.0""?>\n<Clock xmlns:dt=""urn:schemas-microsoft-com:datatypes""><Description dt:dt=""string"">E-Prime Primary Realtime Clock</Description><StartTime><Timestamp dt:dt=""int"">0</Timestamp><DateUtc dt:dt=""string"">2015-03-16T16:28:08Z</DateUtc></StartTime><FrequencyChanges><FrequencyChange><Frequency dt:dt=""r8"">2825654</Frequency><Timestamp dt:dt=""r8"">698051417267</Timestamp><Current dt:dt=""r8"">0</Current><DateUtc dt:dt=""string"">2015-03-16T16:28:08Z</DateUtc></FrequencyChange></FrequencyChanges></Clock>\n"	Arrow Flanker 2014-12137-1	60.018	1.0.0.100	1	-2027705975	Professional	2.0.10.353	2.0.10.353	03-16-2015	3/16/2015 4:28:08 PM	12:28:08	2.0.10.248	1	NA	NA	NA	NA	NA	NA	NA	NA	NA	NA	NA	NA	NA	1	1	1	NA	NA	NA	NA	NA	NA	NA	NA	NA	NA	NA	MapBlockProc	MapBlockList	NA	8	{RIGHTARROW}	-100	NA	1547	NA	2	1	8	0	16	239569	1550	1	{RIGHTARROW}	-999999	0	241619	0	{RIGHTARROW}	443	242062	NA	NA	NA	NA	NA	NA	MapTrialProc	MapTrialList	NA	NA	NA	NA	NA	NA	NA	NA	NA	NA	NA	NA	NA	NA	NA	NA	NA	NA	right	NA	R.bmp	354	NA	NA	NA	NA	NA	NA	NA	NA	NA	NA	NA	NA	NA	NA	NA	NA	NA	NA	NA	NA	NA
Arrow Flanker 2014	12137	1	"<?xml version=""1.0""?>\n<Clock xmlns:dt=""urn:schemas-microsoft-com:datatypes""><Description dt:dt=""string"">E-Prime Primary Realtime Clock</Description><StartTime><Timestamp dt:dt=""int"">0</Timestamp><DateUtc dt:dt=""string"">2015-03-16T16:28:08Z</DateUtc></StartTime><FrequencyChanges><FrequencyChange><Frequency dt:dt=""r8"">2825654</Frequency><Timestamp dt:dt=""r8"">698051417267</Timestamp><Current dt:dt=""r8"">0</Current><DateUtc dt:dt=""string"">2015-03-16T16:28:08Z</DateUtc></FrequencyChange></FrequencyChanges></Clock>\n"	Arrow Flanker 2014-12137-1	60.018	1.0.0.100	1	-2027705975	Professional	2.0.10.353	2.0.10.353	03-16-2015	3/16/2015 4:28:08 PM	12:28:08	2.0.10.248	1	NA	NA	NA	NA	NA	NA	NA	NA	NA	NA	NA	NA	NA	1	1	1	NA	NA	NA	NA	NA	NA	NA	NA	NA	NA	NA	MapBlockProc	MapBlockList	NA	9	{RIGHTARROW}	-100	NA	638	NA	2	1	9	0	16	243601	650	1	{RIGHTARROW}	-999999	0	244751	0	{RIGHTARROW}	511	245262	NA	NA	NA	NA	NA	NA	MapTrialProc	MapTrialList	NA	NA	NA	NA	NA	NA	NA	NA	NA	NA	NA	NA	NA	NA	NA	NA	NA	NA	right	NA	R.bmp	354	NA	NA	NA	NA	NA	NA	NA	NA	NA	NA	NA	NA	NA	NA	NA	NA	NA	NA	NA	NA	NA
Arrow Flanker 2014	12137	1	"<?xml version=""1.0""?>\n<Clock xmlns:dt=""urn:schemas-microsoft-com:datatypes""><Description dt:dt=""string"">E-Prime Primary Realtime Clock</Description><StartTime><Timestamp dt:dt=""int"">0</Timestamp><DateUtc dt:dt=""string"">2015-03-16T16:28:08Z</DateUtc></StartTime><FrequencyChanges><FrequencyChange><Frequency dt:dt=""r8"">2825654</Frequency><Timestamp dt:dt=""r8"">698051417267</Timestamp><Current dt:dt=""r8"">0</Current><DateUtc dt:dt=""string"">2015-03-16T16:28:08Z</DateUtc></FrequencyChange></FrequencyChanges></Clock>\n"	Arrow Flanker 2014-12137-1	60.018	1.0.0.100	1	-2027705975	Professional	2.0.10.353	2.0.10.353	03-16-2015	3/16/2015 4:28:08 PM	12:28:08	2.0.10.248	1	NA	NA	NA	NA	NA	NA	NA	NA	NA	NA	NA	NA	NA	1	1	1	NA	NA	NA	NA	NA	NA	NA	NA	NA	NA	NA	MapBlockProc	MapBlockList	NA	10	{LEFTARROW}	-100	NA	825	NA	1	1	10	0	16	246800	833	1	{LEFTARROW}	-999999	0	248133	0	{LEFTARROW}	521	248654	NA	NA	NA	NA	NA	NA	MapTrialProc	MapTrialList	NA	NA	NA	NA	NA	NA	NA	NA	NA	NA	NA	NA	NA	NA	NA	NA	NA	NA	left	NA	L.bmp	354	NA	NA	NA	NA	NA	NA	NA	NA	NA	NA	NA	NA	NA	NA	NA	NA	NA	NA	NA	NA	NA
Arrow Flanker 2014	12137	1	"<?xml version=""1.0""?>\n<Clock xmlns:dt=""urn:schemas-microsoft-com:datatypes""><Description dt:dt=""string"">E-Prime Primary Realtime Clock</Description><StartTime><Timestamp dt:dt=""int"">0</Timestamp><DateUtc dt:dt=""string"">2015-03-16T16:28:08Z</DateUtc></StartTime><FrequencyChanges><FrequencyChange><Frequency dt:dt=""r8"">2825654</Frequency><Timestamp dt:dt=""r8"">698051417267</Timestamp><Current dt:dt=""r8"">0</Current><DateUtc dt:dt=""string"">2015-03-16T16:28:08Z</DateUtc></FrequencyChange></FrequencyChanges></Clock>\n"	Arrow Flanker 2014-12137-1	60.018	1.0.0.100	1	-2027705975	Professional	2.0.10.353	2.0.10.353	03-16-2015	3/16/2015 4:28:08 PM	12:28:08	2.0.10.248	2	NA	NA	NA	NA	NA	NA	NA	NA	NA	NA	NA	NA	NA	NA	NA	NA	NA	NA	NA	NA	NA	NA	NA	NA	1	1	1	PracBlockProc	PracBlockList	NA	1	{RIGHTARROW}	-100	NA	1562	neutral	NA	NA	NA	0	15	269644	1566	1	{RIGHTARROW}	-999999	0	271710	0	{RIGHTARROW}	543	272253	NA	6	1	1	NA	NA	PracTrialProc	PracTrialList	NA	NA	NA	NA	NA	NA	NA	NA	NA	NA	NA	NA	NA	NA	NA	NA	NA	NA	right	NA	ooroo.bmp	354	NA	NA	NA	NA	NA	NA	NA	NA	NA	NA	NA	NA	NA	NA	NA	NA	NA	NA	NA	NA	NA
Arrow Flanker 2014	12137	1	"<?xml version=""1.0""?>\n<Clock xmlns:dt=""urn:schemas-microsoft-com:datatypes""><Description dt:dt=""string"">E-Prime Primary Realtime Clock</Description><StartTime><Timestamp dt:dt=""int"">0</Timestamp><DateUtc dt:dt=""string"">2015-03-16T16:28:08Z</DateUtc></StartTime><FrequencyChanges><FrequencyChange><Frequency dt:dt=""r8"">2825654</Frequency><Timestamp dt:dt=""r8"">698051417267</Timestamp><Current dt:dt=""r8"">0</Current><DateUtc dt:dt=""string"">2015-03-16T16:28:08Z</DateUtc></FrequencyChange></FrequencyChanges></Clock>\n"	Arrow Flanker 2014-12137-1	60.018	1.0.0.100	1	-2027705975	Professional	2.0.10.353	2.0.10.353	03-16-2015	3/16/2015 4:28:08 PM	12:28:08	2.0.10.248	2	NA	NA	NA	NA	NA	NA	NA	NA	NA	NA	NA	NA	NA	NA	NA	NA	NA	NA	NA	NA	NA	NA	NA	NA	1	1	1	PracBlockProc	PracBlockList	NA	2	{LEFTARROW}	-100	NA	593	neutral	NA	NA	NA	0	16	273792	600	1	{LEFTARROW}	-999999	0	274892	0	{LEFTARROW}	480	275372	NA	3	1	2	NA	NA	PracTrialProc	PracTrialList	NA	NA	NA	NA	NA	NA	NA	NA	NA	NA	NA	NA	NA	NA	NA	NA	NA	NA	left	NA	ooloo.bmp	354	NA	NA	NA	NA	NA	NA	NA	NA	NA	NA	NA	NA	NA	NA	NA	NA	NA	NA	NA	NA	NA
Arrow Flanker 2014	12137	1	"<?xml version=""1.0""?>\n<Clock xmlns:dt=""urn:schemas-microsoft-com:datatypes""><Description dt:dt=""string"">E-Prime Primary Realtime Clock</Description><StartTime><Timestamp dt:dt=""int"">0</Timestamp><DateUtc dt:dt=""string"">2015-03-16T16:28:08Z</DateUtc></StartTime><FrequencyChanges><FrequencyChange><Frequency dt:dt=""r8"">2825654</Frequency><Timestamp dt:dt=""r8"">698051417267</Timestamp><Current dt:dt=""r8"">0</Current><DateUtc dt:dt=""string"">2015-03-16T16:28:08Z</DateUtc></FrequencyChange></FrequencyChanges></Clock>\n"	Arrow Flanker 2014-12137-1	60.018	1.0.0.100	1	-2027705975	Professional	2.0.10.353	2.0.10.353	03-16-2015	3/16/2015 4:28:08 PM	12:28:08	2.0.10.248	2	NA	NA	NA	NA	NA	NA	NA	NA	NA	NA	NA	NA	NA	NA	NA	NA	NA	NA	NA	NA	NA	NA	NA	NA	1	1	1	PracBlockProc	PracBlockList	NA	3	{LEFTARROW}	-100	NA	482	congruent	NA	NA	NA	0	16	276908	483	1	{LEFTARROW}	-999999	0	277891	0	{LEFTARROW}	569	278460	NA	1	1	3	NA	NA	PracTrialProc	PracTrialList	NA	NA	NA	NA	NA	NA	NA	NA	NA	NA	NA	NA	NA	NA	NA	NA	NA	NA	left	NA	lllll.bmp	354	NA	NA	NA	NA	NA	NA	NA	NA	NA	NA	NA	NA	NA	NA	NA	NA	NA	NA	NA	NA	NA
Arrow Flanker 2014	12137	1	"<?xml version=""1.0""?>\n<Clock xmlns:dt=""urn:schemas-microsoft-com:datatypes""><Description dt:dt=""string"">E-Prime Primary Realtime Clock</Description><StartTime><Timestamp dt:dt=""int"">0</Timestamp><DateUtc dt:dt=""string"">2015-03-16T16:28:08Z</DateUtc></StartTime><FrequencyChanges><FrequencyChange><Frequency dt:dt=""r8"">2825654</Frequency><Timestamp dt:dt=""r8"">698051417267</Timestamp><Current dt:dt=""r8"">0</Current><DateUtc dt:dt=""string"">2015-03-16T16:28:08Z</DateUtc></FrequencyChange></FrequencyChanges></Clock>\n"	Arrow Flanker 2014-12137-1	60.018	1.0.0.100	1	-2027705975	Professional	2.0.10.353	2.0.10.353	03-16-2015	3/16/2015 4:28:08 PM	12:28:08	2.0.10.248	2	NA	NA	NA	NA	NA	NA	NA	NA	NA	NA	NA	NA	NA	NA	NA	NA	NA	NA	NA	NA	NA	NA	NA	NA	1	1	1	PracBlockProc	PracBlockList	NA	4	{RIGHTARROW}	-100	NA	1512	congruent	NA	NA	NA	0	17	279991	1516	1	{RIGHTARROW}	-999999	0	282007	0	{RIGHTARROW}	437	282444	NA	4	1	4	NA	NA	PracTrialProc	PracTrialList	NA	NA	NA	NA	NA	NA	NA	NA	NA	NA	NA	NA	NA	NA	NA	NA	NA	NA	right	NA	rrrrr.bmp	354	NA	NA	NA	NA	NA	NA	NA	NA	NA	NA	NA	NA	NA	NA	NA	NA	NA	NA	NA	NA	NA
Arrow Flanker 2014	12137	1	"<?xml version=""1.0""?>\n<Clock xmlns:dt=""urn:schemas-microsoft-com:datatypes""><Description dt:dt=""string"">E-Prime Primary Realtime Clock</Description><StartTime><Timestamp dt:dt=""int"">0</Timestamp><DateUtc dt:dt=""string"">2015-03-16T16:28:08Z</DateUtc></StartTime><FrequencyChanges><FrequencyChange><Frequency dt:dt=""r8"">2825654</Frequency><Timestamp dt:dt=""r8"">698051417267</Timestamp><Current dt:dt=""r8"">0</Current><DateUtc dt:dt=""string"">2015-03-16T16:28:08Z</DateUtc></FrequencyChange></FrequencyChanges></Clock>\n"	Arrow Flanker 2014-12137-1	60.018	1.0.0.100	1	-2027705975	Professional	2.0.10.353	2.0.10.353	03-16-2015	3/16/2015 4:28:08 PM	12:28:08	2.0.10.248	2	NA	NA	NA	NA	NA	NA	NA	NA	NA	NA	NA	NA	NA	NA	NA	NA	NA	NA	NA	NA	NA	NA	NA	NA	1	1	1	PracBlockProc	PracBlockList	NA	5	{RIGHTARROW}	-100	NA	1399	incongruent	NA	NA	NA	0	16	283973	1399	1	{RIGHTARROW}	-999999	0	285872	0	{RIGHTARROW}	716	286588	NA	5	1	5	NA	NA	PracTrialProc	PracTrialList	NA	NA	NA	NA	NA	NA	NA	NA	NA	NA	NA	NA	NA	NA	NA	NA	NA	NA	right	NA	llrll.bmp	354	NA	NA	NA	NA	NA	NA	NA	NA	NA	NA	NA	NA	NA	NA	NA	NA	NA	NA	NA	NA	NA
Arrow Flanker 2014	12137	1	"<?xml version=""1.0""?>\n<Clock xmlns:dt=""urn:schemas-microsoft-com:datatypes""><Description dt:dt=""string"">E-Prime Primary Realtime Clock</Description><StartTime><Timestamp dt:dt=""int"">0</Timestamp><DateUtc dt:dt=""string"">2015-03-16T16:28:08Z</DateUtc></StartTime><FrequencyChanges><FrequencyChange><Frequency dt:dt=""r8"">2825654</Frequency><Timestamp dt:dt=""r8"">698051417267</Timestamp><Current dt:dt=""r8"">0</Current><DateUtc dt:dt=""string"">2015-03-16T16:28:08Z</DateUtc></FrequencyChange></FrequencyChanges></Clock>\n"	Arrow Flanker 2014-12137-1	60.018	1.0.0.100	1	-2027705975	Professional	2.0.10.353	2.0.10.353	03-16-2015	3/16/2015 4:28:08 PM	12:28:08	2.0.10.248	2	NA	NA	NA	NA	NA	NA	NA	NA	NA	NA	NA	NA	NA	NA	NA	NA	NA	NA	NA	NA	NA	NA	NA	NA	1	1	1	PracBlockProc	PracBlockList	NA	6	{LEFTARROW}	-100	NA	1450	incongruent	NA	NA	NA	0	16	288121	1450	1	{LEFTARROW}	-999999	0	290071	0	{LEFTARROW}	581	290652	NA	2	1	6	NA	NA	PracTrialProc	PracTrialList	NA	NA	NA	NA	NA	NA	NA	NA	NA	NA	NA	NA	NA	NA	NA	NA	NA	NA	left	NA	rrlrr.bmp	354	NA	NA	NA	NA	NA	NA	NA	NA	NA	NA	NA	NA	NA	NA	NA	NA	NA	NA	NA	NA	NA
Arrow Flanker 2014	12137	1	"<?xml version=""1.0""?>\n<Clock xmlns:dt=""urn:schemas-microsoft-com:datatypes""><Description dt:dt=""string"">E-Prime Primary Realtime Clock</Description><StartTime><Timestamp dt:dt=""int"">0</Timestamp><DateUtc dt:dt=""string"">2015-03-16T16:28:08Z</DateUtc></StartTime><FrequencyChanges><FrequencyChange><Frequency dt:dt=""r8"">2825654</Frequency><Timestamp dt:dt=""r8"">698051417267</Timestamp><Current dt:dt=""r8"">0</Current><DateUtc dt:dt=""string"">2015-03-16T16:28:08Z</DateUtc></FrequencyChange></FrequencyChanges></Clock>\n"	Arrow Flanker 2014-12137-1	60.018	1.0.0.100	1	-2027705975	Professional	2.0.10.353	2.0.10.353	03-16-2015	3/16/2015 4:28:08 PM	12:28:08	2.0.10.248	3	1	1	1	NA	NA	NA	NA	NA	NA	NA	NA	NA	NA	NA	NA	NA	NA	NA	NA	NA	NA	NA	NA	NA	NA	NA	NA	BlockProc	BlockList	NA	1	{LEFTARROW}	NA	-100	1943	congruent	NA	NA	NA	NA	NA	NA	NA	NA	NA	NA	NA	NA	NA	NA	NA	NA	NA	NA	NA	NA	NA	NA	TrialProc	TrialList	0	11	313781	16	0	16	311481	1017	1	{LEFTARROW}	-999999	16	313014	0	{LEFTARROW}	756	313770	NA	NA	left	lllll.bmp	354	0	NA	0	0	0	0	NA	0	0	0	NA	0	0	0	0	NA	0	0	1	1	1
Arrow Flanker 2014	12137	1	"<?xml version=""1.0""?>\n<Clock xmlns:dt=""urn:schemas-microsoft-com:datatypes""><Description dt:dt=""string"">E-Prime Primary Realtime Clock</Description><StartTime><Timestamp dt:dt=""int"">0</Timestamp><DateUtc dt:dt=""string"">2015-03-16T16:28:08Z</DateUtc></StartTime><FrequencyChanges><FrequencyChange><Frequency dt:dt=""r8"">2825654</Frequency><Timestamp dt:dt=""r8"">698051417267</Timestamp><Current dt:dt=""r8"">0</Current><DateUtc dt:dt=""string"">2015-03-16T16:28:08Z</DateUtc></FrequencyChange></FrequencyChanges></Clock>\n"	Arrow Flanker 2014-12137-1	60.018	1.0.0.100	1	-2027705975	Professional	2.0.10.353	2.0.10.353	03-16-2015	3/16/2015 4:28:08 PM	12:28:08	2.0.10.248	3	1	1	1	NA	NA	NA	NA	NA	NA	NA	NA	NA	NA	NA	NA	NA	NA	NA	NA	NA	NA	NA	NA	NA	NA	NA	NA	BlockProc	BlockList	NA	2	{RIGHTARROW}	NA	-100	1611	congruent	NA	NA	NA	NA	NA	NA	NA	NA	NA	NA	NA	NA	NA	NA	NA	NA	NA	NA	NA	NA	NA	NA	TrialProc	TrialList	1	18	316796	17	0	17	314314	1449	1	{RIGHTARROW}	-999999	0	316263	0	{RIGHTARROW}	515	316778	NA	NA	right	rrrrr.bmp	354	0	NA	0	0	0	0	NA	0	0	0	NA	0	0	0	0	NA	0	0	2	1	2
Arrow Flanker 2014	12137	1	"<?xml version=""1.0""?>\n<Clock xmlns:dt=""urn:schemas-microsoft-com:datatypes""><Description dt:dt=""string"">E-Prime Primary Realtime Clock</Description><StartTime><Timestamp dt:dt=""int"">0</Timestamp><DateUtc dt:dt=""string"">2015-03-16T16:28:08Z</DateUtc></StartTime><FrequencyChanges><FrequencyChange><Frequency dt:dt=""r8"">2825654</Frequency><Timestamp dt:dt=""r8"">698051417267</Timestamp><Current dt:dt=""r8"">0</Current><DateUtc dt:dt=""string"">2015-03-16T16:28:08Z</DateUtc></FrequencyChange></FrequencyChanges></Clock>\n"	Arrow Flanker 2014-12137-1	60.018	1.0.0.100	1	-2027705975	Professional	2.0.10.353	2.0.10.353	03-16-2015	3/16/2015 4:28:08 PM	12:28:08	2.0.10.248	3	1	1	1	NA	NA	NA	NA	NA	NA	NA	NA	NA	NA	NA	NA	NA	NA	NA	NA	NA	NA	NA	NA	NA	NA	NA	NA	BlockProc	BlockList	NA	3	{LEFTARROW}	NA	-100	1057	congruent	NA	NA	NA	NA	NA	NA	NA	NA	NA	NA	NA	NA	NA	NA	NA	NA	NA	NA	NA	NA	NA	NA	TrialProc	TrialList	0	11	319029	17	0	17	317330	699	1	{LEFTARROW}	-999999	0	318529	0	{LEFTARROW}	489	319018	NA	NA	left	lllll.bmp	354	0	NA	0	0	0	0	NA	0	0	0	NA	0	0	0	0	NA	0	0	1	1	3
Arrow Flanker 2014	12137	1	"<?xml version=""1.0""?>\n<Clock xmlns:dt=""urn:schemas-microsoft-com:datatypes""><Description dt:dt=""string"">E-Prime Primary Realtime Clock</Description><StartTime><Timestamp dt:dt=""int"">0</Timestamp><DateUtc dt:dt=""string"">2015-03-16T16:28:08Z</DateUtc></StartTime><FrequencyChanges><FrequencyChange><Frequency dt:dt=""r8"">2825654</Frequency><Timestamp dt:dt=""r8"">698051417267</Timestamp><Current dt:dt=""r8"">0</Current><DateUtc dt:dt=""string"">2015-03-16T16:28:08Z</DateUtc></FrequencyChange></FrequencyChanges></Clock>\n"	Arrow Flanker 2014-12137-1	60.018	1.0.0.100	1	-2027705975	Professional	2.0.10.353	2.0.10.353	03-16-2015	3/16/2015 4:28:08 PM	12:28:08	2.0.10.248	3	1	1	1	NA	NA	NA	NA	NA	NA	NA	NA	NA	NA	NA	NA	NA	NA	NA	NA	NA	NA	NA	NA	NA	NA	NA	NA	BlockProc	BlockList	NA	4	{RIGHTARROW}	NA	-100	1887	incongruent	NA	NA	NA	NA	NA	NA	NA	NA	NA	NA	NA	NA	NA	NA	NA	NA	NA	NA	NA	NA	NA	NA	TrialProc	TrialList	1	18	322028	17	0	16	319562	1450	1	{RIGHTARROW}	-999999	0	321512	0	{RIGHTARROW}	498	322010	NA	NA	right	llrll.bmp	354	0	NA	0	0	0	0	NA	0	0	0	NA	0	0	0	0	NA	0	0	4	1	4
Arrow Flanker 2014	12137	1	"<?xml version=""1.0""?>\n<Clock xmlns:dt=""urn:schemas-microsoft-com:datatypes""><Description dt:dt=""string"">E-Prime Primary Realtime Clock</Description><StartTime><Timestamp dt:dt=""int"">0</Timestamp><DateUtc dt:dt=""string"">2015-03-16T16:28:08Z</DateUtc></StartTime><FrequencyChanges><FrequencyChange><Frequency dt:dt=""r8"">2825654</Frequency><Timestamp dt:dt=""r8"">698051417267</Timestamp><Current dt:dt=""r8"">0</Current><DateUtc dt:dt=""string"">2015-03-16T16:28:08Z</DateUtc></FrequencyChange></FrequencyChanges></Clock>\n"	Arrow Flanker 2014-12137-1	60.018	1.0.0.100	1	-2027705975	Professional	2.0.10.353	2.0.10.353	03-16-2015	3/16/2015 4:28:08 PM	12:28:08	2.0.10.248	3	1	1	1	NA	NA	NA	NA	NA	NA	NA	NA	NA	NA	NA	NA	NA	NA	NA	NA	NA	NA	NA	NA	NA	NA	NA	NA	BlockProc	BlockList	NA	5	{LEFTARROW}	NA	-100	1447	incongruent	NA	NA	NA	NA	NA	NA	NA	NA	NA	NA	NA	NA	NA	NA	NA	NA	NA	NA	NA	NA	NA	NA	TrialProc	TrialList	1	19	324477	17	0	16	322561	883	1	{LEFTARROW}	-999999	0	323944	0	{LEFTARROW}	514	324458	NA	NA	left	rrlrr.bmp	354	0	NA	0	0	0	0	NA	0	0	0	NA	0	0	0	0	NA	0	0	3	1	5
Arrow Flanker 2014	12137	1	"<?xml version=""1.0""?>\n<Clock xmlns:dt=""urn:schemas-microsoft-com:datatypes""><Description dt:dt=""string"">E-Prime Primary Realtime Clock</Description><StartTime><Timestamp dt:dt=""int"">0</Timestamp><DateUtc dt:dt=""string"">2015-03-16T16:28:08Z</DateUtc></StartTime><FrequencyChanges><FrequencyChange><Frequency dt:dt=""r8"">2825654</Frequency><Timestamp dt:dt=""r8"">698051417267</Timestamp><Current dt:dt=""r8"">0</Current><DateUtc dt:dt=""string"">2015-03-16T16:28:08Z</DateUtc></FrequencyChange></FrequencyChanges></Clock>\n"	Arrow Flanker 2014-12137-1	60.018	1.0.0.100	1	-2027705975	Professional	2.0.10.353	2.0.10.353	03-16-2015	3/16/2015 4:28:08 PM	12:28:08	2.0.10.248	3	1	1	1	NA	NA	NA	NA	NA	NA	NA	NA	NA	NA	NA	NA	NA	NA	NA	NA	NA	NA	NA	NA	NA	NA	NA	NA	BlockProc	BlockList	NA	6	{LEFTARROW}	NA	-100	1113	neutral	NA	NA	NA	NA	NA	NA	NA	NA	NA	NA	NA	NA	NA	NA	NA	NA	NA	NA	NA	NA	NA	NA	TrialProc	TrialList	1	15	326793	17	0	17	325011	733	1	{LEFTARROW}	-999999	0	326244	0	{LEFTARROW}	533	326777	NA	NA	left	ooloo.bmp	354	0	NA	0	0	0	0	NA	0	0	0	NA	0	0	0	0	NA	0	0	5	1	6
Arrow Flanker 2014	12137	1	"<?xml version=""1.0""?>\n<Clock xmlns:dt=""urn:schemas-microsoft-com:datatypes""><Description dt:dt=""string"">E-Prime Primary Realtime Clock</Description><StartTime><Timestamp dt:dt=""int"">0</Timestamp><DateUtc dt:dt=""string"">2015-03-16T16:28:08Z</DateUtc></StartTime><FrequencyChanges><FrequencyChange><Frequency dt:dt=""r8"">2825654</Frequency><Timestamp dt:dt=""r8"">698051417267</Timestamp><Current dt:dt=""r8"">0</Current><DateUtc dt:dt=""string"">2015-03-16T16:28:08Z</DateUtc></FrequencyChange></FrequencyChanges></Clock>\n"	Arrow Flanker 2014-12137-1	60.018	1.0.0.100	1	-2027705975	Professional	2.0.10.353	2.0.10.353	03-16-2015	3/16/2015 4:28:08 PM	12:28:08	2.0.10.248	3	1	1	1	NA	NA	NA	NA	NA	NA	NA	NA	NA	NA	NA	NA	NA	NA	NA	NA	NA	NA	NA	NA	NA	NA	NA	NA	BlockProc	BlockList	NA	7	{LEFTARROW}	NA	-100	2008	congruent	NA	NA	NA	NA	NA	NA	NA	NA	NA	NA	NA	NA	NA	NA	NA	NA	NA	NA	NA	NA	NA	NA	TrialProc	TrialList	1	5	329359	17	0	17	327327	1049	1	{LEFTARROW}	-999999	0	328876	0	{LEFTARROW}	477	329353	NA	NA	left	lllll.bmp	354	0	NA	0	0	0	0	NA	0	0	0	NA	0	0	0	0	NA	0	0	1	1	7
Arrow Flanker 2014	12137	1	"<?xml version=""1.0""?>\n<Clock xmlns:dt=""urn:schemas-microsoft-com:datatypes""><Description dt:dt=""string"">E-Prime Primary Realtime Clock</Description><StartTime><Timestamp dt:dt=""int"">0</Timestamp><DateUtc dt:dt=""string"">2015-03-16T16:28:08Z</DateUtc></StartTime><FrequencyChanges><FrequencyChange><Frequency dt:dt=""r8"">2825654</Frequency><Timestamp dt:dt=""r8"">698051417267</Timestamp><Current dt:dt=""r8"">0</Current><DateUtc dt:dt=""string"">2015-03-16T16:28:08Z</DateUtc></FrequencyChange></FrequencyChanges></Clock>\n"	Arrow Flanker 2014-12137-1	60.018	1.0.0.100	1	-2027705975	Professional	2.0.10.353	2.0.10.353	03-16-2015	3/16/2015 4:28:08 PM	12:28:08	2.0.10.248	3	1	1	1	NA	NA	NA	NA	NA	NA	NA	NA	NA	NA	NA	NA	NA	NA	NA	NA	NA	NA	NA	NA	NA	NA	NA	NA	BlockProc	BlockList	NA	8	{RIGHTARROW}	NA	-100	1313	incongruent	NA	NA	NA	NA	NA	NA	NA	NA	NA	NA	NA	NA	NA	NA	NA	NA	NA	NA	NA	NA	NA	NA	TrialProc	TrialList	0	9	331842	17	0	16	329892	1000	1	{RIGHTARROW}	-999999	0	331392	0	{RIGHTARROW}	441	331833	NA	NA	right	llrll.bmp	354	0	NA	0	0	0	0	NA	0	0	0	NA	0	0	0	0	NA	0	0	4	1	8
Arrow Flanker 2014	12137	1	"<?xml version=""1.0""?>\n<Clock xmlns:dt=""urn:schemas-microsoft-com:datatypes""><Description dt:dt=""string"">E-Prime Primary Realtime Clock</Description><StartTime><Timestamp dt:dt=""int"">0</Timestamp><DateUtc dt:dt=""string"">2015-03-16T16:28:08Z</DateUtc></StartTime><FrequencyChanges><FrequencyChange><Frequency dt:dt=""r8"">2825654</Frequency><Timestamp dt:dt=""r8"">698051417267</Timestamp><Current dt:dt=""r8"">0</Current><DateUtc dt:dt=""string"">2015-03-16T16:28:08Z</DateUtc></FrequencyChange></FrequencyChanges></Clock>\n"	Arrow Flanker 2014-12137-1	60.018	1.0.0.100	1	-2027705975	Professional	2.0.10.353	2.0.10.353	03-16-2015	3/16/2015 4:28:08 PM	12:28:08	2.0.10.248	3	1	1	1	NA	NA	NA	NA	NA	NA	NA	NA	NA	NA	NA	NA	NA	NA	NA	NA	NA	NA	NA	NA	NA	NA	NA	NA	BlockProc	BlockList	NA	9	{LEFTARROW}	NA	-100	1617	congruent	NA	NA	NA	NA	NA	NA	NA	NA	NA	NA	NA	NA	NA	NA	NA	NA	NA	NA	NA	NA	NA	NA	TrialProc	TrialList	1	7	334224	17	0	16	332375	783	1	{LEFTARROW}	-999999	0	333658	0	{LEFTARROW}	559	334217	NA	NA	left	lllll.bmp	354	0	NA	0	0	0	0	NA	0	0	0	NA	0	0	0	0	NA	0	0	1	1	9
Arrow Flanker 2014	12137	1	"<?xml version=""1.0""?>\n<Clock xmlns:dt=""urn:schemas-microsoft-com:datatypes""><Description dt:dt=""string"">E-Prime Primary Realtime Clock</Description><StartTime><Timestamp dt:dt=""int"">0</Timestamp><DateUtc dt:dt=""string"">2015-03-16T16:28:08Z</DateUtc></StartTime><FrequencyChanges><FrequencyChange><Frequency dt:dt=""r8"">2825654</Frequency><Timestamp dt:dt=""r8"">698051417267</Timestamp><Current dt:dt=""r8"">0</Current><DateUtc dt:dt=""string"">2015-03-16T16:28:08Z</DateUtc></FrequencyChange></FrequencyChanges></Clock>\n"	Arrow Flanker 2014-12137-1	60.018	1.0.0.100	1	-2027705975	Professional	2.0.10.353	2.0.10.353	03-16-2015	3/16/2015 4:28:08 PM	12:28:08	2.0.10.248	3	1	1	1	NA	NA	NA	NA	NA	NA	NA	NA	NA	NA	NA	NA	NA	NA	NA	NA	NA	NA	NA	NA	NA	NA	NA	NA	BlockProc	BlockList	NA	10	{LEFTARROW}	NA	-100	1254	congruent	NA	NA	NA	NA	NA	NA	NA	NA	NA	NA	NA	NA	NA	NA	NA	NA	NA	NA	NA	NA	NA	NA	TrialProc	TrialList	1	15	336840	17	0	17	334758	999	1	{LEFTARROW}	-999999	0	336257	0	{LEFTARROW}	568	336825	NA	NA	left	lllll.bmp	354	0	NA	0	0	0	0	NA	0	0	0	NA	0	0	0	0	NA	0	0	1	1	10
Arrow Flanker 2014	12137	1	"<?xml version=""1.0""?>\n<Clock xmlns:dt=""urn:schemas-microsoft-com:datatypes""><Description dt:dt=""string"">E-Prime Primary Realtime Clock</Description><StartTime><Timestamp dt:dt=""int"">0</Timestamp><DateUtc dt:dt=""string"">2015-03-16T16:28:08Z</DateUtc></StartTime><FrequencyChanges><FrequencyChange><Frequency dt:dt=""r8"">2825654</Frequency><Timestamp dt:dt=""r8"">698051417267</Timestamp><Current dt:dt=""r8"">0</Current><DateUtc dt:dt=""string"">2015-03-16T16:28:08Z</DateUtc></FrequencyChange></FrequencyChanges></Clock>\n"	Arrow Flanker 2014-12137-1	60.018	1.0.0.100	1	-2027705975	Professional	2.0.10.353	2.0.10.353	03-16-2015	3/16/2015 4:28:08 PM	12:28:08	2.0.10.248	3	1	1	1	NA	NA	NA	NA	NA	NA	NA	NA	NA	NA	NA	NA	NA	NA	NA	NA	NA	NA	NA	NA	NA	NA	NA	NA	BlockProc	BlockList	NA	11	{RIGHTARROW}	NA	-100	1294	neutral	NA	NA	NA	NA	NA	NA	NA	NA	NA	NA	NA	NA	NA	NA	NA	NA	NA	NA	NA	NA	NA	NA	TrialProc	TrialList	1	11	339556	17	0	17	337374	1199	1	{RIGHTARROW}	-999999	0	339073	0	{RIGHTARROW}	472	339545	NA	NA	right	ooroo.bmp	354	0	NA	0	0	0	0	NA	0	0	0	NA	0	0	0	0	NA	0	0	6	1	11
Arrow Flanker 2014	12137	1	"<?xml version=""1.0""?>\n<Clock xmlns:dt=""urn:schemas-microsoft-com:datatypes""><Description dt:dt=""string"">E-Prime Primary Realtime Clock</Description><StartTime><Timestamp dt:dt=""int"">0</Timestamp><DateUtc dt:dt=""string"">2015-03-16T16:28:08Z</DateUtc></StartTime><FrequencyChanges><FrequencyChange><Frequency dt:dt=""r8"">2825654</Frequency><Timestamp dt:dt=""r8"">698051417267</Timestamp><Current dt:dt=""r8"">0</Current><DateUtc dt:dt=""string"">2015-03-16T16:28:08Z</DateUtc></FrequencyChange></FrequencyChanges></Clock>\n"	Arrow Flanker 2014-12137-1	60.018	1.0.0.100	1	-2027705975	Professional	2.0.10.353	2.0.10.353	03-16-2015	3/16/2015 4:28:08 PM	12:28:08	2.0.10.248	3	1	1	1	NA	NA	NA	NA	NA	NA	NA	NA	NA	NA	NA	NA	NA	NA	NA	NA	NA	NA	NA	NA	NA	NA	NA	NA	BlockProc	BlockList	NA	12	{RIGHTARROW}	NA	-100	1763	neutral	NA	NA	NA	NA	NA	NA	NA	NA	NA	NA	NA	NA	NA	NA	NA	NA	NA	NA	NA	NA	NA	NA	TrialProc	TrialList	0	15	342472	17	0	16	340089	1400	1	{RIGHTARROW}	-999999	0	341989	0	{RIGHTARROW}	468	342457	NA	NA	right	ooroo.bmp	354	0	NA	0	0	0	0	NA	0	0	0	NA	0	0	0	0	NA	0	0	6	1	12
Arrow Flanker 2014	12137	1	"<?xml version=""1.0""?>\n<Clock xmlns:dt=""urn:schemas-microsoft-com:datatypes""><Description dt:dt=""string"">E-Prime Primary Realtime Clock</Description><StartTime><Timestamp dt:dt=""int"">0</Timestamp><DateUtc dt:dt=""string"">2015-03-16T16:28:08Z</DateUtc></StartTime><FrequencyChanges><FrequencyChange><Frequency dt:dt=""r8"">2825654</Frequency><Timestamp dt:dt=""r8"">698051417267</Timestamp><Current dt:dt=""r8"">0</Current><DateUtc dt:dt=""string"">2015-03-16T16:28:08Z</DateUtc></FrequencyChange></FrequencyChanges></Clock>\n"	Arrow Flanker 2014-12137-1	60.018	1.0.0.100	1	-2027705975	Professional	2.0.10.353	2.0.10.353	03-16-2015	3/16/2015 4:28:08 PM	12:28:08	2.0.10.248	3	1	1	1	NA	NA	NA	NA	NA	NA	NA	NA	NA	NA	NA	NA	NA	NA	NA	NA	NA	NA	NA	NA	NA	NA	NA	NA	BlockProc	BlockList	NA	13	{RIGHTARROW}	NA	-100	1527	congruent	NA	NA	NA	NA	NA	NA	NA	NA	NA	NA	NA	NA	NA	NA	NA	NA	NA	NA	NA	NA	NA	NA	TrialProc	TrialList	0	10	345155	16	0	16	343005	1150	1	{RIGHTARROW}	-999999	0	344655	0	{RIGHTARROW}	489	345144	NA	NA	right	rrrrr.bmp	354	0	NA	0	0	0	0	NA	0	0	0	NA	0	0	0	0	NA	0	0	2	1	13
Arrow Flanker 2014	12137	1	"<?xml version=""1.0""?>\n<Clock xmlns:dt=""urn:schemas-microsoft-com:datatypes""><Description dt:dt=""string"">E-Prime Primary Realtime Clock</Description><StartTime><Timestamp dt:dt=""int"">0</Timestamp><DateUtc dt:dt=""string"">2015-03-16T16:28:08Z</DateUtc></StartTime><FrequencyChanges><FrequencyChange><Frequency dt:dt=""r8"">2825654</Frequency><Timestamp dt:dt=""r8"">698051417267</Timestamp><Current dt:dt=""r8"">0</Current><DateUtc dt:dt=""string"">2015-03-16T16:28:08Z</DateUtc></FrequencyChange></FrequencyChanges></Clock>\n"	Arrow Flanker 2014-12137-1	60.018	1.0.0.100	1	-2027705975	Professional	2.0.10.353	2.0.10.353	03-16-2015	3/16/2015 4:28:08 PM	12:28:08	2.0.10.248	3	1	1	1	NA	NA	NA	NA	NA	NA	NA	NA	NA	NA	NA	NA	NA	NA	NA	NA	NA	NA	NA	NA	NA	NA	NA	NA	BlockProc	BlockList	NA	14	{LEFTARROW}	NA	-100	969	incongruent	NA	NA	NA	NA	NA	NA	NA	NA	NA	NA	NA	NA	NA	NA	NA	NA	NA	NA	NA	NA	NA	NA	TrialProc	TrialList	0	17	347321	16	0	17	345688	583	1	{LEFTARROW}	-999999	0	346771	0	{LEFTARROW}	533	347304	NA	NA	left	rrlrr.bmp	354	0	NA	0	0	0	0	NA	0	0	0	NA	0	0	0	0	NA	0	0	3	1	14
Arrow Flanker 2014	12137	1	"<?xml version=""1.0""?>\n<Clock xmlns:dt=""urn:schemas-microsoft-com:datatypes""><Description dt:dt=""string"">E-Prime Primary Realtime Clock</Description><StartTime><Timestamp dt:dt=""int"">0</Timestamp><DateUtc dt:dt=""string"">2015-03-16T16:28:08Z</DateUtc></StartTime><FrequencyChanges><FrequencyChange><Frequency dt:dt=""r8"">2825654</Frequency><Timestamp dt:dt=""r8"">698051417267</Timestamp><Current dt:dt=""r8"">0</Current><DateUtc dt:dt=""string"">2015-03-16T16:28:08Z</DateUtc></FrequencyChange></FrequencyChanges></Clock>\n"	Arrow Flanker 2014-12137-1	60.018	1.0.0.100	1	-2027705975	Professional	2.0.10.353	2.0.10.353	03-16-2015	3/16/2015 4:28:08 PM	12:28:08	2.0.10.248	3	1	1	1	NA	NA	NA	NA	NA	NA	NA	NA	NA	NA	NA	NA	NA	NA	NA	NA	NA	NA	NA	NA	NA	NA	NA	NA	BlockProc	BlockList	NA	15	{RIGHTARROW}	NA	-100	1090	congruent	NA	NA	NA	NA	NA	NA	NA	NA	NA	NA	NA	NA	NA	NA	NA	NA	NA	NA	NA	NA	NA	NA	TrialProc	TrialList	0	20	349820	17	0	17	347854	933	1	{RIGHTARROW}	-999999	0	349287	0	{RIGHTARROW}	513	349800	NA	NA	right	rrrrr.bmp	354	0	NA	0	0	0	0	NA	0	0	0	NA	0	0	0	0	NA	0	0	2	1	15
Arrow Flanker 2014	12137	1	"<?xml version=""1.0""?>\n<Clock xmlns:dt=""urn:schemas-microsoft-com:datatypes""><Description dt:dt=""string"">E-Prime Primary Realtime Clock</Description><StartTime><Timestamp dt:dt=""int"">0</Timestamp><DateUtc dt:dt=""string"">2015-03-16T16:28:08Z</DateUtc></StartTime><FrequencyChanges><FrequencyChange><Frequency dt:dt=""r8"">2825654</Frequency><Timestamp dt:dt=""r8"">698051417267</Timestamp><Current dt:dt=""r8"">0</Current><DateUtc dt:dt=""string"">2015-03-16T16:28:08Z</DateUtc></FrequencyChange></FrequencyChanges></Clock>\n"	Arrow Flanker 2014-12137-1	60.018	1.0.0.100	1	-2027705975	Professional	2.0.10.353	2.0.10.353	03-16-2015	3/16/2015 4:28:08 PM	12:28:08	2.0.10.248	3	1	1	1	NA	NA	NA	NA	NA	NA	NA	NA	NA	NA	NA	NA	NA	NA	NA	NA	NA	NA	NA	NA	NA	NA	NA	NA	BlockProc	BlockList	NA	16	{LEFTARROW}	NA	-100	1584	congruent	NA	NA	NA	NA	NA	NA	NA	NA	NA	NA	NA	NA	NA	NA	NA	NA	NA	NA	NA	NA	NA	NA	TrialProc	TrialList	0	10	352386	16	0	16	350353	933	1	{LEFTARROW}	-999999	0	351786	0	{LEFTARROW}	590	352376	NA	NA	left	lllll.bmp	354	0	NA	0	0	0	0	NA	0	0	0	NA	0	0	0	0	NA	0	0	1	1	16
Arrow Flanker 2014	12137	1	"<?xml version=""1.0""?>\n<Clock xmlns:dt=""urn:schemas-microsoft-com:datatypes""><Description dt:dt=""string"">E-Prime Primary Realtime Clock</Description><StartTime><Timestamp dt:dt=""int"">0</Timestamp><DateUtc dt:dt=""string"">2015-03-16T16:28:08Z</DateUtc></StartTime><FrequencyChanges><FrequencyChange><Frequency dt:dt=""r8"">2825654</Frequency><Timestamp dt:dt=""r8"">698051417267</Timestamp><Current dt:dt=""r8"">0</Current><DateUtc dt:dt=""string"">2015-03-16T16:28:08Z</DateUtc></FrequencyChange></FrequencyChanges></Clock>\n"	Arrow Flanker 2014-12137-1	60.018	1.0.0.100	1	-2027705975	Professional	2.0.10.353	2.0.10.353	03-16-2015	3/16/2015 4:28:08 PM	12:28:08	2.0.10.248	3	1	1	1	NA	NA	NA	NA	NA	NA	NA	NA	NA	NA	NA	NA	NA	NA	NA	NA	NA	NA	NA	NA	NA	NA	NA	NA	BlockProc	BlockList	NA	17	{LEFTARROW}	NA	-100	1590	incongruent	NA	NA	NA	NA	NA	NA	NA	NA	NA	NA	NA	NA	NA	NA	NA	NA	NA	NA	NA	NA	NA	NA	TrialProc	TrialList	1	12	355268	17	0	17	352919	950	1	{LEFTARROW}	-999999	0	354369	0	{LEFTARROW}	887	355256	NA	NA	left	rrlrr.bmp	354	0	NA	0	0	0	0	NA	0	0	0	NA	0	0	0	0	NA	0	0	3	1	17
Arrow Flanker 2014	12137	1	"<?xml version=""1.0""?>\n<Clock xmlns:dt=""urn:schemas-microsoft-com:datatypes""><Description dt:dt=""string"">E-Prime Primary Realtime Clock</Description><StartTime><Timestamp dt:dt=""int"">0</Timestamp><DateUtc dt:dt=""string"">2015-03-16T16:28:08Z</DateUtc></StartTime><FrequencyChanges><FrequencyChange><Frequency dt:dt=""r8"">2825654</Frequency><Timestamp dt:dt=""r8"">698051417267</Timestamp><Current dt:dt=""r8"">0</Current><DateUtc dt:dt=""string"">2015-03-16T16:28:08Z</DateUtc></FrequencyChange></FrequencyChanges></Clock>\n"	Arrow Flanker 2014-12137-1	60.018	1.0.0.100	1	-2027705975	Professional	2.0.10.353	2.0.10.353	03-16-2015	3/16/2015 4:28:08 PM	12:28:08	2.0.10.248	3	1	1	1	NA	NA	NA	NA	NA	NA	NA	NA	NA	NA	NA	NA	NA	NA	NA	NA	NA	NA	NA	NA	NA	NA	NA	NA	BlockProc	BlockList	NA	18	{RIGHTARROW}	NA	-100	979	congruent	NA	NA	NA	NA	NA	NA	NA	NA	NA	NA	NA	NA	NA	NA	NA	NA	NA	NA	NA	NA	NA	NA	TrialProc	TrialList	0	11	357251	17	0	17	355802	466	1	{RIGHTARROW}	-999999	0	356768	0	{RIGHTARROW}	472	357240	NA	NA	right	rrrrr.bmp	354	0	NA	0	0	0	0	NA	0	0	0	NA	0	0	0	0	NA	0	0	2	1	18
Arrow Flanker 2014	12137	1	"<?xml version=""1.0""?>\n<Clock xmlns:dt=""urn:schemas-microsoft-com:datatypes""><Description dt:dt=""string"">E-Prime Primary Realtime Clock</Description><StartTime><Timestamp dt:dt=""int"">0</Timestamp><DateUtc dt:dt=""string"">2015-03-16T16:28:08Z</DateUtc></StartTime><FrequencyChanges><FrequencyChange><Frequency dt:dt=""r8"">2825654</Frequency><Timestamp dt:dt=""r8"">698051417267</Timestamp><Current dt:dt=""r8"">0</Current><DateUtc dt:dt=""string"">2015-03-16T16:28:08Z</DateUtc></FrequencyChange></FrequencyChanges></Clock>\n"	Arrow Flanker 2014-12137-1	60.018	1.0.0.100	1	-2027705975	Professional	2.0.10.353	2.0.10.353	03-16-2015	3/16/2015 4:28:08 PM	12:28:08	2.0.10.248	3	1	1	1	NA	NA	NA	NA	NA	NA	NA	NA	NA	NA	NA	NA	NA	NA	NA	NA	NA	NA	NA	NA	NA	NA	NA	NA	BlockProc	BlockList	NA	19	{LEFTARROW}	NA	-100	1900	incongruent	NA	NA	NA	NA	NA	NA	NA	NA	NA	NA	NA	NA	NA	NA	NA	NA	NA	NA	NA	NA	NA	NA	TrialProc	TrialList	0	21	359917	17	0	16	357784	1083	1	{LEFTARROW}	-999999	0	359367	0	{LEFTARROW}	529	359896	NA	NA	left	rrlrr.bmp	354	0	NA	0	0	0	0	NA	0	0	0	NA	0	0	0	0	NA	0	0	3	1	19
Arrow Flanker 2014	12137	1	"<?xml version=""1.0""?>\n<Clock xmlns:dt=""urn:schemas-microsoft-com:datatypes""><Description dt:dt=""string"">E-Prime Primary Realtime Clock</Description><StartTime><Timestamp dt:dt=""int"">0</Timestamp><DateUtc dt:dt=""string"">2015-03-16T16:28:08Z</DateUtc></StartTime><FrequencyChanges><FrequencyChange><Frequency dt:dt=""r8"">2825654</Frequency><Timestamp dt:dt=""r8"">698051417267</Timestamp><Current dt:dt=""r8"">0</Current><DateUtc dt:dt=""string"">2015-03-16T16:28:08Z</DateUtc></FrequencyChange></FrequencyChanges></Clock>\n"	Arrow Flanker 2014-12137-1	60.018	1.0.0.100	1	-2027705975	Professional	2.0.10.353	2.0.10.353	03-16-2015	3/16/2015 4:28:08 PM	12:28:08	2.0.10.248	3	1	1	1	NA	NA	NA	NA	NA	NA	NA	NA	NA	NA	NA	NA	NA	NA	NA	NA	NA	NA	NA	NA	NA	NA	NA	NA	BlockProc	BlockList	NA	20	{RIGHTARROW}	NA	-100	1258	incongruent	NA	NA	NA	NA	NA	NA	NA	NA	NA	NA	NA	NA	NA	NA	NA	NA	NA	NA	NA	NA	NA	NA	TrialProc	TrialList	1	6	362366	17	0	16	360450	883	1	{RIGHTARROW}	-999999	0	361833	0	{RIGHTARROW}	526	362359	NA	NA	right	llrll.bmp	354	0	NA	0	0	0	0	NA	0	0	0	NA	0	0	0	0	NA	0	0	4	1	20
Arrow Flanker 2014	12137	1	"<?xml version=""1.0""?>\n<Clock xmlns:dt=""urn:schemas-microsoft-com:datatypes""><Description dt:dt=""string"">E-Prime Primary Realtime Clock</Description><StartTime><Timestamp dt:dt=""int"">0</Timestamp><DateUtc dt:dt=""string"">2015-03-16T16:28:08Z</DateUtc></StartTime><FrequencyChanges><FrequencyChange><Frequency dt:dt=""r8"">2825654</Frequency><Timestamp dt:dt=""r8"">698051417267</Timestamp><Current dt:dt=""r8"">0</Current><DateUtc dt:dt=""string"">2015-03-16T16:28:08Z</DateUtc></FrequencyChange></FrequencyChanges></Clock>\n"	Arrow Flanker 2014-12137-1	60.018	1.0.0.100	1	-2027705975	Professional	2.0.10.353	2.0.10.353	03-16-2015	3/16/2015 4:28:08 PM	12:28:08	2.0.10.248	3	1	1	1	NA	NA	NA	NA	NA	NA	NA	NA	NA	NA	NA	NA	NA	NA	NA	NA	NA	NA	NA	NA	NA	NA	NA	NA	BlockProc	BlockList	NA	21	{LEFTARROW}	NA	-100	1117	neutral	NA	NA	NA	NA	NA	NA	NA	NA	NA	NA	NA	NA	NA	NA	NA	NA	NA	NA	NA	NA	NA	NA	TrialProc	TrialList	0	11	364899	16	0	16	362899	1017	1	{LEFTARROW}	-999999	0	364416	0	{LEFTARROW}	471	364887	NA	NA	left	ooloo.bmp	354	0	NA	0	0	0	0	NA	0	0	0	NA	0	0	0	0	NA	0	0	5	1	21
Arrow Flanker 2014	12137	1	"<?xml version=""1.0""?>\n<Clock xmlns:dt=""urn:schemas-microsoft-com:datatypes""><Description dt:dt=""string"">E-Prime Primary Realtime Clock</Description><StartTime><Timestamp dt:dt=""int"">0</Timestamp><DateUtc dt:dt=""string"">2015-03-16T16:28:08Z</DateUtc></StartTime><FrequencyChanges><FrequencyChange><Frequency dt:dt=""r8"">2825654</Frequency><Timestamp dt:dt=""r8"">698051417267</Timestamp><Current dt:dt=""r8"">0</Current><DateUtc dt:dt=""string"">2015-03-16T16:28:08Z</DateUtc></FrequencyChange></FrequencyChanges></Clock>\n"	Arrow Flanker 2014-12137-1	60.018	1.0.0.100	1	-2027705975	Professional	2.0.10.353	2.0.10.353	03-16-2015	3/16/2015 4:28:08 PM	12:28:08	2.0.10.248	3	1	1	1	NA	NA	NA	NA	NA	NA	NA	NA	NA	NA	NA	NA	NA	NA	NA	NA	NA	NA	NA	NA	NA	NA	NA	NA	BlockProc	BlockList	NA	22	{RIGHTARROW}	NA	-100	1574	neutral	NA	NA	NA	NA	NA	NA	NA	NA	NA	NA	NA	NA	NA	NA	NA	NA	NA	NA	NA	NA	2	2	TrialProc	TrialList	1	6	367181	17	0	17	365432	766	1	{RIGHTARROW}	-999999	0	366698	0	{RIGHTARROW}	477	367175	NA	NA	right	ooroo.bmp	354	0	NA	-999999	17	367715	0	1	5436	373151	0	NA	-999999	11	373163	0	1	4700	377863	6	1	22
Arrow Flanker 2014	12137	1	"<?xml version=""1.0""?>\n<Clock xmlns:dt=""urn:schemas-microsoft-com:datatypes""><Description dt:dt=""string"">E-Prime Primary Realtime Clock</Description><StartTime><Timestamp dt:dt=""int"">0</Timestamp><DateUtc dt:dt=""string"">2015-03-16T16:28:08Z</DateUtc></StartTime><FrequencyChanges><FrequencyChange><Frequency dt:dt=""r8"">2825654</Frequency><Timestamp dt:dt=""r8"">698051417267</Timestamp><Current dt:dt=""r8"">0</Current><DateUtc dt:dt=""string"">2015-03-16T16:28:08Z</DateUtc></FrequencyChange></FrequencyChanges></Clock>\n"	Arrow Flanker 2014-12137-1	60.018	1.0.0.100	1	-2027705975	Professional	2.0.10.353	2.0.10.353	03-16-2015	3/16/2015 4:28:08 PM	12:28:08	2.0.10.248	3	1	1	1	NA	NA	NA	NA	NA	NA	NA	NA	NA	NA	NA	NA	NA	NA	NA	NA	NA	NA	NA	NA	NA	NA	NA	NA	BlockProc	BlockList	NA	23	{LEFTARROW}	NA	-100	893	neutral	NA	NA	NA	NA	NA	NA	NA	NA	NA	NA	NA	NA	NA	NA	NA	NA	NA	NA	NA	NA	NA	NA	TrialProc	TrialList	0	0	384310	16	0	22	381644	766	0	{LEFTARROW}	0	0	382910	1400	NA	0	0	NA	NA	left	ooloo.bmp	354	0	NA	0	0	0	0	NA	0	0	0	NA	0	0	0	0	NA	0	0	5	1	23
Arrow Flanker 2014	12137	1	"<?xml version=""1.0""?>\n<Clock xmlns:dt=""urn:schemas-microsoft-com:datatypes""><Description dt:dt=""string"">E-Prime Primary Realtime Clock</Description><StartTime><Timestamp dt:dt=""int"">0</Timestamp><DateUtc dt:dt=""string"">2015-03-16T16:28:08Z</DateUtc></StartTime><FrequencyChanges><FrequencyChange><Frequency dt:dt=""r8"">2825654</Frequency><Timestamp dt:dt=""r8"">698051417267</Timestamp><Current dt:dt=""r8"">0</Current><DateUtc dt:dt=""string"">2015-03-16T16:28:08Z</DateUtc></FrequencyChange></FrequencyChanges></Clock>\n"	Arrow Flanker 2014-12137-1	60.018	1.0.0.100	1	-2027705975	Professional	2.0.10.353	2.0.10.353	03-16-2015	3/16/2015 4:28:08 PM	12:28:08	2.0.10.248	3	1	1	1	NA	NA	NA	NA	NA	NA	NA	NA	NA	NA	NA	NA	NA	NA	NA	NA	NA	NA	NA	NA	NA	NA	NA	NA	BlockProc	BlockList	NA	24	{LEFTARROW}	NA	-100	1160	neutral	NA	NA	NA	NA	NA	NA	NA	NA	NA	NA	NA	NA	NA	NA	NA	NA	NA	NA	NA	NA	NA	NA	TrialProc	TrialList	0	10	386976	16	0	17	384843	1066	1	{LEFTARROW}	-999999	0	386409	0	{LEFTARROW}	557	386966	NA	NA	left	ooloo.bmp	354	0	NA	0	0	0	0	NA	0	0	0	NA	0	0	0	0	NA	0	0	5	1	24
Arrow Flanker 2014	12137	1	"<?xml version=""1.0""?>\n<Clock xmlns:dt=""urn:schemas-microsoft-com:datatypes""><Description dt:dt=""string"">E-Prime Primary Realtime Clock</Description><StartTime><Timestamp dt:dt=""int"">0</Timestamp><DateUtc dt:dt=""string"">2015-03-16T16:28:08Z</DateUtc></StartTime><FrequencyChanges><FrequencyChange><Frequency dt:dt=""r8"">2825654</Frequency><Timestamp dt:dt=""r8"">698051417267</Timestamp><Current dt:dt=""r8"">0</Current><DateUtc dt:dt=""string"">2015-03-16T16:28:08Z</DateUtc></FrequencyChange></FrequencyChanges></Clock>\n"	Arrow Flanker 2014-12137-1	60.018	1.0.0.100	1	-2027705975	Professional	2.0.10.353	2.0.10.353	03-16-2015	3/16/2015 4:28:08 PM	12:28:08	2.0.10.248	3	1	1	1	NA	NA	NA	NA	NA	NA	NA	NA	NA	NA	NA	NA	NA	NA	NA	NA	NA	NA	NA	NA	NA	NA	NA	NA	BlockProc	BlockList	NA	25	{LEFTARROW}	NA	-100	2647	congruent	NA	NA	NA	NA	NA	NA	NA	NA	NA	NA	NA	NA	NA	NA	NA	NA	NA	NA	NA	NA	NA	NA	TrialProc	TrialList	0	6	390108	17	0	17	387509	1583	1	{LEFTARROW}	-999999	-1	389591	0	{LEFTARROW}	511	390102	NA	NA	left	lllll.bmp	354	0	NA	0	0	0	0	NA	0	0	0	NA	0	0	0	0	NA	0	0	1	1	25
Arrow Flanker 2014	12137	1	"<?xml version=""1.0""?>\n<Clock xmlns:dt=""urn:schemas-microsoft-com:datatypes""><Description dt:dt=""string"">E-Prime Primary Realtime Clock</Description><StartTime><Timestamp dt:dt=""int"">0</Timestamp><DateUtc dt:dt=""string"">2015-03-16T16:28:08Z</DateUtc></StartTime><FrequencyChanges><FrequencyChange><Frequency dt:dt=""r8"">2825654</Frequency><Timestamp dt:dt=""r8"">698051417267</Timestamp><Current dt:dt=""r8"">0</Current><DateUtc dt:dt=""string"">2015-03-16T16:28:08Z</DateUtc></FrequencyChange></FrequencyChanges></Clock>\n"	Arrow Flanker 2014-12137-1	60.018	1.0.0.100	1	-2027705975	Professional	2.0.10.353	2.0.10.353	03-16-2015	3/16/2015 4:28:08 PM	12:28:08	2.0.10.248	3	1	1	1	NA	NA	NA	NA	NA	NA	NA	NA	NA	NA	NA	NA	NA	NA	NA	NA	NA	NA	NA	NA	NA	NA	NA	NA	BlockProc	BlockList	NA	26	{RIGHTARROW}	NA	-100	1226	neutral	NA	NA	NA	NA	NA	NA	NA	NA	NA	NA	NA	NA	NA	NA	NA	NA	NA	NA	NA	NA	NA	NA	TrialProc	TrialList	0	16	392374	17	0	16	390641	0	1	{RIGHTARROW}	-999999	0	391874	0	{RIGHTARROW}	484	392358	NA	NA	right	ooroo.bmp	354	0	NA	0	0	0	0	NA	0	0	0	NA	0	0	0	0	NA	0	0	6	1	26
Arrow Flanker 2014	12137	1	"<?xml version=""1.0""?>\n<Clock xmlns:dt=""urn:schemas-microsoft-com:datatypes""><Description dt:dt=""string"">E-Prime Primary Realtime Clock</Description><StartTime><Timestamp dt:dt=""int"">0</Timestamp><DateUtc dt:dt=""string"">2015-03-16T16:28:08Z</DateUtc></StartTime><FrequencyChanges><FrequencyChange><Frequency dt:dt=""r8"">2825654</Frequency><Timestamp dt:dt=""r8"">698051417267</Timestamp><Current dt:dt=""r8"">0</Current><DateUtc dt:dt=""string"">2015-03-16T16:28:08Z</DateUtc></FrequencyChange></FrequencyChanges></Clock>\n"	Arrow Flanker 2014-12137-1	60.018	1.0.0.100	1	-2027705975	Professional	2.0.10.353	2.0.10.353	03-16-2015	3/16/2015 4:28:08 PM	12:28:08	2.0.10.248	3	1	1	1	NA	NA	NA	NA	NA	NA	NA	NA	NA	NA	NA	NA	NA	NA	NA	NA	NA	NA	NA	NA	NA	NA	NA	NA	BlockProc	BlockList	NA	27	{LEFTARROW}	NA	-100	1551	neutral	NA	NA	NA	NA	NA	NA	NA	NA	NA	NA	NA	NA	NA	NA	NA	NA	NA	NA	NA	NA	NA	NA	TrialProc	TrialList	1	13	394723	17	0	16	392907	0	1	{LEFTARROW}	-999999	-1	394173	0	{LEFTARROW}	537	394710	NA	NA	left	ooloo.bmp	354	0	NA	0	0	0	0	NA	0	0	0	NA	0	0	0	0	NA	0	0	5	1	27
Arrow Flanker 2014	12137	1	"<?xml version=""1.0""?>\n<Clock xmlns:dt=""urn:schemas-microsoft-com:datatypes""><Description dt:dt=""string"">E-Prime Primary Realtime Clock</Description><StartTime><Timestamp dt:dt=""int"">0</Timestamp><DateUtc dt:dt=""string"">2015-03-16T16:28:08Z</DateUtc></StartTime><FrequencyChanges><FrequencyChange><Frequency dt:dt=""r8"">2825654</Frequency><Timestamp dt:dt=""r8"">698051417267</Timestamp><Current dt:dt=""r8"">0</Current><DateUtc dt:dt=""string"">2015-03-16T16:28:08Z</DateUtc></FrequencyChange></FrequencyChanges></Clock>\n"	Arrow Flanker 2014-12137-1	60.018	1.0.0.100	1	-2027705975	Professional	2.0.10.353	2.0.10.353	03-16-2015	3/16/2015 4:28:08 PM	12:28:08	2.0.10.248	3	1	1	1	NA	NA	NA	NA	NA	NA	NA	NA	NA	NA	NA	NA	NA	NA	NA	NA	NA	NA	NA	NA	NA	NA	NA	NA	BlockProc	BlockList	NA	28	{RIGHTARROW}	NA	-100	1560	congruent	NA	NA	NA	NA	NA	NA	NA	NA	NA	NA	NA	NA	NA	NA	NA	NA	NA	NA	NA	NA	NA	NA	TrialProc	TrialList	0	19	397273	16	0	16	395256	0	1	{RIGHTARROW}	-999999	0	396823	0	{RIGHTARROW}	430	397253	NA	NA	right	rrrrr.bmp	354	0	NA	0	0	0	0	NA	0	0	0	NA	0	0	0	0	NA	0	0	2	1	28
Arrow Flanker 2014	12137	1	"<?xml version=""1.0""?>\n<Clock xmlns:dt=""urn:schemas-microsoft-com:datatypes""><Description dt:dt=""string"">E-Prime Primary Realtime Clock</Description><StartTime><Timestamp dt:dt=""int"">0</Timestamp><DateUtc dt:dt=""string"">2015-03-16T16:28:08Z</DateUtc></StartTime><FrequencyChanges><FrequencyChange><Frequency dt:dt=""r8"">2825654</Frequency><Timestamp dt:dt=""r8"">698051417267</Timestamp><Current dt:dt=""r8"">0</Current><DateUtc dt:dt=""string"">2015-03-16T16:28:08Z</DateUtc></FrequencyChange></FrequencyChanges></Clock>\n"	Arrow Flanker 2014-12137-1	60.018	1.0.0.100	1	-2027705975	Professional	2.0.10.353	2.0.10.353	03-16-2015	3/16/2015 4:28:08 PM	12:28:08	2.0.10.248	3	1	1	1	NA	NA	NA	NA	NA	NA	NA	NA	NA	NA	NA	NA	NA	NA	NA	NA	NA	NA	NA	NA	NA	NA	NA	NA	BlockProc	BlockList	NA	29	{LEFTARROW}	NA	-100	1408	neutral	NA	NA	NA	NA	NA	NA	NA	NA	NA	NA	NA	NA	NA	NA	NA	NA	NA	NA	NA	NA	NA	NA	TrialProc	TrialList	0	15	399189	16	0	17	397806	0	1	{LEFTARROW}	-999999	0	398722	0	{LEFTARROW}	451	399173	NA	NA	left	ooloo.bmp	354	0	NA	0	0	0	0	NA	0	0	0	NA	0	0	0	0	NA	0	0	5	1	29
Arrow Flanker 2014	12137	1	"<?xml version=""1.0""?>\n<Clock xmlns:dt=""urn:schemas-microsoft-com:datatypes""><Description dt:dt=""string"">E-Prime Primary Realtime Clock</Description><StartTime><Timestamp dt:dt=""int"">0</Timestamp><DateUtc dt:dt=""string"">2015-03-16T16:28:08Z</DateUtc></StartTime><FrequencyChanges><FrequencyChange><Frequency dt:dt=""r8"">2825654</Frequency><Timestamp dt:dt=""r8"">698051417267</Timestamp><Current dt:dt=""r8"">0</Current><DateUtc dt:dt=""string"">2015-03-16T16:28:08Z</DateUtc></FrequencyChange></FrequencyChanges></Clock>\n"	Arrow Flanker 2014-12137-1	60.018	1.0.0.100	1	-2027705975	Professional	2.0.10.353	2.0.10.353	03-16-2015	3/16/2015 4:28:08 PM	12:28:08	2.0.10.248	3	1	1	1	NA	NA	NA	NA	NA	NA	NA	NA	NA	NA	NA	NA	NA	NA	NA	NA	NA	NA	NA	NA	NA	NA	NA	NA	BlockProc	BlockList	NA	30	{RIGHTARROW}	NA	-100	2239	incongruent	NA	NA	NA	NA	NA	NA	NA	NA	NA	NA	NA	NA	NA	NA	NA	NA	NA	NA	NA	NA	NA	NA	TrialProc	TrialList	1	5	402154	17	0	17	399722	0	1	{RIGHTARROW}	-999999	0	401588	0	{RIGHTARROW}	561	402149	NA	NA	right	llrll.bmp	354	0	NA	0	0	0	0	NA	0	0	0	NA	0	0	0	0	NA	0	0	4	1	30
Arrow Flanker 2014	12137	1	"<?xml version=""1.0""?>\n<Clock xmlns:dt=""urn:schemas-microsoft-com:datatypes""><Description dt:dt=""string"">E-Prime Primary Realtime Clock</Description><StartTime><Timestamp dt:dt=""int"">0</Timestamp><DateUtc dt:dt=""string"">2015-03-16T16:28:08Z</DateUtc></StartTime><FrequencyChanges><FrequencyChange><Frequency dt:dt=""r8"">2825654</Frequency><Timestamp dt:dt=""r8"">698051417267</Timestamp><Current dt:dt=""r8"">0</Current><DateUtc dt:dt=""string"">2015-03-16T16:28:08Z</DateUtc></FrequencyChange></FrequencyChanges></Clock>\n"	Arrow Flanker 2014-12137-1	60.018	1.0.0.100	1	-2027705975	Professional	2.0.10.353	2.0.10.353	03-16-2015	3/16/2015 4:28:08 PM	12:28:08	2.0.10.248	3	1	1	1	NA	NA	NA	NA	NA	NA	NA	NA	NA	NA	NA	NA	NA	NA	NA	NA	NA	NA	NA	NA	NA	NA	NA	NA	BlockProc	BlockList	NA	31	{RIGHTARROW}	NA	-100	1516	incongruent	NA	NA	NA	NA	NA	NA	NA	NA	NA	NA	NA	NA	NA	NA	NA	NA	NA	NA	NA	NA	NA	NA	TrialProc	TrialList	0	13	404354	17	0	17	402688	0	1	{RIGHTARROW}	-999999	0	403804	0	{RIGHTARROW}	537	404341	NA	NA	right	llrll.bmp	354	0	NA	0	0	0	0	NA	0	0	0	NA	0	0	0	0	NA	0	0	4	1	31
Arrow Flanker 2014	12137	1	"<?xml version=""1.0""?>\n<Clock xmlns:dt=""urn:schemas-microsoft-com:datatypes""><Description dt:dt=""string"">E-Prime Primary Realtime Clock</Description><StartTime><Timestamp dt:dt=""int"">0</Timestamp><DateUtc dt:dt=""string"">2015-03-16T16:28:08Z</DateUtc></StartTime><FrequencyChanges><FrequencyChange><Frequency dt:dt=""r8"">2825654</Frequency><Timestamp dt:dt=""r8"">698051417267</Timestamp><Current dt:dt=""r8"">0</Current><DateUtc dt:dt=""string"">2015-03-16T16:28:08Z</DateUtc></FrequencyChange></FrequencyChanges></Clock>\n"	Arrow Flanker 2014-12137-1	60.018	1.0.0.100	1	-2027705975	Professional	2.0.10.353	2.0.10.353	03-16-2015	3/16/2015 4:28:08 PM	12:28:08	2.0.10.248	3	1	1	1	NA	NA	NA	NA	NA	NA	NA	NA	NA	NA	NA	NA	NA	NA	NA	NA	NA	NA	NA	NA	NA	NA	NA	NA	BlockProc	BlockList	NA	32	{RIGHTARROW}	NA	-100	1151	incongruent	NA	NA	NA	NA	NA	NA	NA	NA	NA	NA	NA	NA	NA	NA	NA	NA	NA	NA	NA	NA	NA	NA	TrialProc	TrialList	1	19	406936	17	0	16	404887	0	1	{RIGHTARROW}	-999999	0	406353	0	{RIGHTARROW}	564	406917	NA	NA	right	llrll.bmp	354	0	NA	0	0	0	0	NA	0	0	0	NA	0	0	0	0	NA	0	0	4	1	32
Arrow Flanker 2014	12137	1	"<?xml version=""1.0""?>\n<Clock xmlns:dt=""urn:schemas-microsoft-com:datatypes""><Description dt:dt=""string"">E-Prime Primary Realtime Clock</Description><StartTime><Timestamp dt:dt=""int"">0</Timestamp><DateUtc dt:dt=""string"">2015-03-16T16:28:08Z</DateUtc></StartTime><FrequencyChanges><FrequencyChange><Frequency dt:dt=""r8"">2825654</Frequency><Timestamp dt:dt=""r8"">698051417267</Timestamp><Current dt:dt=""r8"">0</Current><DateUtc dt:dt=""string"">2015-03-16T16:28:08Z</DateUtc></FrequencyChange></FrequencyChanges></Clock>\n"	Arrow Flanker 2014-12137-1	60.018	1.0.0.100	1	-2027705975	Professional	2.0.10.353	2.0.10.353	03-16-2015	3/16/2015 4:28:08 PM	12:28:08	2.0.10.248	3	1	1	1	NA	NA	NA	NA	NA	NA	NA	NA	NA	NA	NA	NA	NA	NA	NA	NA	NA	NA	NA	NA	NA	NA	NA	NA	BlockProc	BlockList	NA	33	{RIGHTARROW}	NA	-100	1569	incongruent	NA	NA	NA	NA	NA	NA	NA	NA	NA	NA	NA	NA	NA	NA	NA	NA	NA	NA	NA	NA	NA	NA	TrialProc	TrialList	1	9	409102	17	0	17	407470	0	1	{RIGHTARROW}	-999999	0	408569	0	{RIGHTARROW}	524	409093	NA	NA	right	llrll.bmp	354	0	NA	0	0	0	0	NA	0	0	0	NA	0	0	0	0	NA	0	0	4	1	33
Arrow Flanker 2014	12137	1	"<?xml version=""1.0""?>\n<Clock xmlns:dt=""urn:schemas-microsoft-com:datatypes""><Description dt:dt=""string"">E-Prime Primary Realtime Clock</Description><StartTime><Timestamp dt:dt=""int"">0</Timestamp><DateUtc dt:dt=""string"">2015-03-16T16:28:08Z</DateUtc></StartTime><FrequencyChanges><FrequencyChange><Frequency dt:dt=""r8"">2825654</Frequency><Timestamp dt:dt=""r8"">698051417267</Timestamp><Current dt:dt=""r8"">0</Current><DateUtc dt:dt=""string"">2015-03-16T16:28:08Z</DateUtc></FrequencyChange></FrequencyChanges></Clock>\n"	Arrow Flanker 2014-12137-1	60.018	1.0.0.100	1	-2027705975	Professional	2.0.10.353	2.0.10.353	03-16-2015	3/16/2015 4:28:08 PM	12:28:08	2.0.10.248	3	1	1	1	NA	NA	NA	NA	NA	NA	NA	NA	NA	NA	NA	NA	NA	NA	NA	NA	NA	NA	NA	NA	NA	NA	NA	NA	BlockProc	BlockList	NA	34	{LEFTARROW}	NA	-100	2044	incongruent	NA	NA	NA	NA	NA	NA	NA	NA	NA	NA	NA	NA	NA	NA	NA	NA	NA	NA	NA	NA	NA	NA	TrialProc	TrialList	0	5	412202	16	0	17	409636	0	1	{LEFTARROW}	-999999	0	411702	0	{LEFTARROW}	495	412197	NA	NA	left	rrlrr.bmp	354	0	NA	0	0	0	0	NA	0	0	0	NA	0	0	0	0	NA	0	0	3	1	34
Arrow Flanker 2014	12137	1	"<?xml version=""1.0""?>\n<Clock xmlns:dt=""urn:schemas-microsoft-com:datatypes""><Description dt:dt=""string"">E-Prime Primary Realtime Clock</Description><StartTime><Timestamp dt:dt=""int"">0</Timestamp><DateUtc dt:dt=""string"">2015-03-16T16:28:08Z</DateUtc></StartTime><FrequencyChanges><FrequencyChange><Frequency dt:dt=""r8"">2825654</Frequency><Timestamp dt:dt=""r8"">698051417267</Timestamp><Current dt:dt=""r8"">0</Current><DateUtc dt:dt=""string"">2015-03-16T16:28:08Z</DateUtc></FrequencyChange></FrequencyChanges></Clock>\n"	Arrow Flanker 2014-12137-1	60.018	1.0.0.100	1	-2027705975	Professional	2.0.10.353	2.0.10.353	03-16-2015	3/16/2015 4:28:08 PM	12:28:08	2.0.10.248	3	1	1	1	NA	NA	NA	NA	NA	NA	NA	NA	NA	NA	NA	NA	NA	NA	NA	NA	NA	NA	NA	NA	NA	NA	NA	NA	BlockProc	BlockList	NA	35	{RIGHTARROW}	NA	-100	620	neutral	NA	NA	NA	NA	NA	NA	NA	NA	NA	NA	NA	NA	NA	NA	NA	NA	NA	NA	NA	NA	NA	NA	TrialProc	TrialList	1	9	414334	17	0	17	412735	0	1	{RIGHTARROW}	-999999	0	413851	0	{RIGHTARROW}	473	414324	NA	NA	right	ooroo.bmp	354	0	NA	0	0	0	0	NA	0	0	0	NA	0	0	0	0	NA	0	0	6	1	35
Arrow Flanker 2014	12137	1	"<?xml version=""1.0""?>\n<Clock xmlns:dt=""urn:schemas-microsoft-com:datatypes""><Description dt:dt=""string"">E-Prime Primary Realtime Clock</Description><StartTime><Timestamp dt:dt=""int"">0</Timestamp><DateUtc dt:dt=""string"">2015-03-16T16:28:08Z</DateUtc></StartTime><FrequencyChanges><FrequencyChange><Frequency dt:dt=""r8"">2825654</Frequency><Timestamp dt:dt=""r8"">698051417267</Timestamp><Current dt:dt=""r8"">0</Current><DateUtc dt:dt=""string"">2015-03-16T16:28:08Z</DateUtc></FrequencyChange></FrequencyChanges></Clock>\n"	Arrow Flanker 2014-12137-1	60.018	1.0.0.100	1	-2027705975	Professional	2.0.10.353	2.0.10.353	03-16-2015	3/16/2015 4:28:08 PM	12:28:08	2.0.10.248	3	1	1	1	NA	NA	NA	NA	NA	NA	NA	NA	NA	NA	NA	NA	NA	NA	NA	NA	NA	NA	NA	NA	NA	NA	NA	NA	BlockProc	BlockList	NA	36	{LEFTARROW}	NA	-100	1819	incongruent	NA	NA	NA	NA	NA	NA	NA	NA	NA	NA	NA	NA	NA	NA	NA	NA	NA	NA	NA	NA	NA	NA	TrialProc	TrialList	1	10	416783	17	0	16	414867	0	1	{LEFTARROW}	-999999	0	416317	0	{LEFTARROW}	455	416772	NA	NA	left	rrlrr.bmp	354	0	NA	0	0	0	0	NA	0	0	0	NA	0	0	0	0	NA	0	0	3	1	36
Arrow Flanker 2014	12137	1	"<?xml version=""1.0""?>\n<Clock xmlns:dt=""urn:schemas-microsoft-com:datatypes""><Description dt:dt=""string"">E-Prime Primary Realtime Clock</Description><StartTime><Timestamp dt:dt=""int"">0</Timestamp><DateUtc dt:dt=""string"">2015-03-16T16:28:08Z</DateUtc></StartTime><FrequencyChanges><FrequencyChange><Frequency dt:dt=""r8"">2825654</Frequency><Timestamp dt:dt=""r8"">698051417267</Timestamp><Current dt:dt=""r8"">0</Current><DateUtc dt:dt=""string"">2015-03-16T16:28:08Z</DateUtc></FrequencyChange></FrequencyChanges></Clock>\n"	Arrow Flanker 2014-12137-1	60.018	1.0.0.100	1	-2027705975	Professional	2.0.10.353	2.0.10.353	03-16-2015	3/16/2015 4:28:08 PM	12:28:08	2.0.10.248	3	1	1	1	NA	NA	NA	NA	NA	NA	NA	NA	NA	NA	NA	NA	NA	NA	NA	NA	NA	NA	NA	NA	NA	NA	NA	NA	BlockProc	BlockList	NA	37	{RIGHTARROW}	NA	-100	1417	incongruent	NA	NA	NA	NA	NA	NA	NA	NA	NA	NA	NA	NA	NA	NA	NA	NA	NA	NA	NA	NA	2	2	TrialProc	TrialList	0	13	419233	16	0	17	417317	0	1	{RIGHTARROW}	-999999	0	418633	0	{RIGHTARROW}	587	419220	NA	NA	right	llrll.bmp	354	0	NA	-999999	17	419766	0	1	8526	428292	0	NA	-999999	21	428313	0	1	1891	430204	4	1	37
Arrow Flanker 2014	12137	1	"<?xml version=""1.0""?>\n<Clock xmlns:dt=""urn:schemas-microsoft-com:datatypes""><Description dt:dt=""string"">E-Prime Primary Realtime Clock</Description><StartTime><Timestamp dt:dt=""int"">0</Timestamp><DateUtc dt:dt=""string"">2015-03-16T16:28:08Z</DateUtc></StartTime><FrequencyChanges><FrequencyChange><Frequency dt:dt=""r8"">2825654</Frequency><Timestamp dt:dt=""r8"">698051417267</Timestamp><Current dt:dt=""r8"">0</Current><DateUtc dt:dt=""string"">2015-03-16T16:28:08Z</DateUtc></FrequencyChange></FrequencyChanges></Clock>\n"	Arrow Flanker 2014-12137-1	60.018	1.0.0.100	1	-2027705975	Professional	2.0.10.353	2.0.10.353	03-16-2015	3/16/2015 4:28:08 PM	12:28:08	2.0.10.248	3	1	1	1	NA	NA	NA	NA	NA	NA	NA	NA	NA	NA	NA	NA	NA	NA	NA	NA	NA	NA	NA	NA	NA	NA	NA	NA	BlockProc	BlockList	NA	38	{LEFTARROW}	NA	-100	2292	neutral	NA	NA	NA	NA	NA	NA	NA	NA	NA	NA	NA	NA	NA	NA	NA	NA	NA	NA	NA	NA	NA	NA	TrialProc	TrialList	1	5	435112	16	0	12	432496	0	1	{LEFTARROW}	-999999	0	434578	0	{LEFTARROW}	529	435107	NA	NA	left	ooloo.bmp	354	0	NA	0	0	0	0	NA	0	0	0	NA	0	0	0	0	NA	0	0	5	1	38
Arrow Flanker 2014	12137	1	"<?xml version=""1.0""?>\n<Clock xmlns:dt=""urn:schemas-microsoft-com:datatypes""><Description dt:dt=""string"">E-Prime Primary Realtime Clock</Description><StartTime><Timestamp dt:dt=""int"">0</Timestamp><DateUtc dt:dt=""string"">2015-03-16T16:28:08Z</DateUtc></StartTime><FrequencyChanges><FrequencyChange><Frequency dt:dt=""r8"">2825654</Frequency><Timestamp dt:dt=""r8"">698051417267</Timestamp><Current dt:dt=""r8"">0</Current><DateUtc dt:dt=""string"">2015-03-16T16:28:08Z</DateUtc></FrequencyChange></FrequencyChanges></Clock>\n"	Arrow Flanker 2014-12137-1	60.018	1.0.0.100	1	-2027705975	Professional	2.0.10.353	2.0.10.353	03-16-2015	3/16/2015 4:28:08 PM	12:28:08	2.0.10.248	3	1	1	1	NA	NA	NA	NA	NA	NA	NA	NA	NA	NA	NA	NA	NA	NA	NA	NA	NA	NA	NA	NA	NA	NA	NA	NA	BlockProc	BlockList	NA	39	{RIGHTARROW}	NA	-100	942	neutral	NA	NA	NA	NA	NA	NA	NA	NA	NA	NA	NA	NA	NA	NA	NA	NA	NA	NA	NA	NA	NA	NA	TrialProc	TrialList	0	18	437461	16	0	17	435645	0	1	{RIGHTARROW}	-999999	0	437044	0	{RIGHTARROW}	399	437443	NA	NA	right	ooroo.bmp	354	0	NA	0	0	0	0	NA	0	0	0	NA	0	0	0	0	NA	0	0	6	1	39
Arrow Flanker 2014	12137	1	"<?xml version=""1.0""?>\n<Clock xmlns:dt=""urn:schemas-microsoft-com:datatypes""><Description dt:dt=""string"">E-Prime Primary Realtime Clock</Description><StartTime><Timestamp dt:dt=""int"">0</Timestamp><DateUtc dt:dt=""string"">2015-03-16T16:28:08Z</DateUtc></StartTime><FrequencyChanges><FrequencyChange><Frequency dt:dt=""r8"">2825654</Frequency><Timestamp dt:dt=""r8"">698051417267</Timestamp><Current dt:dt=""r8"">0</Current><DateUtc dt:dt=""string"">2015-03-16T16:28:08Z</DateUtc></FrequencyChange></FrequencyChanges></Clock>\n"	Arrow Flanker 2014-12137-1	60.018	1.0.0.100	1	-2027705975	Professional	2.0.10.353	2.0.10.353	03-16-2015	3/16/2015 4:28:08 PM	12:28:08	2.0.10.248	3	1	1	1	NA	NA	NA	NA	NA	NA	NA	NA	NA	NA	NA	NA	NA	NA	NA	NA	NA	NA	NA	NA	NA	NA	NA	NA	BlockProc	BlockList	NA	40	{LEFTARROW}	NA	-100	1252	congruent	NA	NA	NA	NA	NA	NA	NA	NA	NA	NA	NA	NA	NA	NA	NA	NA	NA	NA	NA	NA	NA	NA	TrialProc	TrialList	1	6	439993	17	0	17	437994	0	1	{LEFTARROW}	-999999	16	439460	0	{LEFTARROW}	527	439987	NA	NA	left	lllll.bmp	354	0	NA	0	0	0	0	NA	0	0	0	NA	0	0	0	0	NA	0	0	1	1	40
Arrow Flanker 2014	12137	1	"<?xml version=""1.0""?>\n<Clock xmlns:dt=""urn:schemas-microsoft-com:datatypes""><Description dt:dt=""string"">E-Prime Primary Realtime Clock</Description><StartTime><Timestamp dt:dt=""int"">0</Timestamp><DateUtc dt:dt=""string"">2015-03-16T16:28:08Z</DateUtc></StartTime><FrequencyChanges><FrequencyChange><Frequency dt:dt=""r8"">2825654</Frequency><Timestamp dt:dt=""r8"">698051417267</Timestamp><Current dt:dt=""r8"">0</Current><DateUtc dt:dt=""string"">2015-03-16T16:28:08Z</DateUtc></FrequencyChange></FrequencyChanges></Clock>\n"	Arrow Flanker 2014-12137-1	60.018	1.0.0.100	1	-2027705975	Professional	2.0.10.353	2.0.10.353	03-16-2015	3/16/2015 4:28:08 PM	12:28:08	2.0.10.248	3	1	1	1	NA	NA	NA	NA	NA	NA	NA	NA	NA	NA	NA	NA	NA	NA	NA	NA	NA	NA	NA	NA	NA	NA	NA	NA	BlockProc	BlockList	NA	41	{RIGHTARROW}	NA	-100	2604	incongruent	NA	NA	NA	NA	NA	NA	NA	NA	NA	NA	NA	NA	NA	NA	NA	NA	NA	NA	NA	NA	NA	NA	TrialProc	TrialList	0	10	443309	17	0	17	440527	0	1	{RIGHTARROW}	-999999	0	442526	0	{RIGHTARROW}	773	443299	NA	NA	right	llrll.bmp	354	0	NA	0	0	0	0	NA	0	0	0	NA	0	0	0	0	NA	0	0	4	1	41
Arrow Flanker 2014	12137	1	"<?xml version=""1.0""?>\n<Clock xmlns:dt=""urn:schemas-microsoft-com:datatypes""><Description dt:dt=""string"">E-Prime Primary Realtime Clock</Description><StartTime><Timestamp dt:dt=""int"">0</Timestamp><DateUtc dt:dt=""string"">2015-03-16T16:28:08Z</DateUtc></StartTime><FrequencyChanges><FrequencyChange><Frequency dt:dt=""r8"">2825654</Frequency><Timestamp dt:dt=""r8"">698051417267</Timestamp><Current dt:dt=""r8"">0</Current><DateUtc dt:dt=""string"">2015-03-16T16:28:08Z</DateUtc></FrequencyChange></FrequencyChanges></Clock>\n"	Arrow Flanker 2014-12137-1	60.018	1.0.0.100	1	-2027705975	Professional	2.0.10.353	2.0.10.353	03-16-2015	3/16/2015 4:28:08 PM	12:28:08	2.0.10.248	3	1	1	1	NA	NA	NA	NA	NA	NA	NA	NA	NA	NA	NA	NA	NA	NA	NA	NA	NA	NA	NA	NA	NA	NA	NA	NA	BlockProc	BlockList	NA	42	{RIGHTARROW}	NA	-100	839	congruent	NA	NA	NA	NA	NA	NA	NA	NA	NA	NA	NA	NA	NA	NA	NA	NA	NA	NA	NA	NA	NA	NA	TrialProc	TrialList	1	13	445808	17	0	16	443842	0	1	{RIGHTARROW}	-999999	0	445092	0	{RIGHTARROW}	703	445795	NA	NA	right	rrrrr.bmp	354	0	NA	0	0	0	0	NA	0	0	0	NA	0	0	0	0	NA	0	0	2	1	42
Arrow Flanker 2014	12137	1	"<?xml version=""1.0""?>\n<Clock xmlns:dt=""urn:schemas-microsoft-com:datatypes""><Description dt:dt=""string"">E-Prime Primary Realtime Clock</Description><StartTime><Timestamp dt:dt=""int"">0</Timestamp><DateUtc dt:dt=""string"">2015-03-16T16:28:08Z</DateUtc></StartTime><FrequencyChanges><FrequencyChange><Frequency dt:dt=""r8"">2825654</Frequency><Timestamp dt:dt=""r8"">698051417267</Timestamp><Current dt:dt=""r8"">0</Current><DateUtc dt:dt=""string"">2015-03-16T16:28:08Z</DateUtc></FrequencyChange></FrequencyChanges></Clock>\n"	Arrow Flanker 2014-12137-1	60.018	1.0.0.100	1	-2027705975	Professional	2.0.10.353	2.0.10.353	03-16-2015	3/16/2015 4:28:08 PM	12:28:08	2.0.10.248	3	1	1	1	NA	NA	NA	NA	NA	NA	NA	NA	NA	NA	NA	NA	NA	NA	NA	NA	NA	NA	NA	NA	NA	NA	NA	NA	BlockProc	BlockList	NA	43	{RIGHTARROW}	NA	-100	1611	neutral	NA	NA	NA	NA	NA	NA	NA	NA	NA	NA	NA	NA	NA	NA	NA	NA	NA	NA	NA	NA	NA	NA	TrialProc	TrialList	0	11	448174	17	0	16	446341	0	1	{RIGHTARROW}	-999999	0	447641	0	{RIGHTARROW}	521	448162	NA	NA	right	ooroo.bmp	354	0	NA	0	0	0	0	NA	0	0	0	NA	0	0	0	0	NA	0	0	6	1	43
Arrow Flanker 2014	12137	1	"<?xml version=""1.0""?>\n<Clock xmlns:dt=""urn:schemas-microsoft-com:datatypes""><Description dt:dt=""string"">E-Prime Primary Realtime Clock</Description><StartTime><Timestamp dt:dt=""int"">0</Timestamp><DateUtc dt:dt=""string"">2015-03-16T16:28:08Z</DateUtc></StartTime><FrequencyChanges><FrequencyChange><Frequency dt:dt=""r8"">2825654</Frequency><Timestamp dt:dt=""r8"">698051417267</Timestamp><Current dt:dt=""r8"">0</Current><DateUtc dt:dt=""string"">2015-03-16T16:28:08Z</DateUtc></FrequencyChange></FrequencyChanges></Clock>\n"	Arrow Flanker 2014-12137-1	60.018	1.0.0.100	1	-2027705975	Professional	2.0.10.353	2.0.10.353	03-16-2015	3/16/2015 4:28:08 PM	12:28:08	2.0.10.248	3	1	1	1	NA	NA	NA	NA	NA	NA	NA	NA	NA	NA	NA	NA	NA	NA	NA	NA	NA	NA	NA	NA	NA	NA	NA	NA	BlockProc	BlockList	NA	44	{LEFTARROW}	NA	-100	1970	congruent	NA	NA	NA	NA	NA	NA	NA	NA	NA	NA	NA	NA	NA	NA	NA	NA	NA	NA	NA	NA	NA	NA	TrialProc	TrialList	1	16	451123	17	0	16	448707	0	1	{LEFTARROW}	-999999	0	450507	0	{LEFTARROW}	599	451106	NA	NA	left	lllll.bmp	354	0	NA	0	0	0	0	NA	0	0	0	NA	0	0	0	0	NA	0	0	1	1	44
Arrow Flanker 2014	12137	1	"<?xml version=""1.0""?>\n<Clock xmlns:dt=""urn:schemas-microsoft-com:datatypes""><Description dt:dt=""string"">E-Prime Primary Realtime Clock</Description><StartTime><Timestamp dt:dt=""int"">0</Timestamp><DateUtc dt:dt=""string"">2015-03-16T16:28:08Z</DateUtc></StartTime><FrequencyChanges><FrequencyChange><Frequency dt:dt=""r8"">2825654</Frequency><Timestamp dt:dt=""r8"">698051417267</Timestamp><Current dt:dt=""r8"">0</Current><DateUtc dt:dt=""string"">2015-03-16T16:28:08Z</DateUtc></FrequencyChange></FrequencyChanges></Clock>\n"	Arrow Flanker 2014-12137-1	60.018	1.0.0.100	1	-2027705975	Professional	2.0.10.353	2.0.10.353	03-16-2015	3/16/2015 4:28:08 PM	12:28:08	2.0.10.248	3	1	1	1	NA	NA	NA	NA	NA	NA	NA	NA	NA	NA	NA	NA	NA	NA	NA	NA	NA	NA	NA	NA	NA	NA	NA	NA	BlockProc	BlockList	NA	45	{LEFTARROW}	NA	-100	1942	neutral	NA	NA	NA	NA	NA	NA	NA	NA	NA	NA	NA	NA	NA	NA	NA	NA	NA	NA	NA	NA	NA	NA	TrialProc	TrialList	0	20	453606	17	0	16	451656	0	1	{LEFTARROW}	-999999	0	453073	0	{LEFTARROW}	513	453586	NA	NA	left	ooloo.bmp	354	0	NA	0	0	0	0	NA	0	0	0	NA	0	0	0	0	NA	0	0	5	1	45
Arrow Flanker 2014	12137	1	"<?xml version=""1.0""?>\n<Clock xmlns:dt=""urn:schemas-microsoft-com:datatypes""><Description dt:dt=""string"">E-Prime Primary Realtime Clock</Description><StartTime><Timestamp dt:dt=""int"">0</Timestamp><DateUtc dt:dt=""string"">2015-03-16T16:28:08Z</DateUtc></StartTime><FrequencyChanges><FrequencyChange><Frequency dt:dt=""r8"">2825654</Frequency><Timestamp dt:dt=""r8"">698051417267</Timestamp><Current dt:dt=""r8"">0</Current><DateUtc dt:dt=""string"">2015-03-16T16:28:08Z</DateUtc></FrequencyChange></FrequencyChanges></Clock>\n"	Arrow Flanker 2014-12137-1	60.018	1.0.0.100	1	-2027705975	Professional	2.0.10.353	2.0.10.353	03-16-2015	3/16/2015 4:28:08 PM	12:28:08	2.0.10.248	3	1	1	1	NA	NA	NA	NA	NA	NA	NA	NA	NA	NA	NA	NA	NA	NA	NA	NA	NA	NA	NA	NA	NA	NA	NA	NA	BlockProc	BlockList	NA	46	{RIGHTARROW}	NA	-100	1391	neutral	NA	NA	NA	NA	NA	NA	NA	NA	NA	NA	NA	NA	NA	NA	NA	NA	NA	NA	NA	NA	NA	NA	TrialProc	TrialList	0	7	455689	16	0	16	454139	0	1	{RIGHTARROW}	-999999	0	455222	0	{RIGHTARROW}	460	455682	NA	NA	right	ooroo.bmp	354	0	NA	0	0	0	0	NA	0	0	0	NA	0	0	0	0	NA	0	0	6	1	46
Arrow Flanker 2014	12137	1	"<?xml version=""1.0""?>\n<Clock xmlns:dt=""urn:schemas-microsoft-com:datatypes""><Description dt:dt=""string"">E-Prime Primary Realtime Clock</Description><StartTime><Timestamp dt:dt=""int"">0</Timestamp><DateUtc dt:dt=""string"">2015-03-16T16:28:08Z</DateUtc></StartTime><FrequencyChanges><FrequencyChange><Frequency dt:dt=""r8"">2825654</Frequency><Timestamp dt:dt=""r8"">698051417267</Timestamp><Current dt:dt=""r8"">0</Current><DateUtc dt:dt=""string"">2015-03-16T16:28:08Z</DateUtc></FrequencyChange></FrequencyChanges></Clock>\n"	Arrow Flanker 2014-12137-1	60.018	1.0.0.100	1	-2027705975	Professional	2.0.10.353	2.0.10.353	03-16-2015	3/16/2015 4:28:08 PM	12:28:08	2.0.10.248	3	1	1	1	NA	NA	NA	NA	NA	NA	NA	NA	NA	NA	NA	NA	NA	NA	NA	NA	NA	NA	NA	NA	NA	NA	NA	NA	BlockProc	BlockList	NA	47	{RIGHTARROW}	NA	-100	1628	congruent	NA	NA	NA	NA	NA	NA	NA	NA	NA	NA	NA	NA	NA	NA	NA	NA	NA	NA	NA	NA	NA	NA	TrialProc	TrialList	0	14	457888	17	0	17	456222	0	1	{RIGHTARROW}	-999999	0	457305	0	{RIGHTARROW}	569	457874	NA	NA	right	rrrrr.bmp	354	0	NA	0	0	0	0	NA	0	0	0	NA	0	0	0	0	NA	0	0	2	1	47
Arrow Flanker 2014	12137	1	"<?xml version=""1.0""?>\n<Clock xmlns:dt=""urn:schemas-microsoft-com:datatypes""><Description dt:dt=""string"">E-Prime Primary Realtime Clock</Description><StartTime><Timestamp dt:dt=""int"">0</Timestamp><DateUtc dt:dt=""string"">2015-03-16T16:28:08Z</DateUtc></StartTime><FrequencyChanges><FrequencyChange><Frequency dt:dt=""r8"">2825654</Frequency><Timestamp dt:dt=""r8"">698051417267</Timestamp><Current dt:dt=""r8"">0</Current><DateUtc dt:dt=""string"">2015-03-16T16:28:08Z</DateUtc></FrequencyChange></FrequencyChanges></Clock>\n"	Arrow Flanker 2014-12137-1	60.018	1.0.0.100	1	-2027705975	Professional	2.0.10.353	2.0.10.353	03-16-2015	3/16/2015 4:28:08 PM	12:28:08	2.0.10.248	3	1	1	1	NA	NA	NA	NA	NA	NA	NA	NA	NA	NA	NA	NA	NA	NA	NA	NA	NA	NA	NA	NA	NA	NA	NA	NA	BlockProc	BlockList	NA	48	{LEFTARROW}	NA	-100	1517	incongruent	NA	NA	NA	NA	NA	NA	NA	NA	NA	NA	NA	NA	NA	NA	NA	NA	NA	NA	NA	NA	NA	NA	TrialProc	TrialList	0	10	460604	17	0	16	458421	0	1	{LEFTARROW}	-999999	0	460087	0	{LEFTARROW}	507	460594	NA	NA	left	rrlrr.bmp	354	0	NA	0	0	0	0	NA	0	0	0	NA	0	0	0	0	NA	0	0	3	1	48
Arrow Flanker 2014	12137	1	"<?xml version=""1.0""?>\n<Clock xmlns:dt=""urn:schemas-microsoft-com:datatypes""><Description dt:dt=""string"">E-Prime Primary Realtime Clock</Description><StartTime><Timestamp dt:dt=""int"">0</Timestamp><DateUtc dt:dt=""string"">2015-03-16T16:28:08Z</DateUtc></StartTime><FrequencyChanges><FrequencyChange><Frequency dt:dt=""r8"">2825654</Frequency><Timestamp dt:dt=""r8"">698051417267</Timestamp><Current dt:dt=""r8"">0</Current><DateUtc dt:dt=""string"">2015-03-16T16:28:08Z</DateUtc></FrequencyChange></FrequencyChanges></Clock>\n"	Arrow Flanker 2014-12137-1	60.018	1.0.0.100	1	-2027705975	Professional	2.0.10.353	2.0.10.353	03-16-2015	3/16/2015 4:28:08 PM	12:28:08	2.0.10.248	3	1	1	1	NA	NA	NA	NA	NA	NA	NA	NA	NA	NA	NA	NA	NA	NA	NA	NA	NA	NA	NA	NA	NA	NA	NA	NA	BlockProc	BlockList	NA	49	{LEFTARROW}	NA	-100	2090	neutral	NA	NA	NA	NA	NA	NA	NA	NA	NA	NA	NA	NA	NA	NA	NA	NA	NA	NA	NA	NA	NA	NA	TrialProc	TrialList	1	20	463286	17	0	16	461137	0	1	{LEFTARROW}	-999999	0	462687	0	{LEFTARROW}	579	463266	NA	NA	left	ooloo.bmp	354	0	NA	0	0	0	0	NA	0	0	0	NA	0	0	0	0	NA	0	0	5	1	49
Arrow Flanker 2014	12137	1	"<?xml version=""1.0""?>\n<Clock xmlns:dt=""urn:schemas-microsoft-com:datatypes""><Description dt:dt=""string"">E-Prime Primary Realtime Clock</Description><StartTime><Timestamp dt:dt=""int"">0</Timestamp><DateUtc dt:dt=""string"">2015-03-16T16:28:08Z</DateUtc></StartTime><FrequencyChanges><FrequencyChange><Frequency dt:dt=""r8"">2825654</Frequency><Timestamp dt:dt=""r8"">698051417267</Timestamp><Current dt:dt=""r8"">0</Current><DateUtc dt:dt=""string"">2015-03-16T16:28:08Z</DateUtc></FrequencyChange></FrequencyChanges></Clock>\n"	Arrow Flanker 2014-12137-1	60.018	1.0.0.100	1	-2027705975	Professional	2.0.10.353	2.0.10.353	03-16-2015	3/16/2015 4:28:08 PM	12:28:08	2.0.10.248	3	1	1	1	NA	NA	NA	NA	NA	NA	NA	NA	NA	NA	NA	NA	NA	NA	NA	NA	NA	NA	NA	NA	NA	NA	NA	NA	BlockProc	BlockList	NA	50	{LEFTARROW}	NA	-100	2319	incongruent	NA	NA	NA	NA	NA	NA	NA	NA	NA	NA	NA	NA	NA	NA	NA	NA	NA	NA	NA	NA	NA	NA	TrialProc	TrialList	0	6	466552	17	0	17	463820	0	1	{LEFTARROW}	-999999	0	465919	0	{LEFTARROW}	626	466545	NA	NA	left	rrlrr.bmp	354	0	NA	0	0	0	0	NA	0	0	0	NA	0	0	0	0	NA	0	0	3	1	50
Arrow Flanker 2014	12137	1	"<?xml version=""1.0""?>\n<Clock xmlns:dt=""urn:schemas-microsoft-com:datatypes""><Description dt:dt=""string"">E-Prime Primary Realtime Clock</Description><StartTime><Timestamp dt:dt=""int"">0</Timestamp><DateUtc dt:dt=""string"">2015-03-16T16:28:08Z</DateUtc></StartTime><FrequencyChanges><FrequencyChange><Frequency dt:dt=""r8"">2825654</Frequency><Timestamp dt:dt=""r8"">698051417267</Timestamp><Current dt:dt=""r8"">0</Current><DateUtc dt:dt=""string"">2015-03-16T16:28:08Z</DateUtc></FrequencyChange></FrequencyChanges></Clock>\n"	Arrow Flanker 2014-12137-1	60.018	1.0.0.100	1	-2027705975	Professional	2.0.10.353	2.0.10.353	03-16-2015	3/16/2015 4:28:08 PM	12:28:08	2.0.10.248	3	1	1	1	NA	NA	NA	NA	NA	NA	NA	NA	NA	NA	NA	NA	NA	NA	NA	NA	NA	NA	NA	NA	NA	NA	NA	NA	BlockProc	BlockList	NA	51	{LEFTARROW}	NA	-100	1415	incongruent	NA	NA	NA	NA	NA	NA	NA	NA	NA	NA	NA	NA	NA	NA	NA	NA	NA	NA	NA	NA	NA	NA	TrialProc	TrialList	1	20	469301	17	0	16	467085	0	1	{LEFTARROW}	-999999	0	468735	0	{LEFTARROW}	546	469281	NA	NA	left	rrlrr.bmp	354	0	NA	0	0	0	0	NA	0	0	0	NA	0	0	0	0	NA	0	0	3	1	51
Arrow Flanker 2014	12137	1	"<?xml version=""1.0""?>\n<Clock xmlns:dt=""urn:schemas-microsoft-com:datatypes""><Description dt:dt=""string"">E-Prime Primary Realtime Clock</Description><StartTime><Timestamp dt:dt=""int"">0</Timestamp><DateUtc dt:dt=""string"">2015-03-16T16:28:08Z</DateUtc></StartTime><FrequencyChanges><FrequencyChange><Frequency dt:dt=""r8"">2825654</Frequency><Timestamp dt:dt=""r8"">698051417267</Timestamp><Current dt:dt=""r8"">0</Current><DateUtc dt:dt=""string"">2015-03-16T16:28:08Z</DateUtc></FrequencyChange></FrequencyChanges></Clock>\n"	Arrow Flanker 2014-12137-1	60.018	1.0.0.100	1	-2027705975	Professional	2.0.10.353	2.0.10.353	03-16-2015	3/16/2015 4:28:08 PM	12:28:08	2.0.10.248	3	1	1	1	NA	NA	NA	NA	NA	NA	NA	NA	NA	NA	NA	NA	NA	NA	NA	NA	NA	NA	NA	NA	NA	NA	NA	NA	BlockProc	BlockList	NA	52	{RIGHTARROW}	NA	-100	2417	incongruent	NA	NA	NA	NA	NA	NA	NA	NA	NA	NA	NA	NA	NA	NA	NA	NA	NA	NA	NA	NA	NA	NA	TrialProc	TrialList	0	15	472384	16	0	16	469834	0	1	{RIGHTARROW}	-999999	0	471701	0	{RIGHTARROW}	668	472369	NA	NA	right	llrll.bmp	354	0	NA	0	0	0	0	NA	0	0	0	NA	0	0	0	0	NA	0	0	4	1	52
Arrow Flanker 2014	12137	1	"<?xml version=""1.0""?>\n<Clock xmlns:dt=""urn:schemas-microsoft-com:datatypes""><Description dt:dt=""string"">E-Prime Primary Realtime Clock</Description><StartTime><Timestamp dt:dt=""int"">0</Timestamp><DateUtc dt:dt=""string"">2015-03-16T16:28:08Z</DateUtc></StartTime><FrequencyChanges><FrequencyChange><Frequency dt:dt=""r8"">2825654</Frequency><Timestamp dt:dt=""r8"">698051417267</Timestamp><Current dt:dt=""r8"">0</Current><DateUtc dt:dt=""string"">2015-03-16T16:28:08Z</DateUtc></FrequencyChange></FrequencyChanges></Clock>\n"	Arrow Flanker 2014-12137-1	60.018	1.0.0.100	1	-2027705975	Professional	2.0.10.353	2.0.10.353	03-16-2015	3/16/2015 4:28:08 PM	12:28:08	2.0.10.248	3	1	1	1	NA	NA	NA	NA	NA	NA	NA	NA	NA	NA	NA	NA	NA	NA	NA	NA	NA	NA	NA	NA	NA	NA	NA	NA	BlockProc	BlockList	NA	53	{LEFTARROW}	NA	-100	1498	congruent	NA	NA	NA	NA	NA	NA	NA	NA	NA	NA	NA	NA	NA	NA	NA	NA	NA	NA	NA	NA	NA	NA	TrialProc	TrialList	0	9	475050	16	0	17	472917	0	1	{LEFTARROW}	-999999	-1	474366	0	{LEFTARROW}	675	475041	NA	NA	left	lllll.bmp	354	0	NA	0	0	0	0	NA	0	0	0	NA	0	0	0	0	NA	0	0	1	1	53
Arrow Flanker 2014	12137	1	"<?xml version=""1.0""?>\n<Clock xmlns:dt=""urn:schemas-microsoft-com:datatypes""><Description dt:dt=""string"">E-Prime Primary Realtime Clock</Description><StartTime><Timestamp dt:dt=""int"">0</Timestamp><DateUtc dt:dt=""string"">2015-03-16T16:28:08Z</DateUtc></StartTime><FrequencyChanges><FrequencyChange><Frequency dt:dt=""r8"">2825654</Frequency><Timestamp dt:dt=""r8"">698051417267</Timestamp><Current dt:dt=""r8"">0</Current><DateUtc dt:dt=""string"">2015-03-16T16:28:08Z</DateUtc></FrequencyChange></FrequencyChanges></Clock>\n"	Arrow Flanker 2014-12137-1	60.018	1.0.0.100	1	-2027705975	Professional	2.0.10.353	2.0.10.353	03-16-2015	3/16/2015 4:28:08 PM	12:28:08	2.0.10.248	3	1	1	1	NA	NA	NA	NA	NA	NA	NA	NA	NA	NA	NA	NA	NA	NA	NA	NA	NA	NA	NA	NA	NA	NA	NA	NA	BlockProc	BlockList	NA	54	{RIGHTARROW}	NA	-100	989	congruent	NA	NA	NA	NA	NA	NA	NA	NA	NA	NA	NA	NA	NA	NA	NA	NA	NA	NA	NA	NA	2	2	TrialProc	TrialList	1	9	477482	17	0	17	475583	0	1	{RIGHTARROW}	-999999	0	476866	0	{RIGHTARROW}	607	477473	NA	NA	right	rrrrr.bmp	354	0	NA	-999999	16	478015	0	1	4858	482873	0	NA	-999999	24	482897	0	1	1656	484553	2	1	54
Arrow Flanker 2014	12137	1	"<?xml version=""1.0""?>\n<Clock xmlns:dt=""urn:schemas-microsoft-com:datatypes""><Description dt:dt=""string"">E-Prime Primary Realtime Clock</Description><StartTime><Timestamp dt:dt=""int"">0</Timestamp><DateUtc dt:dt=""string"">2015-03-16T16:28:08Z</DateUtc></StartTime><FrequencyChanges><FrequencyChange><Frequency dt:dt=""r8"">2825654</Frequency><Timestamp dt:dt=""r8"">698051417267</Timestamp><Current dt:dt=""r8"">0</Current><DateUtc dt:dt=""string"">2015-03-16T16:28:08Z</DateUtc></FrequencyChange></FrequencyChanges></Clock>\n"	Arrow Flanker 2014-12137-1	60.018	1.0.0.100	1	-2027705975	Professional	2.0.10.353	2.0.10.353	03-16-2015	3/16/2015 4:28:08 PM	12:28:08	2.0.10.248	3	1	1	1	NA	NA	NA	NA	NA	NA	NA	NA	NA	NA	NA	NA	NA	NA	NA	NA	NA	NA	NA	NA	NA	NA	NA	NA	BlockProc	BlockList	NA	55	{RIGHTARROW}	NA	-100	1718	congruent	NA	NA	NA	NA	NA	NA	NA	NA	NA	NA	NA	NA	NA	NA	NA	NA	NA	NA	NA	NA	NA	NA	TrialProc	TrialList	0	8	488696	16	0	27	486763	0	1	{RIGHTARROW}	-999999	0	487896	0	{RIGHTARROW}	792	488688	NA	NA	right	rrrrr.bmp	354	0	NA	0	0	0	0	NA	0	0	0	NA	0	0	0	0	NA	0	0	2	1	55
Arrow Flanker 2014	12137	1	"<?xml version=""1.0""?>\n<Clock xmlns:dt=""urn:schemas-microsoft-com:datatypes""><Description dt:dt=""string"">E-Prime Primary Realtime Clock</Description><StartTime><Timestamp dt:dt=""int"">0</Timestamp><DateUtc dt:dt=""string"">2015-03-16T16:28:08Z</DateUtc></StartTime><FrequencyChanges><FrequencyChange><Frequency dt:dt=""r8"">2825654</Frequency><Timestamp dt:dt=""r8"">698051417267</Timestamp><Current dt:dt=""r8"">0</Current><DateUtc dt:dt=""string"">2015-03-16T16:28:08Z</DateUtc></FrequencyChange></FrequencyChanges></Clock>\n"	Arrow Flanker 2014-12137-1	60.018	1.0.0.100	1	-2027705975	Professional	2.0.10.353	2.0.10.353	03-16-2015	3/16/2015 4:28:08 PM	12:28:08	2.0.10.248	3	1	1	1	NA	NA	NA	NA	NA	NA	NA	NA	NA	NA	NA	NA	NA	NA	NA	NA	NA	NA	NA	NA	NA	NA	NA	NA	BlockProc	BlockList	NA	56	{LEFTARROW}	NA	-100	1057	incongruent	NA	NA	NA	NA	NA	NA	NA	NA	NA	NA	NA	NA	NA	NA	NA	NA	NA	NA	NA	NA	NA	NA	TrialProc	TrialList	0	10	491178	17	0	17	489229	0	1	{LEFTARROW}	-999999	0	490662	0	{LEFTARROW}	506	491168	NA	NA	left	rrlrr.bmp	354	0	NA	0	0	0	0	NA	0	0	0	NA	0	0	0	0	NA	0	0	3	1	56
Arrow Flanker 2014	12137	1	"<?xml version=""1.0""?>\n<Clock xmlns:dt=""urn:schemas-microsoft-com:datatypes""><Description dt:dt=""string"">E-Prime Primary Realtime Clock</Description><StartTime><Timestamp dt:dt=""int"">0</Timestamp><DateUtc dt:dt=""string"">2015-03-16T16:28:08Z</DateUtc></StartTime><FrequencyChanges><FrequencyChange><Frequency dt:dt=""r8"">2825654</Frequency><Timestamp dt:dt=""r8"">698051417267</Timestamp><Current dt:dt=""r8"">0</Current><DateUtc dt:dt=""string"">2015-03-16T16:28:08Z</DateUtc></FrequencyChange></FrequencyChanges></Clock>\n"	Arrow Flanker 2014-12137-1	60.018	1.0.0.100	1	-2027705975	Professional	2.0.10.353	2.0.10.353	03-16-2015	3/16/2015 4:28:08 PM	12:28:08	2.0.10.248	3	1	1	1	NA	NA	NA	NA	NA	NA	NA	NA	NA	NA	NA	NA	NA	NA	NA	NA	NA	NA	NA	NA	NA	NA	NA	NA	BlockProc	BlockList	NA	57	{RIGHTARROW}	NA	-100	1348	congruent	NA	NA	NA	NA	NA	NA	NA	NA	NA	NA	NA	NA	NA	NA	NA	NA	NA	NA	NA	NA	NA	NA	TrialProc	TrialList	0	6	493894	17	0	16	491711	0	1	{RIGHTARROW}	-999999	0	493361	0	{RIGHTARROW}	527	493888	NA	NA	right	rrrrr.bmp	354	0	NA	0	0	0	0	NA	0	0	0	NA	0	0	0	0	NA	0	0	2	1	57
Arrow Flanker 2014	12137	1	"<?xml version=""1.0""?>\n<Clock xmlns:dt=""urn:schemas-microsoft-com:datatypes""><Description dt:dt=""string"">E-Prime Primary Realtime Clock</Description><StartTime><Timestamp dt:dt=""int"">0</Timestamp><DateUtc dt:dt=""string"">2015-03-16T16:28:08Z</DateUtc></StartTime><FrequencyChanges><FrequencyChange><Frequency dt:dt=""r8"">2825654</Frequency><Timestamp dt:dt=""r8"">698051417267</Timestamp><Current dt:dt=""r8"">0</Current><DateUtc dt:dt=""string"">2015-03-16T16:28:08Z</DateUtc></FrequencyChange></FrequencyChanges></Clock>\n"	Arrow Flanker 2014-12137-1	60.018	1.0.0.100	1	-2027705975	Professional	2.0.10.353	2.0.10.353	03-16-2015	3/16/2015 4:28:08 PM	12:28:08	2.0.10.248	3	1	1	1	NA	NA	NA	NA	NA	NA	NA	NA	NA	NA	NA	NA	NA	NA	NA	NA	NA	NA	NA	NA	NA	NA	NA	NA	BlockProc	BlockList	NA	58	{LEFTARROW}	NA	-100	1577	incongruent	NA	NA	NA	NA	NA	NA	NA	NA	NA	NA	NA	NA	NA	NA	NA	NA	NA	NA	NA	NA	NA	NA	TrialProc	TrialList	0	10	496010	17	0	16	494427	0	1	{LEFTARROW}	-999999	0	495527	0	{LEFTARROW}	473	496000	NA	NA	left	rrlrr.bmp	354	0	NA	0	0	0	0	NA	0	0	0	NA	0	0	0	0	NA	0	0	3	1	58
Arrow Flanker 2014	12137	1	"<?xml version=""1.0""?>\n<Clock xmlns:dt=""urn:schemas-microsoft-com:datatypes""><Description dt:dt=""string"">E-Prime Primary Realtime Clock</Description><StartTime><Timestamp dt:dt=""int"">0</Timestamp><DateUtc dt:dt=""string"">2015-03-16T16:28:08Z</DateUtc></StartTime><FrequencyChanges><FrequencyChange><Frequency dt:dt=""r8"">2825654</Frequency><Timestamp dt:dt=""r8"">698051417267</Timestamp><Current dt:dt=""r8"">0</Current><DateUtc dt:dt=""string"">2015-03-16T16:28:08Z</DateUtc></FrequencyChange></FrequencyChanges></Clock>\n"	Arrow Flanker 2014-12137-1	60.018	1.0.0.100	1	-2027705975	Professional	2.0.10.353	2.0.10.353	03-16-2015	3/16/2015 4:28:08 PM	12:28:08	2.0.10.248	3	1	1	1	NA	NA	NA	NA	NA	NA	NA	NA	NA	NA	NA	NA	NA	NA	NA	NA	NA	NA	NA	NA	NA	NA	NA	NA	BlockProc	BlockList	NA	59	{RIGHTARROW}	NA	-100	1062	neutral	NA	NA	NA	NA	NA	NA	NA	NA	NA	NA	NA	NA	NA	NA	NA	NA	NA	NA	NA	NA	NA	NA	TrialProc	TrialList	1	19	498259	17	0	16	496543	0	1	{RIGHTARROW}	-999999	0	497760	0	{RIGHTARROW}	480	498240	NA	NA	right	ooroo.bmp	354	0	NA	0	0	0	0	NA	0	0	0	NA	0	0	0	0	NA	0	0	6	1	59
Arrow Flanker 2014	12137	1	"<?xml version=""1.0""?>\n<Clock xmlns:dt=""urn:schemas-microsoft-com:datatypes""><Description dt:dt=""string"">E-Prime Primary Realtime Clock</Description><StartTime><Timestamp dt:dt=""int"">0</Timestamp><DateUtc dt:dt=""string"">2015-03-16T16:28:08Z</DateUtc></StartTime><FrequencyChanges><FrequencyChange><Frequency dt:dt=""r8"">2825654</Frequency><Timestamp dt:dt=""r8"">698051417267</Timestamp><Current dt:dt=""r8"">0</Current><DateUtc dt:dt=""string"">2015-03-16T16:28:08Z</DateUtc></FrequencyChange></FrequencyChanges></Clock>\n"	Arrow Flanker 2014-12137-1	60.018	1.0.0.100	1	-2027705975	Professional	2.0.10.353	2.0.10.353	03-16-2015	3/16/2015 4:28:08 PM	12:28:08	2.0.10.248	3	1	1	1	NA	NA	NA	NA	NA	NA	NA	NA	NA	NA	NA	NA	NA	NA	NA	NA	NA	NA	NA	NA	NA	NA	NA	NA	BlockProc	BlockList	NA	60	{RIGHTARROW}	NA	-100	997	neutral	NA	NA	NA	NA	NA	NA	NA	NA	NA	NA	NA	NA	NA	NA	NA	NA	NA	NA	NA	NA	NA	NA	TrialProc	TrialList	0	11	500859	16	0	17	498793	999	1	{RIGHTARROW}	-999999	0	500292	0	{RIGHTARROW}	555	500847	NA	NA	right	ooroo.bmp	354	0	NA	0	0	0	0	NA	0	0	0	NA	0	0	0	0	NA	0	0	6	1	60
Arrow Flanker 2014	12137	1	"<?xml version=""1.0""?>\n<Clock xmlns:dt=""urn:schemas-microsoft-com:datatypes""><Description dt:dt=""string"">E-Prime Primary Realtime Clock</Description><StartTime><Timestamp dt:dt=""int"">0</Timestamp><DateUtc dt:dt=""string"">2015-03-16T16:28:08Z</DateUtc></StartTime><FrequencyChanges><FrequencyChange><Frequency dt:dt=""r8"">2825654</Frequency><Timestamp dt:dt=""r8"">698051417267</Timestamp><Current dt:dt=""r8"">0</Current><DateUtc dt:dt=""string"">2015-03-16T16:28:08Z</DateUtc></FrequencyChange></FrequencyChanges></Clock>\n"	Arrow Flanker 2014-12137-1	60.018	1.0.0.100	1	-2027705975	Professional	2.0.10.353	2.0.10.353	03-16-2015	3/16/2015 4:28:08 PM	12:28:08	2.0.10.248	3	1	1	1	NA	NA	NA	NA	NA	NA	NA	NA	NA	NA	NA	NA	NA	NA	NA	NA	NA	NA	NA	NA	NA	NA	NA	NA	BlockProc	BlockList	NA	61	{LEFTARROW}	NA	-100	1757	neutral	NA	NA	NA	NA	NA	NA	NA	NA	NA	NA	NA	NA	NA	NA	NA	NA	NA	NA	NA	NA	NA	NA	TrialProc	TrialList	0	6	503941	17	0	17	501392	0	1	{LEFTARROW}	-999999	0	503475	0	{LEFTARROW}	460	503935	NA	NA	left	ooloo.bmp	354	0	NA	0	0	0	0	NA	0	0	0	NA	0	0	0	0	NA	0	0	5	1	61
Arrow Flanker 2014	12137	1	"<?xml version=""1.0""?>\n<Clock xmlns:dt=""urn:schemas-microsoft-com:datatypes""><Description dt:dt=""string"">E-Prime Primary Realtime Clock</Description><StartTime><Timestamp dt:dt=""int"">0</Timestamp><DateUtc dt:dt=""string"">2015-03-16T16:28:08Z</DateUtc></StartTime><FrequencyChanges><FrequencyChange><Frequency dt:dt=""r8"">2825654</Frequency><Timestamp dt:dt=""r8"">698051417267</Timestamp><Current dt:dt=""r8"">0</Current><DateUtc dt:dt=""string"">2015-03-16T16:28:08Z</DateUtc></FrequencyChange></FrequencyChanges></Clock>\n"	Arrow Flanker 2014-12137-1	60.018	1.0.0.100	1	-2027705975	Professional	2.0.10.353	2.0.10.353	03-16-2015	3/16/2015 4:28:08 PM	12:28:08	2.0.10.248	3	1	1	1	NA	NA	NA	NA	NA	NA	NA	NA	NA	NA	NA	NA	NA	NA	NA	NA	NA	NA	NA	NA	NA	NA	NA	NA	BlockProc	BlockList	NA	62	{LEFTARROW}	NA	-100	1707	neutral	NA	NA	NA	NA	NA	NA	NA	NA	NA	NA	NA	NA	NA	NA	NA	NA	NA	NA	NA	NA	NA	NA	TrialProc	TrialList	1	17	506640	17	0	16	504474	0	1	{LEFTARROW}	-999999	16	506107	0	{LEFTARROW}	516	506623	NA	NA	left	ooloo.bmp	354	0	NA	0	0	0	0	NA	0	0	0	NA	0	0	0	0	NA	0	0	5	1	62
Arrow Flanker 2014	12137	1	"<?xml version=""1.0""?>\n<Clock xmlns:dt=""urn:schemas-microsoft-com:datatypes""><Description dt:dt=""string"">E-Prime Primary Realtime Clock</Description><StartTime><Timestamp dt:dt=""int"">0</Timestamp><DateUtc dt:dt=""string"">2015-03-16T16:28:08Z</DateUtc></StartTime><FrequencyChanges><FrequencyChange><Frequency dt:dt=""r8"">2825654</Frequency><Timestamp dt:dt=""r8"">698051417267</Timestamp><Current dt:dt=""r8"">0</Current><DateUtc dt:dt=""string"">2015-03-16T16:28:08Z</DateUtc></FrequencyChange></FrequencyChanges></Clock>\n"	Arrow Flanker 2014-12137-1	60.018	1.0.0.100	1	-2027705975	Professional	2.0.10.353	2.0.10.353	03-16-2015	3/16/2015 4:28:08 PM	12:28:08	2.0.10.248	3	1	1	1	NA	NA	NA	NA	NA	NA	NA	NA	NA	NA	NA	NA	NA	NA	NA	NA	NA	NA	NA	NA	NA	NA	NA	NA	BlockProc	BlockList	NA	63	{LEFTARROW}	NA	-100	1589	congruent	NA	NA	NA	NA	NA	NA	NA	NA	NA	NA	NA	NA	NA	NA	NA	NA	NA	NA	NA	NA	NA	NA	TrialProc	TrialList	0	19	509090	16	0	16	507173	0	1	{LEFTARROW}	-999999	0	508340	0	{LEFTARROW}	731	509071	NA	NA	left	lllll.bmp	354	0	NA	0	0	0	0	NA	0	0	0	NA	0	0	0	0	NA	0	0	1	1	63
Arrow Flanker 2014	12137	1	"<?xml version=""1.0""?>\n<Clock xmlns:dt=""urn:schemas-microsoft-com:datatypes""><Description dt:dt=""string"">E-Prime Primary Realtime Clock</Description><StartTime><Timestamp dt:dt=""int"">0</Timestamp><DateUtc dt:dt=""string"">2015-03-16T16:28:08Z</DateUtc></StartTime><FrequencyChanges><FrequencyChange><Frequency dt:dt=""r8"">2825654</Frequency><Timestamp dt:dt=""r8"">698051417267</Timestamp><Current dt:dt=""r8"">0</Current><DateUtc dt:dt=""string"">2015-03-16T16:28:08Z</DateUtc></FrequencyChange></FrequencyChanges></Clock>\n"	Arrow Flanker 2014-12137-1	60.018	1.0.0.100	1	-2027705975	Professional	2.0.10.353	2.0.10.353	03-16-2015	3/16/2015 4:28:08 PM	12:28:08	2.0.10.248	3	1	1	1	NA	NA	NA	NA	NA	NA	NA	NA	NA	NA	NA	NA	NA	NA	NA	NA	NA	NA	NA	NA	NA	NA	NA	NA	BlockProc	BlockList	NA	64	{RIGHTARROW}	NA	-100	1179	neutral	NA	NA	NA	NA	NA	NA	NA	NA	NA	NA	NA	NA	NA	NA	NA	NA	NA	NA	NA	NA	NA	NA	TrialProc	TrialList	1	6	511605	17	0	17	509623	0	1	{RIGHTARROW}	-999999	0	511139	0	{RIGHTARROW}	460	511599	NA	NA	right	ooroo.bmp	354	0	NA	0	0	0	0	NA	0	0	0	NA	0	0	0	0	NA	0	0	6	1	64
Arrow Flanker 2014	12137	1	"<?xml version=""1.0""?>\n<Clock xmlns:dt=""urn:schemas-microsoft-com:datatypes""><Description dt:dt=""string"">E-Prime Primary Realtime Clock</Description><StartTime><Timestamp dt:dt=""int"">0</Timestamp><DateUtc dt:dt=""string"">2015-03-16T16:28:08Z</DateUtc></StartTime><FrequencyChanges><FrequencyChange><Frequency dt:dt=""r8"">2825654</Frequency><Timestamp dt:dt=""r8"">698051417267</Timestamp><Current dt:dt=""r8"">0</Current><DateUtc dt:dt=""string"">2015-03-16T16:28:08Z</DateUtc></FrequencyChange></FrequencyChanges></Clock>\n"	Arrow Flanker 2014-12137-1	60.018	1.0.0.100	1	-2027705975	Professional	2.0.10.353	2.0.10.353	03-16-2015	3/16/2015 4:28:08 PM	12:28:08	2.0.10.248	3	1	1	1	NA	NA	NA	NA	NA	NA	NA	NA	NA	NA	NA	NA	NA	NA	NA	NA	NA	NA	NA	NA	NA	NA	NA	NA	BlockProc	BlockList	NA	65	{RIGHTARROW}	NA	-100	1867	incongruent	NA	NA	NA	NA	NA	NA	NA	NA	NA	NA	NA	NA	NA	NA	NA	NA	NA	NA	NA	NA	NA	NA	TrialProc	TrialList	1	14	514221	17	0	17	512139	0	1	{RIGHTARROW}	-999999	0	513605	0	{RIGHTARROW}	602	514207	NA	NA	right	llrll.bmp	354	0	NA	0	0	0	0	NA	0	0	0	NA	0	0	0	0	NA	0	0	4	1	65
Arrow Flanker 2014	12137	1	"<?xml version=""1.0""?>\n<Clock xmlns:dt=""urn:schemas-microsoft-com:datatypes""><Description dt:dt=""string"">E-Prime Primary Realtime Clock</Description><StartTime><Timestamp dt:dt=""int"">0</Timestamp><DateUtc dt:dt=""string"">2015-03-16T16:28:08Z</DateUtc></StartTime><FrequencyChanges><FrequencyChange><Frequency dt:dt=""r8"">2825654</Frequency><Timestamp dt:dt=""r8"">698051417267</Timestamp><Current dt:dt=""r8"">0</Current><DateUtc dt:dt=""string"">2015-03-16T16:28:08Z</DateUtc></FrequencyChange></FrequencyChanges></Clock>\n"	Arrow Flanker 2014-12137-1	60.018	1.0.0.100	1	-2027705975	Professional	2.0.10.353	2.0.10.353	03-16-2015	3/16/2015 4:28:08 PM	12:28:08	2.0.10.248	3	1	1	1	NA	NA	NA	NA	NA	NA	NA	NA	NA	NA	NA	NA	NA	NA	NA	NA	NA	NA	NA	NA	NA	NA	NA	NA	BlockProc	BlockList	NA	66	{RIGHTARROW}	NA	-100	1471	congruent	NA	NA	NA	NA	NA	NA	NA	NA	NA	NA	NA	NA	NA	NA	NA	NA	NA	NA	NA	NA	NA	NA	TrialProc	TrialList	0	15	516254	17	0	17	514755	0	1	{RIGHTARROW}	-999999	0	515671	0	{RIGHTARROW}	568	516239	NA	NA	right	rrrrr.bmp	354	0	NA	0	0	0	0	NA	0	0	0	NA	0	0	0	0	NA	0	0	2	1	66
Arrow Flanker 2014	12137	1	"<?xml version=""1.0""?>\n<Clock xmlns:dt=""urn:schemas-microsoft-com:datatypes""><Description dt:dt=""string"">E-Prime Primary Realtime Clock</Description><StartTime><Timestamp dt:dt=""int"">0</Timestamp><DateUtc dt:dt=""string"">2015-03-16T16:28:08Z</DateUtc></StartTime><FrequencyChanges><FrequencyChange><Frequency dt:dt=""r8"">2825654</Frequency><Timestamp dt:dt=""r8"">698051417267</Timestamp><Current dt:dt=""r8"">0</Current><DateUtc dt:dt=""string"">2015-03-16T16:28:08Z</DateUtc></FrequencyChange></FrequencyChanges></Clock>\n"	Arrow Flanker 2014-12137-1	60.018	1.0.0.100	1	-2027705975	Professional	2.0.10.353	2.0.10.353	03-16-2015	3/16/2015 4:28:08 PM	12:28:08	2.0.10.248	3	1	1	1	NA	NA	NA	NA	NA	NA	NA	NA	NA	NA	NA	NA	NA	NA	NA	NA	NA	NA	NA	NA	NA	NA	NA	NA	BlockProc	BlockList	NA	67	{RIGHTARROW}	NA	-100	1281	incongruent	NA	NA	NA	NA	NA	NA	NA	NA	NA	NA	NA	NA	NA	NA	NA	NA	NA	NA	NA	NA	NA	NA	TrialProc	TrialList	0	14	519437	16	0	16	516787	0	1	{RIGHTARROW}	-999999	0	518470	0	{RIGHTARROW}	952	519422	NA	NA	right	llrll.bmp	354	0	NA	0	0	0	0	NA	0	0	0	NA	0	0	0	0	NA	0	0	4	1	67
Arrow Flanker 2014	12137	1	"<?xml version=""1.0""?>\n<Clock xmlns:dt=""urn:schemas-microsoft-com:datatypes""><Description dt:dt=""string"">E-Prime Primary Realtime Clock</Description><StartTime><Timestamp dt:dt=""int"">0</Timestamp><DateUtc dt:dt=""string"">2015-03-16T16:28:08Z</DateUtc></StartTime><FrequencyChanges><FrequencyChange><Frequency dt:dt=""r8"">2825654</Frequency><Timestamp dt:dt=""r8"">698051417267</Timestamp><Current dt:dt=""r8"">0</Current><DateUtc dt:dt=""string"">2015-03-16T16:28:08Z</DateUtc></FrequencyChange></FrequencyChanges></Clock>\n"	Arrow Flanker 2014-12137-1	60.018	1.0.0.100	1	-2027705975	Professional	2.0.10.353	2.0.10.353	03-16-2015	3/16/2015 4:28:08 PM	12:28:08	2.0.10.248	3	1	1	1	NA	NA	NA	NA	NA	NA	NA	NA	NA	NA	NA	NA	NA	NA	NA	NA	NA	NA	NA	NA	NA	NA	NA	NA	BlockProc	BlockList	NA	68	{LEFTARROW}	NA	-100	874	neutral	NA	NA	NA	NA	NA	NA	NA	NA	NA	NA	NA	NA	NA	NA	NA	NA	NA	NA	NA	NA	NA	NA	TrialProc	TrialList	1	13	521419	17	0	17	519970	0	1	{LEFTARROW}	-999999	0	520903	0	{LEFTARROW}	503	521406	NA	NA	left	ooloo.bmp	354	0	NA	0	0	0	0	NA	0	0	0	NA	0	0	0	0	NA	0	0	5	1	68
Arrow Flanker 2014	12137	1	"<?xml version=""1.0""?>\n<Clock xmlns:dt=""urn:schemas-microsoft-com:datatypes""><Description dt:dt=""string"">E-Prime Primary Realtime Clock</Description><StartTime><Timestamp dt:dt=""int"">0</Timestamp><DateUtc dt:dt=""string"">2015-03-16T16:28:08Z</DateUtc></StartTime><FrequencyChanges><FrequencyChange><Frequency dt:dt=""r8"">2825654</Frequency><Timestamp dt:dt=""r8"">698051417267</Timestamp><Current dt:dt=""r8"">0</Current><DateUtc dt:dt=""string"">2015-03-16T16:28:08Z</DateUtc></FrequencyChange></FrequencyChanges></Clock>\n"	Arrow Flanker 2014-12137-1	60.018	1.0.0.100	1	-2027705975	Professional	2.0.10.353	2.0.10.353	03-16-2015	3/16/2015 4:28:08 PM	12:28:08	2.0.10.248	3	1	1	1	NA	NA	NA	NA	NA	NA	NA	NA	NA	NA	NA	NA	NA	NA	NA	NA	NA	NA	NA	NA	NA	NA	NA	NA	BlockProc	BlockList	NA	69	{RIGHTARROW}	NA	-100	2108	congruent	NA	NA	NA	NA	NA	NA	NA	NA	NA	NA	NA	NA	NA	NA	NA	NA	NA	NA	NA	NA	NA	NA	TrialProc	TrialList	1	8	524518	17	0	16	521952	0	1	{RIGHTARROW}	-999999	0	524052	0	{RIGHTARROW}	458	524510	NA	NA	right	rrrrr.bmp	354	0	NA	0	0	0	0	NA	0	0	0	NA	0	0	0	0	NA	0	0	2	1	69
Arrow Flanker 2014	12137	1	"<?xml version=""1.0""?>\n<Clock xmlns:dt=""urn:schemas-microsoft-com:datatypes""><Description dt:dt=""string"">E-Prime Primary Realtime Clock</Description><StartTime><Timestamp dt:dt=""int"">0</Timestamp><DateUtc dt:dt=""string"">2015-03-16T16:28:08Z</DateUtc></StartTime><FrequencyChanges><FrequencyChange><Frequency dt:dt=""r8"">2825654</Frequency><Timestamp dt:dt=""r8"">698051417267</Timestamp><Current dt:dt=""r8"">0</Current><DateUtc dt:dt=""string"">2015-03-16T16:28:08Z</DateUtc></FrequencyChange></FrequencyChanges></Clock>\n"	Arrow Flanker 2014-12137-1	60.018	1.0.0.100	1	-2027705975	Professional	2.0.10.353	2.0.10.353	03-16-2015	3/16/2015 4:28:08 PM	12:28:08	2.0.10.248	3	1	1	1	NA	NA	NA	NA	NA	NA	NA	NA	NA	NA	NA	NA	NA	NA	NA	NA	NA	NA	NA	NA	NA	NA	NA	NA	BlockProc	BlockList	NA	70	{LEFTARROW}	NA	-100	1754	congruent	NA	NA	NA	NA	NA	NA	NA	NA	NA	NA	NA	NA	NA	NA	NA	NA	NA	NA	NA	NA	1	NA	TrialProc	TrialList	1	6	526884	17	0	16	525051	0	1	{LEFTARROW}	-999999	0	526418	0	{LEFTARROW}	460	526878	NA	NA	left	lllll.bmp	354	0	NA	-999999	16	527417	0	1	1973	529390	0	NA	0	0	0	0	NA	0	0	1	1	70
Arrow Flanker 2014	12137	1	"<?xml version=""1.0""?>\n<Clock xmlns:dt=""urn:schemas-microsoft-com:datatypes""><Description dt:dt=""string"">E-Prime Primary Realtime Clock</Description><StartTime><Timestamp dt:dt=""int"">0</Timestamp><DateUtc dt:dt=""string"">2015-03-16T16:28:08Z</DateUtc></StartTime><FrequencyChanges><FrequencyChange><Frequency dt:dt=""r8"">2825654</Frequency><Timestamp dt:dt=""r8"">698051417267</Timestamp><Current dt:dt=""r8"">0</Current><DateUtc dt:dt=""string"">2015-03-16T16:28:08Z</DateUtc></FrequencyChange></FrequencyChanges></Clock>\n"	Arrow Flanker 2014-12137-1	60.018	1.0.0.100	1	-2027705975	Professional	2.0.10.353	2.0.10.353	03-16-2015	3/16/2015 4:28:08 PM	12:28:08	2.0.10.248	3	1	1	1	NA	NA	NA	NA	NA	NA	NA	NA	NA	NA	NA	NA	NA	NA	NA	NA	NA	NA	NA	NA	NA	NA	NA	NA	BlockProc	BlockList	NA	71	{LEFTARROW}	NA	-100	1663	incongruent	NA	NA	NA	NA	NA	NA	NA	NA	NA	NA	NA	NA	NA	NA	NA	NA	NA	NA	NA	NA	NA	NA	TrialProc	TrialList	0	20	532866	16	0	12	531050	0	1	{LEFTARROW}	-999999	0	532066	0	{LEFTARROW}	780	532846	NA	NA	left	rrlrr.bmp	354	0	NA	0	0	0	0	NA	0	0	0	NA	0	0	0	0	NA	0	0	3	1	71
Arrow Flanker 2014	12137	1	"<?xml version=""1.0""?>\n<Clock xmlns:dt=""urn:schemas-microsoft-com:datatypes""><Description dt:dt=""string"">E-Prime Primary Realtime Clock</Description><StartTime><Timestamp dt:dt=""int"">0</Timestamp><DateUtc dt:dt=""string"">2015-03-16T16:28:08Z</DateUtc></StartTime><FrequencyChanges><FrequencyChange><Frequency dt:dt=""r8"">2825654</Frequency><Timestamp dt:dt=""r8"">698051417267</Timestamp><Current dt:dt=""r8"">0</Current><DateUtc dt:dt=""string"">2015-03-16T16:28:08Z</DateUtc></FrequencyChange></FrequencyChanges></Clock>\n"	Arrow Flanker 2014-12137-1	60.018	1.0.0.100	1	-2027705975	Professional	2.0.10.353	2.0.10.353	03-16-2015	3/16/2015 4:28:08 PM	12:28:08	2.0.10.248	3	1	1	1	NA	NA	NA	NA	NA	NA	NA	NA	NA	NA	NA	NA	NA	NA	NA	NA	NA	NA	NA	NA	NA	NA	NA	NA	BlockProc	BlockList	NA	72	{RIGHTARROW}	NA	-100	2537	incongruent	NA	NA	NA	NA	NA	NA	NA	NA	NA	NA	NA	NA	NA	NA	NA	NA	NA	NA	NA	NA	NA	NA	TrialProc	TrialList	0	8	535782	16	0	17	533399	0	1	{RIGHTARROW}	-999999	-1	535298	0	{RIGHTARROW}	475	535773	NA	NA	right	llrll.bmp	354	0	NA	0	0	0	0	NA	0	0	0	NA	0	0	0	0	NA	0	0	4	1	72
