ExperimentName	Subject	Session	Clock.Information	DataFile.Basename	Display.RefreshRate	ExperimentVersion	Group	RandomSeed	RuntimeCapabilities	RuntimeVersion	RuntimeVersionExpected	SessionDate	SessionStartDateTimeUtc	SessionTime	StudioVersion	Block	BlockList	BlockList.Cycle	BlockList.Sample	Both	CompletelyMW	CongMeanRT	CongTotal	Fragmented	GoodByeList	GoodByeList.Cycle	GoodByeList.Sample	IncongMeanRT	IncongTotal	MapBlockList	MapBlockList.Cycle	MapBlockList.Sample	Mindwandering	MostlyMW	MostlyOT	NeutralMeanRT	NeutralTotal	NumberProbes1	NumberProbes2	OnTask	PracBlockList	PracBlockList.Cycle	PracBlockList.Sample	Procedure[Block]	Running[Block]	Sequential	Trial	CorrectAnswer	CuePositionY	CuePositionY2	DurationOfFixation	FlankerType	MapTrialList	MapTrialList.Cycle	MapTrialList.Sample	PracSlideFixationStart.DurationError	PracSlideFixationStart.OnsetDelay	PracSlideFixationStart.OnsetTime	PracSlideFixationStart.OnsetToOnsetTime	PracSlideTarget.ACC	PracSlideTarget.CRESP	PracSlideTarget.DurationError	PracSlideTarget.OnsetDelay	PracSlideTarget.OnsetTime	PracSlideTarget.OnsetToOnsetTime	PracSlideTarget.RESP	PracSlideTarget.RT	PracSlideTarget.RTTime	PracSlideTarget.Tag	PracTrialList	PracTrialList.Cycle	PracTrialList.Sample	Probe1Resp	Probe2Resp	Procedure[Trial]	Running[Trial]	SlideFixationEnd.DurationError	SlideFixationEnd.OnsetDelay	SlideFixationEnd.OnsetTime	SlideFixationEnd.OnsetToOnsetTime	SlideFixationStart.DurationError	SlideFixationStart.OnsetDelay	SlideFixationStart.OnsetTime	SlideFixationStart.OnsetToOnsetTime	SlideTarget.ACC	SlideTarget.CRESP	SlideTarget.DurationError	SlideTarget.OnsetDelay	SlideTarget.OnsetTime	SlideTarget.OnsetToOnsetTime	SlideTarget.RESP	SlideTarget.RT	SlideTarget.RTTime	SlideTarget.Tag	TargerDirection	TargetDirection	TargetImage	TargetPosition	ThoughtProbe1.ACC	ThoughtProbe1.CRESP	ThoughtProbe1.DurationError	ThoughtProbe1.OnsetDelay	ThoughtProbe1.OnsetTime	ThoughtProbe1.OnsetToOnsetTime	ThoughtProbe1.RESP	ThoughtProbe1.RT	ThoughtProbe1.RTTime	ThoughtProbe2.ACC	ThoughtProbe2.CRESP	ThoughtProbe2.DurationError	ThoughtProbe2.OnsetDelay	ThoughtProbe2.OnsetTime	ThoughtProbe2.OnsetToOnsetTime	ThoughtProbe2.RESP	ThoughtProbe2.RT	ThoughtProbe2.RTTime	TrialList	TrialList.Cycle	TrialList.Sample
Arrow Flanker 2014	12180	1	"<?xml version=""1.0""?>\n<Clock xmlns:dt=""urn:schemas-microsoft-com:datatypes""><Description dt:dt=""string"">E-Prime Primary Realtime Clock</Description><StartTime><Timestamp dt:dt=""int"">0</Timestamp><DateUtc dt:dt=""string"">2015-04-14T17:58:50Z</DateUtc></StartTime><FrequencyChanges><FrequencyChange><Frequency dt:dt=""r8"">2825654</Frequency><Timestamp dt:dt=""r8"">3189304526267</Timestamp><Current dt:dt=""r8"">0</Current><DateUtc dt:dt=""string"">2015-04-14T17:58:50Z</DateUtc></FrequencyChange></FrequencyChanges></Clock>\n"	Arrow Flanker 2014-12180-1	60.018	1.0.0.100	1	-1855641731	Professional	2.0.10.353	2.0.10.353	04-14-2015	4/14/2015 5:58:50 PM	13:58:50	2.0.10.248	1	NA	NA	NA	NA	NA	NA	NA	NA	NA	NA	NA	NA	NA	1	1	1	NA	NA	NA	NA	NA	NA	NA	NA	NA	NA	NA	MapBlockProc	MapBlockList	NA	1	{LEFTARROW}	-100	NA	1259	NA	1	1	1	0	13	133752	1267	1	{LEFTARROW}	-999999	0	135519	0	{LEFTARROW}	476	135995	NA	NA	NA	NA	NA	NA	MapTrialProc	MapTrialList	NA	NA	NA	NA	NA	NA	NA	NA	NA	NA	NA	NA	NA	NA	NA	NA	NA	NA	left	NA	L.bmp	354	NA	NA	NA	NA	NA	NA	NA	NA	NA	NA	NA	NA	NA	NA	NA	NA	NA	NA	NA	NA	NA
Arrow Flanker 2014	12180	1	"<?xml version=""1.0""?>\n<Clock xmlns:dt=""urn:schemas-microsoft-com:datatypes""><Description dt:dt=""string"">E-Prime Primary Realtime Clock</Description><StartTime><Timestamp dt:dt=""int"">0</Timestamp><DateUtc dt:dt=""string"">2015-04-14T17:58:50Z</DateUtc></StartTime><FrequencyChanges><FrequencyChange><Frequency dt:dt=""r8"">2825654</Frequency><Timestamp dt:dt=""r8"">3189304526267</Timestamp><Current dt:dt=""r8"">0</Current><DateUtc dt:dt=""string"">2015-04-14T17:58:50Z</DateUtc></FrequencyChange></FrequencyChanges></Clock>\n"	Arrow Flanker 2014-12180-1	60.018	1.0.0.100	1	-1855641731	Professional	2.0.10.353	2.0.10.353	04-14-2015	4/14/2015 5:58:50 PM	13:58:50	2.0.10.248	1	NA	NA	NA	NA	NA	NA	NA	NA	NA	NA	NA	NA	NA	1	1	1	NA	NA	NA	NA	NA	NA	NA	NA	NA	NA	NA	MapBlockProc	MapBlockList	NA	2	{LEFTARROW}	-100	NA	788	NA	1	1	2	0	17	137535	799	1	{LEFTARROW}	-999999	0	138834	0	{LEFTARROW}	425	139259	NA	NA	NA	NA	NA	NA	MapTrialProc	MapTrialList	NA	NA	NA	NA	NA	NA	NA	NA	NA	NA	NA	NA	NA	NA	NA	NA	NA	NA	left	NA	L.bmp	354	NA	NA	NA	NA	NA	NA	NA	NA	NA	NA	NA	NA	NA	NA	NA	NA	NA	NA	NA	NA	NA
Arrow Flanker 2014	12180	1	"<?xml version=""1.0""?>\n<Clock xmlns:dt=""urn:schemas-microsoft-com:datatypes""><Description dt:dt=""string"">E-Prime Primary Realtime Clock</Description><StartTime><Timestamp dt:dt=""int"">0</Timestamp><DateUtc dt:dt=""string"">2015-04-14T17:58:50Z</DateUtc></StartTime><FrequencyChanges><FrequencyChange><Frequency dt:dt=""r8"">2825654</Frequency><Timestamp dt:dt=""r8"">3189304526267</Timestamp><Current dt:dt=""r8"">0</Current><DateUtc dt:dt=""string"">2015-04-14T17:58:50Z</DateUtc></FrequencyChange></FrequencyChanges></Clock>\n"	Arrow Flanker 2014-12180-1	60.018	1.0.0.100	1	-1855641731	Professional	2.0.10.353	2.0.10.353	04-14-2015	4/14/2015 5:58:50 PM	13:58:50	2.0.10.248	1	NA	NA	NA	NA	NA	NA	NA	NA	NA	NA	NA	NA	NA	1	1	1	NA	NA	NA	NA	NA	NA	NA	NA	NA	NA	NA	MapBlockProc	MapBlockList	NA	3	{RIGHTARROW}	-100	NA	1064	NA	2	1	3	0	16	140800	1067	1	{RIGHTARROW}	-999999	0	142367	0	{RIGHTARROW}	588	142955	NA	NA	NA	NA	NA	NA	MapTrialProc	MapTrialList	NA	NA	NA	NA	NA	NA	NA	NA	NA	NA	NA	NA	NA	NA	NA	NA	NA	NA	right	NA	R.bmp	354	NA	NA	NA	NA	NA	NA	NA	NA	NA	NA	NA	NA	NA	NA	NA	NA	NA	NA	NA	NA	NA
Arrow Flanker 2014	12180	1	"<?xml version=""1.0""?>\n<Clock xmlns:dt=""urn:schemas-microsoft-com:datatypes""><Description dt:dt=""string"">E-Prime Primary Realtime Clock</Description><StartTime><Timestamp dt:dt=""int"">0</Timestamp><DateUtc dt:dt=""string"">2015-04-14T17:58:50Z</DateUtc></StartTime><FrequencyChanges><FrequencyChange><Frequency dt:dt=""r8"">2825654</Frequency><Timestamp dt:dt=""r8"">3189304526267</Timestamp><Current dt:dt=""r8"">0</Current><DateUtc dt:dt=""string"">2015-04-14T17:58:50Z</DateUtc></FrequencyChange></FrequencyChanges></Clock>\n"	Arrow Flanker 2014-12180-1	60.018	1.0.0.100	1	-1855641731	Professional	2.0.10.353	2.0.10.353	04-14-2015	4/14/2015 5:58:50 PM	13:58:50	2.0.10.248	1	NA	NA	NA	NA	NA	NA	NA	NA	NA	NA	NA	NA	NA	1	1	1	NA	NA	NA	NA	NA	NA	NA	NA	NA	NA	NA	MapBlockProc	MapBlockList	NA	4	{RIGHTARROW}	-100	NA	652	NA	2	1	4	0	17	144483	666	1	{RIGHTARROW}	-999999	0	145649	0	{RIGHTARROW}	457	146106	NA	NA	NA	NA	NA	NA	MapTrialProc	MapTrialList	NA	NA	NA	NA	NA	NA	NA	NA	NA	NA	NA	NA	NA	NA	NA	NA	NA	NA	right	NA	R.bmp	354	NA	NA	NA	NA	NA	NA	NA	NA	NA	NA	NA	NA	NA	NA	NA	NA	NA	NA	NA	NA	NA
Arrow Flanker 2014	12180	1	"<?xml version=""1.0""?>\n<Clock xmlns:dt=""urn:schemas-microsoft-com:datatypes""><Description dt:dt=""string"">E-Prime Primary Realtime Clock</Description><StartTime><Timestamp dt:dt=""int"">0</Timestamp><DateUtc dt:dt=""string"">2015-04-14T17:58:50Z</DateUtc></StartTime><FrequencyChanges><FrequencyChange><Frequency dt:dt=""r8"">2825654</Frequency><Timestamp dt:dt=""r8"">3189304526267</Timestamp><Current dt:dt=""r8"">0</Current><DateUtc dt:dt=""string"">2015-04-14T17:58:50Z</DateUtc></FrequencyChange></FrequencyChanges></Clock>\n"	Arrow Flanker 2014-12180-1	60.018	1.0.0.100	1	-1855641731	Professional	2.0.10.353	2.0.10.353	04-14-2015	4/14/2015 5:58:50 PM	13:58:50	2.0.10.248	1	NA	NA	NA	NA	NA	NA	NA	NA	NA	NA	NA	NA	NA	1	1	1	NA	NA	NA	NA	NA	NA	NA	NA	NA	NA	NA	MapBlockProc	MapBlockList	NA	5	{RIGHTARROW}	-100	NA	1198	NA	2	1	5	0	16	147648	1200	1	{RIGHTARROW}	-999999	0	149348	0	{RIGHTARROW}	598	149946	NA	NA	NA	NA	NA	NA	MapTrialProc	MapTrialList	NA	NA	NA	NA	NA	NA	NA	NA	NA	NA	NA	NA	NA	NA	NA	NA	NA	NA	right	NA	R.bmp	354	NA	NA	NA	NA	NA	NA	NA	NA	NA	NA	NA	NA	NA	NA	NA	NA	NA	NA	NA	NA	NA
Arrow Flanker 2014	12180	1	"<?xml version=""1.0""?>\n<Clock xmlns:dt=""urn:schemas-microsoft-com:datatypes""><Description dt:dt=""string"">E-Prime Primary Realtime Clock</Description><StartTime><Timestamp dt:dt=""int"">0</Timestamp><DateUtc dt:dt=""string"">2015-04-14T17:58:50Z</DateUtc></StartTime><FrequencyChanges><FrequencyChange><Frequency dt:dt=""r8"">2825654</Frequency><Timestamp dt:dt=""r8"">3189304526267</Timestamp><Current dt:dt=""r8"">0</Current><DateUtc dt:dt=""string"">2015-04-14T17:58:50Z</DateUtc></FrequencyChange></FrequencyChanges></Clock>\n"	Arrow Flanker 2014-12180-1	60.018	1.0.0.100	1	-1855641731	Professional	2.0.10.353	2.0.10.353	04-14-2015	4/14/2015 5:58:50 PM	13:58:50	2.0.10.248	1	NA	NA	NA	NA	NA	NA	NA	NA	NA	NA	NA	NA	NA	1	1	1	NA	NA	NA	NA	NA	NA	NA	NA	NA	NA	NA	MapBlockProc	MapBlockList	NA	6	{LEFTARROW}	-100	NA	558	NA	1	1	6	0	16	151480	567	1	{LEFTARROW}	-999999	0	152547	0	{LEFTARROW}	615	153162	NA	NA	NA	NA	NA	NA	MapTrialProc	MapTrialList	NA	NA	NA	NA	NA	NA	NA	NA	NA	NA	NA	NA	NA	NA	NA	NA	NA	NA	left	NA	L.bmp	354	NA	NA	NA	NA	NA	NA	NA	NA	NA	NA	NA	NA	NA	NA	NA	NA	NA	NA	NA	NA	NA
Arrow Flanker 2014	12180	1	"<?xml version=""1.0""?>\n<Clock xmlns:dt=""urn:schemas-microsoft-com:datatypes""><Description dt:dt=""string"">E-Prime Primary Realtime Clock</Description><StartTime><Timestamp dt:dt=""int"">0</Timestamp><DateUtc dt:dt=""string"">2015-04-14T17:58:50Z</DateUtc></StartTime><FrequencyChanges><FrequencyChange><Frequency dt:dt=""r8"">2825654</Frequency><Timestamp dt:dt=""r8"">3189304526267</Timestamp><Current dt:dt=""r8"">0</Current><DateUtc dt:dt=""string"">2015-04-14T17:58:50Z</DateUtc></FrequencyChange></FrequencyChanges></Clock>\n"	Arrow Flanker 2014-12180-1	60.018	1.0.0.100	1	-1855641731	Professional	2.0.10.353	2.0.10.353	04-14-2015	4/14/2015 5:58:50 PM	13:58:50	2.0.10.248	1	NA	NA	NA	NA	NA	NA	NA	NA	NA	NA	NA	NA	NA	1	1	1	NA	NA	NA	NA	NA	NA	NA	NA	NA	NA	NA	MapBlockProc	MapBlockList	NA	7	{RIGHTARROW}	-100	NA	1414	NA	2	1	7	0	16	154696	1416	1	{RIGHTARROW}	-999999	0	156612	0	{RIGHTARROW}	598	157210	NA	NA	NA	NA	NA	NA	MapTrialProc	MapTrialList	NA	NA	NA	NA	NA	NA	NA	NA	NA	NA	NA	NA	NA	NA	NA	NA	NA	NA	right	NA	R.bmp	354	NA	NA	NA	NA	NA	NA	NA	NA	NA	NA	NA	NA	NA	NA	NA	NA	NA	NA	NA	NA	NA
Arrow Flanker 2014	12180	1	"<?xml version=""1.0""?>\n<Clock xmlns:dt=""urn:schemas-microsoft-com:datatypes""><Description dt:dt=""string"">E-Prime Primary Realtime Clock</Description><StartTime><Timestamp dt:dt=""int"">0</Timestamp><DateUtc dt:dt=""string"">2015-04-14T17:58:50Z</DateUtc></StartTime><FrequencyChanges><FrequencyChange><Frequency dt:dt=""r8"">2825654</Frequency><Timestamp dt:dt=""r8"">3189304526267</Timestamp><Current dt:dt=""r8"">0</Current><DateUtc dt:dt=""string"">2015-04-14T17:58:50Z</DateUtc></FrequencyChange></FrequencyChanges></Clock>\n"	Arrow Flanker 2014-12180-1	60.018	1.0.0.100	1	-1855641731	Professional	2.0.10.353	2.0.10.353	04-14-2015	4/14/2015 5:58:50 PM	13:58:50	2.0.10.248	1	NA	NA	NA	NA	NA	NA	NA	NA	NA	NA	NA	NA	NA	1	1	1	NA	NA	NA	NA	NA	NA	NA	NA	NA	NA	NA	MapBlockProc	MapBlockList	NA	8	{RIGHTARROW}	-100	NA	1053	NA	2	1	8	0	16	158745	1066	1	{RIGHTARROW}	-999999	0	160311	0	{RIGHTARROW}	403	160714	NA	NA	NA	NA	NA	NA	MapTrialProc	MapTrialList	NA	NA	NA	NA	NA	NA	NA	NA	NA	NA	NA	NA	NA	NA	NA	NA	NA	NA	right	NA	R.bmp	354	NA	NA	NA	NA	NA	NA	NA	NA	NA	NA	NA	NA	NA	NA	NA	NA	NA	NA	NA	NA	NA
Arrow Flanker 2014	12180	1	"<?xml version=""1.0""?>\n<Clock xmlns:dt=""urn:schemas-microsoft-com:datatypes""><Description dt:dt=""string"">E-Prime Primary Realtime Clock</Description><StartTime><Timestamp dt:dt=""int"">0</Timestamp><DateUtc dt:dt=""string"">2015-04-14T17:58:50Z</DateUtc></StartTime><FrequencyChanges><FrequencyChange><Frequency dt:dt=""r8"">2825654</Frequency><Timestamp dt:dt=""r8"">3189304526267</Timestamp><Current dt:dt=""r8"">0</Current><DateUtc dt:dt=""string"">2015-04-14T17:58:50Z</DateUtc></FrequencyChange></FrequencyChanges></Clock>\n"	Arrow Flanker 2014-12180-1	60.018	1.0.0.100	1	-1855641731	Professional	2.0.10.353	2.0.10.353	04-14-2015	4/14/2015 5:58:50 PM	13:58:50	2.0.10.248	1	NA	NA	NA	NA	NA	NA	NA	NA	NA	NA	NA	NA	NA	1	1	1	NA	NA	NA	NA	NA	NA	NA	NA	NA	NA	NA	MapBlockProc	MapBlockList	NA	9	{LEFTARROW}	-100	NA	425	NA	1	1	9	0	16	162244	433	1	{LEFTARROW}	-999999	0	163177	0	{LEFTARROW}	560	163737	NA	NA	NA	NA	NA	NA	MapTrialProc	MapTrialList	NA	NA	NA	NA	NA	NA	NA	NA	NA	NA	NA	NA	NA	NA	NA	NA	NA	NA	left	NA	L.bmp	354	NA	NA	NA	NA	NA	NA	NA	NA	NA	NA	NA	NA	NA	NA	NA	NA	NA	NA	NA	NA	NA
Arrow Flanker 2014	12180	1	"<?xml version=""1.0""?>\n<Clock xmlns:dt=""urn:schemas-microsoft-com:datatypes""><Description dt:dt=""string"">E-Prime Primary Realtime Clock</Description><StartTime><Timestamp dt:dt=""int"">0</Timestamp><DateUtc dt:dt=""string"">2015-04-14T17:58:50Z</DateUtc></StartTime><FrequencyChanges><FrequencyChange><Frequency dt:dt=""r8"">2825654</Frequency><Timestamp dt:dt=""r8"">3189304526267</Timestamp><Current dt:dt=""r8"">0</Current><DateUtc dt:dt=""string"">2015-04-14T17:58:50Z</DateUtc></FrequencyChange></FrequencyChanges></Clock>\n"	Arrow Flanker 2014-12180-1	60.018	1.0.0.100	1	-1855641731	Professional	2.0.10.353	2.0.10.353	04-14-2015	4/14/2015 5:58:50 PM	13:58:50	2.0.10.248	1	NA	NA	NA	NA	NA	NA	NA	NA	NA	NA	NA	NA	NA	1	1	1	NA	NA	NA	NA	NA	NA	NA	NA	NA	NA	NA	MapBlockProc	MapBlockList	NA	10	{LEFTARROW}	-100	NA	1582	NA	1	1	10	0	17	165277	1582	1	{LEFTARROW}	-999999	0	167359	0	{LEFTARROW}	426	167785	NA	NA	NA	NA	NA	NA	MapTrialProc	MapTrialList	NA	NA	NA	NA	NA	NA	NA	NA	NA	NA	NA	NA	NA	NA	NA	NA	NA	NA	left	NA	L.bmp	354	NA	NA	NA	NA	NA	NA	NA	NA	NA	NA	NA	NA	NA	NA	NA	NA	NA	NA	NA	NA	NA
Arrow Flanker 2014	12180	1	"<?xml version=""1.0""?>\n<Clock xmlns:dt=""urn:schemas-microsoft-com:datatypes""><Description dt:dt=""string"">E-Prime Primary Realtime Clock</Description><StartTime><Timestamp dt:dt=""int"">0</Timestamp><DateUtc dt:dt=""string"">2015-04-14T17:58:50Z</DateUtc></StartTime><FrequencyChanges><FrequencyChange><Frequency dt:dt=""r8"">2825654</Frequency><Timestamp dt:dt=""r8"">3189304526267</Timestamp><Current dt:dt=""r8"">0</Current><DateUtc dt:dt=""string"">2015-04-14T17:58:50Z</DateUtc></FrequencyChange></FrequencyChanges></Clock>\n"	Arrow Flanker 2014-12180-1	60.018	1.0.0.100	1	-1855641731	Professional	2.0.10.353	2.0.10.353	04-14-2015	4/14/2015 5:58:50 PM	13:58:50	2.0.10.248	2	NA	NA	NA	NA	NA	NA	NA	NA	NA	NA	NA	NA	NA	NA	NA	NA	NA	NA	NA	NA	NA	NA	NA	NA	1	1	1	PracBlockProc	PracBlockList	NA	1	{LEFTARROW}	-100	NA	1431	congruent	NA	NA	NA	0	20	193068	1433	1	{LEFTARROW}	-999999	0	195001	0	{LEFTARROW}	735	195736	NA	1	1	1	NA	NA	PracTrialProc	PracTrialList	NA	NA	NA	NA	NA	NA	NA	NA	NA	NA	NA	NA	NA	NA	NA	NA	NA	NA	left	NA	lllll.bmp	354	NA	NA	NA	NA	NA	NA	NA	NA	NA	NA	NA	NA	NA	NA	NA	NA	NA	NA	NA	NA	NA
Arrow Flanker 2014	12180	1	"<?xml version=""1.0""?>\n<Clock xmlns:dt=""urn:schemas-microsoft-com:datatypes""><Description dt:dt=""string"">E-Prime Primary Realtime Clock</Description><StartTime><Timestamp dt:dt=""int"">0</Timestamp><DateUtc dt:dt=""string"">2015-04-14T17:58:50Z</DateUtc></StartTime><FrequencyChanges><FrequencyChange><Frequency dt:dt=""r8"">2825654</Frequency><Timestamp dt:dt=""r8"">3189304526267</Timestamp><Current dt:dt=""r8"">0</Current><DateUtc dt:dt=""string"">2015-04-14T17:58:50Z</DateUtc></FrequencyChange></FrequencyChanges></Clock>\n"	Arrow Flanker 2014-12180-1	60.018	1.0.0.100	1	-1855641731	Professional	2.0.10.353	2.0.10.353	04-14-2015	4/14/2015 5:58:50 PM	13:58:50	2.0.10.248	2	NA	NA	NA	NA	NA	NA	NA	NA	NA	NA	NA	NA	NA	NA	NA	NA	NA	NA	NA	NA	NA	NA	NA	NA	1	1	1	PracBlockProc	PracBlockList	NA	2	{RIGHTARROW}	-100	NA	665	neutral	NA	NA	NA	0	16	197267	667	1	{RIGHTARROW}	-999999	0	198433	0	{RIGHTARROW}	678	199111	NA	6	1	2	NA	NA	PracTrialProc	PracTrialList	NA	NA	NA	NA	NA	NA	NA	NA	NA	NA	NA	NA	NA	NA	NA	NA	NA	NA	right	NA	ooroo.bmp	354	NA	NA	NA	NA	NA	NA	NA	NA	NA	NA	NA	NA	NA	NA	NA	NA	NA	NA	NA	NA	NA
Arrow Flanker 2014	12180	1	"<?xml version=""1.0""?>\n<Clock xmlns:dt=""urn:schemas-microsoft-com:datatypes""><Description dt:dt=""string"">E-Prime Primary Realtime Clock</Description><StartTime><Timestamp dt:dt=""int"">0</Timestamp><DateUtc dt:dt=""string"">2015-04-14T17:58:50Z</DateUtc></StartTime><FrequencyChanges><FrequencyChange><Frequency dt:dt=""r8"">2825654</Frequency><Timestamp dt:dt=""r8"">3189304526267</Timestamp><Current dt:dt=""r8"">0</Current><DateUtc dt:dt=""string"">2015-04-14T17:58:50Z</DateUtc></FrequencyChange></FrequencyChanges></Clock>\n"	Arrow Flanker 2014-12180-1	60.018	1.0.0.100	1	-1855641731	Professional	2.0.10.353	2.0.10.353	04-14-2015	4/14/2015 5:58:50 PM	13:58:50	2.0.10.248	2	NA	NA	NA	NA	NA	NA	NA	NA	NA	NA	NA	NA	NA	NA	NA	NA	NA	NA	NA	NA	NA	NA	NA	NA	1	1	1	PracBlockProc	PracBlockList	NA	3	{RIGHTARROW}	-100	NA	1057	incongruent	NA	NA	NA	0	16	200649	1067	1	{RIGHTARROW}	-999999	0	202216	0	{RIGHTARROW}	1119	203335	NA	5	1	3	NA	NA	PracTrialProc	PracTrialList	NA	NA	NA	NA	NA	NA	NA	NA	NA	NA	NA	NA	NA	NA	NA	NA	NA	NA	right	NA	llrll.bmp	354	NA	NA	NA	NA	NA	NA	NA	NA	NA	NA	NA	NA	NA	NA	NA	NA	NA	NA	NA	NA	NA
Arrow Flanker 2014	12180	1	"<?xml version=""1.0""?>\n<Clock xmlns:dt=""urn:schemas-microsoft-com:datatypes""><Description dt:dt=""string"">E-Prime Primary Realtime Clock</Description><StartTime><Timestamp dt:dt=""int"">0</Timestamp><DateUtc dt:dt=""string"">2015-04-14T17:58:50Z</DateUtc></StartTime><FrequencyChanges><FrequencyChange><Frequency dt:dt=""r8"">2825654</Frequency><Timestamp dt:dt=""r8"">3189304526267</Timestamp><Current dt:dt=""r8"">0</Current><DateUtc dt:dt=""string"">2015-04-14T17:58:50Z</DateUtc></FrequencyChange></FrequencyChanges></Clock>\n"	Arrow Flanker 2014-12180-1	60.018	1.0.0.100	1	-1855641731	Professional	2.0.10.353	2.0.10.353	04-14-2015	4/14/2015 5:58:50 PM	13:58:50	2.0.10.248	2	NA	NA	NA	NA	NA	NA	NA	NA	NA	NA	NA	NA	NA	NA	NA	NA	NA	NA	NA	NA	NA	NA	NA	NA	1	1	1	PracBlockProc	PracBlockList	NA	4	{LEFTARROW}	-100	NA	890	neutral	NA	NA	NA	0	17	204865	899	1	{LEFTARROW}	-999999	0	206264	0	{LEFTARROW}	543	206807	NA	3	1	4	NA	NA	PracTrialProc	PracTrialList	NA	NA	NA	NA	NA	NA	NA	NA	NA	NA	NA	NA	NA	NA	NA	NA	NA	NA	left	NA	ooloo.bmp	354	NA	NA	NA	NA	NA	NA	NA	NA	NA	NA	NA	NA	NA	NA	NA	NA	NA	NA	NA	NA	NA
Arrow Flanker 2014	12180	1	"<?xml version=""1.0""?>\n<Clock xmlns:dt=""urn:schemas-microsoft-com:datatypes""><Description dt:dt=""string"">E-Prime Primary Realtime Clock</Description><StartTime><Timestamp dt:dt=""int"">0</Timestamp><DateUtc dt:dt=""string"">2015-04-14T17:58:50Z</DateUtc></StartTime><FrequencyChanges><FrequencyChange><Frequency dt:dt=""r8"">2825654</Frequency><Timestamp dt:dt=""r8"">3189304526267</Timestamp><Current dt:dt=""r8"">0</Current><DateUtc dt:dt=""string"">2015-04-14T17:58:50Z</DateUtc></FrequencyChange></FrequencyChanges></Clock>\n"	Arrow Flanker 2014-12180-1	60.018	1.0.0.100	1	-1855641731	Professional	2.0.10.353	2.0.10.353	04-14-2015	4/14/2015 5:58:50 PM	13:58:50	2.0.10.248	2	NA	NA	NA	NA	NA	NA	NA	NA	NA	NA	NA	NA	NA	NA	NA	NA	NA	NA	NA	NA	NA	NA	NA	NA	1	1	1	PracBlockProc	PracBlockList	NA	5	{LEFTARROW}	-100	NA	431	incongruent	NA	NA	NA	0	16	208347	433	1	{LEFTARROW}	-999999	0	209280	0	{LEFTARROW}	743	210023	NA	2	1	5	NA	NA	PracTrialProc	PracTrialList	NA	NA	NA	NA	NA	NA	NA	NA	NA	NA	NA	NA	NA	NA	NA	NA	NA	NA	left	NA	rrlrr.bmp	354	NA	NA	NA	NA	NA	NA	NA	NA	NA	NA	NA	NA	NA	NA	NA	NA	NA	NA	NA	NA	NA
Arrow Flanker 2014	12180	1	"<?xml version=""1.0""?>\n<Clock xmlns:dt=""urn:schemas-microsoft-com:datatypes""><Description dt:dt=""string"">E-Prime Primary Realtime Clock</Description><StartTime><Timestamp dt:dt=""int"">0</Timestamp><DateUtc dt:dt=""string"">2015-04-14T17:58:50Z</DateUtc></StartTime><FrequencyChanges><FrequencyChange><Frequency dt:dt=""r8"">2825654</Frequency><Timestamp dt:dt=""r8"">3189304526267</Timestamp><Current dt:dt=""r8"">0</Current><DateUtc dt:dt=""string"">2015-04-14T17:58:50Z</DateUtc></FrequencyChange></FrequencyChanges></Clock>\n"	Arrow Flanker 2014-12180-1	60.018	1.0.0.100	1	-1855641731	Professional	2.0.10.353	2.0.10.353	04-14-2015	4/14/2015 5:58:50 PM	13:58:50	2.0.10.248	2	NA	NA	NA	NA	NA	NA	NA	NA	NA	NA	NA	NA	NA	NA	NA	NA	NA	NA	NA	NA	NA	NA	NA	NA	1	1	1	PracBlockProc	PracBlockList	NA	6	{RIGHTARROW}	-100	NA	1102	congruent	NA	NA	NA	0	16	211563	1116	1	{RIGHTARROW}	-999999	0	213179	0	{RIGHTARROW}	700	213879	NA	4	1	6	NA	NA	PracTrialProc	PracTrialList	NA	NA	NA	NA	NA	NA	NA	NA	NA	NA	NA	NA	NA	NA	NA	NA	NA	NA	right	NA	rrrrr.bmp	354	NA	NA	NA	NA	NA	NA	NA	NA	NA	NA	NA	NA	NA	NA	NA	NA	NA	NA	NA	NA	NA
Arrow Flanker 2014	12180	1	"<?xml version=""1.0""?>\n<Clock xmlns:dt=""urn:schemas-microsoft-com:datatypes""><Description dt:dt=""string"">E-Prime Primary Realtime Clock</Description><StartTime><Timestamp dt:dt=""int"">0</Timestamp><DateUtc dt:dt=""string"">2015-04-14T17:58:50Z</DateUtc></StartTime><FrequencyChanges><FrequencyChange><Frequency dt:dt=""r8"">2825654</Frequency><Timestamp dt:dt=""r8"">3189304526267</Timestamp><Current dt:dt=""r8"">0</Current><DateUtc dt:dt=""string"">2015-04-14T17:58:50Z</DateUtc></FrequencyChange></FrequencyChanges></Clock>\n"	Arrow Flanker 2014-12180-1	60.018	1.0.0.100	1	-1855641731	Professional	2.0.10.353	2.0.10.353	04-14-2015	4/14/2015 5:58:50 PM	13:58:50	2.0.10.248	3	1	1	1	NA	NA	NA	NA	NA	NA	NA	NA	NA	NA	NA	NA	NA	NA	NA	NA	NA	NA	NA	NA	NA	NA	NA	NA	BlockProc	BlockList	NA	1	{LEFTARROW}	NA	-100	2206	neutral	NA	NA	NA	NA	NA	NA	NA	NA	NA	NA	NA	NA	NA	NA	NA	NA	NA	NA	NA	NA	NA	NA	TrialProc	TrialList	0	18	229608	16	0	17	227125	1499	1	{LEFTARROW}	-999999	0	229124	0	{LEFTARROW}	466	229590	NA	NA	left	ooloo.bmp	354	0	NA	0	0	0	0	NA	0	0	0	NA	0	0	0	0	NA	0	0	5	1	1
Arrow Flanker 2014	12180	1	"<?xml version=""1.0""?>\n<Clock xmlns:dt=""urn:schemas-microsoft-com:datatypes""><Description dt:dt=""string"">E-Prime Primary Realtime Clock</Description><StartTime><Timestamp dt:dt=""int"">0</Timestamp><DateUtc dt:dt=""string"">2015-04-14T17:58:50Z</DateUtc></StartTime><FrequencyChanges><FrequencyChange><Frequency dt:dt=""r8"">2825654</Frequency><Timestamp dt:dt=""r8"">3189304526267</Timestamp><Current dt:dt=""r8"">0</Current><DateUtc dt:dt=""string"">2015-04-14T17:58:50Z</DateUtc></FrequencyChange></FrequencyChanges></Clock>\n"	Arrow Flanker 2014-12180-1	60.018	1.0.0.100	1	-1855641731	Professional	2.0.10.353	2.0.10.353	04-14-2015	4/14/2015 5:58:50 PM	13:58:50	2.0.10.248	3	1	1	1	NA	NA	NA	NA	NA	NA	NA	NA	NA	NA	NA	NA	NA	NA	NA	NA	NA	NA	NA	NA	NA	NA	NA	NA	BlockProc	BlockList	NA	2	{RIGHTARROW}	NA	-100	1848	neutral	NA	NA	NA	NA	NA	NA	NA	NA	NA	NA	NA	NA	NA	NA	NA	NA	NA	NA	NA	NA	NA	NA	TrialProc	TrialList	1	7	232573	17	0	17	230141	1349	1	{RIGHTARROW}	-999999	0	231990	0	{RIGHTARROW}	575	232565	NA	NA	right	ooroo.bmp	354	0	NA	0	0	0	0	NA	0	0	0	NA	0	0	0	0	NA	0	0	6	1	2
Arrow Flanker 2014	12180	1	"<?xml version=""1.0""?>\n<Clock xmlns:dt=""urn:schemas-microsoft-com:datatypes""><Description dt:dt=""string"">E-Prime Primary Realtime Clock</Description><StartTime><Timestamp dt:dt=""int"">0</Timestamp><DateUtc dt:dt=""string"">2015-04-14T17:58:50Z</DateUtc></StartTime><FrequencyChanges><FrequencyChange><Frequency dt:dt=""r8"">2825654</Frequency><Timestamp dt:dt=""r8"">3189304526267</Timestamp><Current dt:dt=""r8"">0</Current><DateUtc dt:dt=""string"">2015-04-14T17:58:50Z</DateUtc></FrequencyChange></FrequencyChanges></Clock>\n"	Arrow Flanker 2014-12180-1	60.018	1.0.0.100	1	-1855641731	Professional	2.0.10.353	2.0.10.353	04-14-2015	4/14/2015 5:58:50 PM	13:58:50	2.0.10.248	3	1	1	1	NA	NA	NA	NA	NA	NA	NA	NA	NA	NA	NA	NA	NA	NA	NA	NA	NA	NA	NA	NA	NA	NA	NA	NA	BlockProc	BlockList	NA	3	{RIGHTARROW}	NA	-100	2268	neutral	NA	NA	NA	NA	NA	NA	NA	NA	NA	NA	NA	NA	NA	NA	NA	NA	NA	NA	NA	NA	NA	NA	TrialProc	TrialList	0	20	235689	17	0	16	233106	1600	1	{RIGHTARROW}	-999999	0	235206	0	{RIGHTARROW}	463	235669	NA	NA	right	ooroo.bmp	354	0	NA	0	0	0	0	NA	0	0	0	NA	0	0	0	0	NA	0	0	6	1	3
Arrow Flanker 2014	12180	1	"<?xml version=""1.0""?>\n<Clock xmlns:dt=""urn:schemas-microsoft-com:datatypes""><Description dt:dt=""string"">E-Prime Primary Realtime Clock</Description><StartTime><Timestamp dt:dt=""int"">0</Timestamp><DateUtc dt:dt=""string"">2015-04-14T17:58:50Z</DateUtc></StartTime><FrequencyChanges><FrequencyChange><Frequency dt:dt=""r8"">2825654</Frequency><Timestamp dt:dt=""r8"">3189304526267</Timestamp><Current dt:dt=""r8"">0</Current><DateUtc dt:dt=""string"">2015-04-14T17:58:50Z</DateUtc></FrequencyChange></FrequencyChanges></Clock>\n"	Arrow Flanker 2014-12180-1	60.018	1.0.0.100	1	-1855641731	Professional	2.0.10.353	2.0.10.353	04-14-2015	4/14/2015 5:58:50 PM	13:58:50	2.0.10.248	3	1	1	1	NA	NA	NA	NA	NA	NA	NA	NA	NA	NA	NA	NA	NA	NA	NA	NA	NA	NA	NA	NA	NA	NA	NA	NA	BlockProc	BlockList	NA	4	{LEFTARROW}	NA	-100	1963	neutral	NA	NA	NA	NA	NA	NA	NA	NA	NA	NA	NA	NA	NA	NA	NA	NA	NA	NA	NA	NA	NA	NA	TrialProc	TrialList	0	14	238755	16	0	16	236222	1516	1	{LEFTARROW}	-999999	0	238238	0	{LEFTARROW}	503	238741	NA	NA	left	ooloo.bmp	354	0	NA	0	0	0	0	NA	0	0	0	NA	0	0	0	0	NA	0	0	5	1	4
Arrow Flanker 2014	12180	1	"<?xml version=""1.0""?>\n<Clock xmlns:dt=""urn:schemas-microsoft-com:datatypes""><Description dt:dt=""string"">E-Prime Primary Realtime Clock</Description><StartTime><Timestamp dt:dt=""int"">0</Timestamp><DateUtc dt:dt=""string"">2015-04-14T17:58:50Z</DateUtc></StartTime><FrequencyChanges><FrequencyChange><Frequency dt:dt=""r8"">2825654</Frequency><Timestamp dt:dt=""r8"">3189304526267</Timestamp><Current dt:dt=""r8"">0</Current><DateUtc dt:dt=""string"">2015-04-14T17:58:50Z</DateUtc></FrequencyChange></FrequencyChanges></Clock>\n"	Arrow Flanker 2014-12180-1	60.018	1.0.0.100	1	-1855641731	Professional	2.0.10.353	2.0.10.353	04-14-2015	4/14/2015 5:58:50 PM	13:58:50	2.0.10.248	3	1	1	1	NA	NA	NA	NA	NA	NA	NA	NA	NA	NA	NA	NA	NA	NA	NA	NA	NA	NA	NA	NA	NA	NA	NA	NA	BlockProc	BlockList	NA	5	{RIGHTARROW}	NA	-100	1348	neutral	NA	NA	NA	NA	NA	NA	NA	NA	NA	NA	NA	NA	NA	NA	NA	NA	NA	NA	NA	NA	NA	NA	TrialProc	TrialList	0	18	241271	16	0	17	239288	983	1	{RIGHTARROW}	-999999	0	240771	0	{RIGHTARROW}	482	241253	NA	NA	right	ooroo.bmp	354	0	NA	0	0	0	0	NA	0	0	0	NA	0	0	0	0	NA	0	0	6	1	5
Arrow Flanker 2014	12180	1	"<?xml version=""1.0""?>\n<Clock xmlns:dt=""urn:schemas-microsoft-com:datatypes""><Description dt:dt=""string"">E-Prime Primary Realtime Clock</Description><StartTime><Timestamp dt:dt=""int"">0</Timestamp><DateUtc dt:dt=""string"">2015-04-14T17:58:50Z</DateUtc></StartTime><FrequencyChanges><FrequencyChange><Frequency dt:dt=""r8"">2825654</Frequency><Timestamp dt:dt=""r8"">3189304526267</Timestamp><Current dt:dt=""r8"">0</Current><DateUtc dt:dt=""string"">2015-04-14T17:58:50Z</DateUtc></FrequencyChange></FrequencyChanges></Clock>\n"	Arrow Flanker 2014-12180-1	60.018	1.0.0.100	1	-1855641731	Professional	2.0.10.353	2.0.10.353	04-14-2015	4/14/2015 5:58:50 PM	13:58:50	2.0.10.248	3	1	1	1	NA	NA	NA	NA	NA	NA	NA	NA	NA	NA	NA	NA	NA	NA	NA	NA	NA	NA	NA	NA	NA	NA	NA	NA	BlockProc	BlockList	NA	6	{LEFTARROW}	NA	-100	2111	congruent	NA	NA	NA	NA	NA	NA	NA	NA	NA	NA	NA	NA	NA	NA	NA	NA	NA	NA	NA	NA	NA	NA	TrialProc	TrialList	0	8	244653	17	0	17	241804	1599	1	{LEFTARROW}	-999999	0	243903	0	{LEFTARROW}	742	244645	NA	NA	left	lllll.bmp	354	0	NA	0	0	0	0	NA	0	0	0	NA	0	0	0	0	NA	0	0	1	1	6
Arrow Flanker 2014	12180	1	"<?xml version=""1.0""?>\n<Clock xmlns:dt=""urn:schemas-microsoft-com:datatypes""><Description dt:dt=""string"">E-Prime Primary Realtime Clock</Description><StartTime><Timestamp dt:dt=""int"">0</Timestamp><DateUtc dt:dt=""string"">2015-04-14T17:58:50Z</DateUtc></StartTime><FrequencyChanges><FrequencyChange><Frequency dt:dt=""r8"">2825654</Frequency><Timestamp dt:dt=""r8"">3189304526267</Timestamp><Current dt:dt=""r8"">0</Current><DateUtc dt:dt=""string"">2015-04-14T17:58:50Z</DateUtc></FrequencyChange></FrequencyChanges></Clock>\n"	Arrow Flanker 2014-12180-1	60.018	1.0.0.100	1	-1855641731	Professional	2.0.10.353	2.0.10.353	04-14-2015	4/14/2015 5:58:50 PM	13:58:50	2.0.10.248	3	1	1	1	NA	NA	NA	NA	NA	NA	NA	NA	NA	NA	NA	NA	NA	NA	NA	NA	NA	NA	NA	NA	NA	NA	NA	NA	BlockProc	BlockList	NA	7	{LEFTARROW}	NA	-100	963	neutral	NA	NA	NA	NA	NA	NA	NA	NA	NA	NA	NA	NA	NA	NA	NA	NA	NA	NA	NA	NA	NA	NA	TrialProc	TrialList	0	19	246936	16	0	16	245186	517	1	{LEFTARROW}	-999999	16	246219	0	{LEFTARROW}	698	246917	NA	NA	left	ooloo.bmp	354	0	NA	0	0	0	0	NA	0	0	0	NA	0	0	0	0	NA	0	0	5	1	7
Arrow Flanker 2014	12180	1	"<?xml version=""1.0""?>\n<Clock xmlns:dt=""urn:schemas-microsoft-com:datatypes""><Description dt:dt=""string"">E-Prime Primary Realtime Clock</Description><StartTime><Timestamp dt:dt=""int"">0</Timestamp><DateUtc dt:dt=""string"">2015-04-14T17:58:50Z</DateUtc></StartTime><FrequencyChanges><FrequencyChange><Frequency dt:dt=""r8"">2825654</Frequency><Timestamp dt:dt=""r8"">3189304526267</Timestamp><Current dt:dt=""r8"">0</Current><DateUtc dt:dt=""string"">2015-04-14T17:58:50Z</DateUtc></FrequencyChange></FrequencyChanges></Clock>\n"	Arrow Flanker 2014-12180-1	60.018	1.0.0.100	1	-1855641731	Professional	2.0.10.353	2.0.10.353	04-14-2015	4/14/2015 5:58:50 PM	13:58:50	2.0.10.248	3	1	1	1	NA	NA	NA	NA	NA	NA	NA	NA	NA	NA	NA	NA	NA	NA	NA	NA	NA	NA	NA	NA	NA	NA	NA	NA	BlockProc	BlockList	NA	8	{LEFTARROW}	NA	-100	1983	congruent	NA	NA	NA	NA	NA	NA	NA	NA	NA	NA	NA	NA	NA	NA	NA	NA	NA	NA	NA	NA	NA	NA	TrialProc	TrialList	0	18	249335	17	0	17	247469	916	1	{LEFTARROW}	-999999	0	248885	0	{LEFTARROW}	431	249316	NA	NA	left	lllll.bmp	354	0	NA	0	0	0	0	NA	0	0	0	NA	0	0	0	0	NA	0	0	1	1	8
Arrow Flanker 2014	12180	1	"<?xml version=""1.0""?>\n<Clock xmlns:dt=""urn:schemas-microsoft-com:datatypes""><Description dt:dt=""string"">E-Prime Primary Realtime Clock</Description><StartTime><Timestamp dt:dt=""int"">0</Timestamp><DateUtc dt:dt=""string"">2015-04-14T17:58:50Z</DateUtc></StartTime><FrequencyChanges><FrequencyChange><Frequency dt:dt=""r8"">2825654</Frequency><Timestamp dt:dt=""r8"">3189304526267</Timestamp><Current dt:dt=""r8"">0</Current><DateUtc dt:dt=""string"">2015-04-14T17:58:50Z</DateUtc></FrequencyChange></FrequencyChanges></Clock>\n"	Arrow Flanker 2014-12180-1	60.018	1.0.0.100	1	-1855641731	Professional	2.0.10.353	2.0.10.353	04-14-2015	4/14/2015 5:58:50 PM	13:58:50	2.0.10.248	3	1	1	1	NA	NA	NA	NA	NA	NA	NA	NA	NA	NA	NA	NA	NA	NA	NA	NA	NA	NA	NA	NA	NA	NA	NA	NA	BlockProc	BlockList	NA	9	{LEFTARROW}	NA	-100	1465	incongruent	NA	NA	NA	NA	NA	NA	NA	NA	NA	NA	NA	NA	NA	NA	NA	NA	NA	NA	NA	NA	NA	NA	TrialProc	TrialList	1	12	251584	17	0	16	249868	500	1	{LEFTARROW}	-999999	0	250868	0	{LEFTARROW}	704	251572	NA	NA	left	rrlrr.bmp	354	0	NA	0	0	0	0	NA	0	0	0	NA	0	0	0	0	NA	0	0	3	1	9
Arrow Flanker 2014	12180	1	"<?xml version=""1.0""?>\n<Clock xmlns:dt=""urn:schemas-microsoft-com:datatypes""><Description dt:dt=""string"">E-Prime Primary Realtime Clock</Description><StartTime><Timestamp dt:dt=""int"">0</Timestamp><DateUtc dt:dt=""string"">2015-04-14T17:58:50Z</DateUtc></StartTime><FrequencyChanges><FrequencyChange><Frequency dt:dt=""r8"">2825654</Frequency><Timestamp dt:dt=""r8"">3189304526267</Timestamp><Current dt:dt=""r8"">0</Current><DateUtc dt:dt=""string"">2015-04-14T17:58:50Z</DateUtc></FrequencyChange></FrequencyChanges></Clock>\n"	Arrow Flanker 2014-12180-1	60.018	1.0.0.100	1	-1855641731	Professional	2.0.10.353	2.0.10.353	04-14-2015	4/14/2015 5:58:50 PM	13:58:50	2.0.10.248	3	1	1	1	NA	NA	NA	NA	NA	NA	NA	NA	NA	NA	NA	NA	NA	NA	NA	NA	NA	NA	NA	NA	NA	NA	NA	NA	BlockProc	BlockList	NA	10	{RIGHTARROW}	NA	-100	2207	neutral	NA	NA	NA	NA	NA	NA	NA	NA	NA	NA	NA	NA	NA	NA	NA	NA	NA	NA	NA	NA	NA	NA	TrialProc	TrialList	0	8	254284	16	0	16	252117	1033	1	{RIGHTARROW}	-999999	16	253667	0	{RIGHTARROW}	609	254276	NA	NA	right	ooroo.bmp	354	0	NA	0	0	0	0	NA	0	0	0	NA	0	0	0	0	NA	0	0	6	1	10
Arrow Flanker 2014	12180	1	"<?xml version=""1.0""?>\n<Clock xmlns:dt=""urn:schemas-microsoft-com:datatypes""><Description dt:dt=""string"">E-Prime Primary Realtime Clock</Description><StartTime><Timestamp dt:dt=""int"">0</Timestamp><DateUtc dt:dt=""string"">2015-04-14T17:58:50Z</DateUtc></StartTime><FrequencyChanges><FrequencyChange><Frequency dt:dt=""r8"">2825654</Frequency><Timestamp dt:dt=""r8"">3189304526267</Timestamp><Current dt:dt=""r8"">0</Current><DateUtc dt:dt=""string"">2015-04-14T17:58:50Z</DateUtc></FrequencyChange></FrequencyChanges></Clock>\n"	Arrow Flanker 2014-12180-1	60.018	1.0.0.100	1	-1855641731	Professional	2.0.10.353	2.0.10.353	04-14-2015	4/14/2015 5:58:50 PM	13:58:50	2.0.10.248	3	1	1	1	NA	NA	NA	NA	NA	NA	NA	NA	NA	NA	NA	NA	NA	NA	NA	NA	NA	NA	NA	NA	NA	NA	NA	NA	BlockProc	BlockList	NA	11	{LEFTARROW}	NA	-100	1792	incongruent	NA	NA	NA	NA	NA	NA	NA	NA	NA	NA	NA	NA	NA	NA	NA	NA	NA	NA	NA	NA	NA	NA	TrialProc	TrialList	0	16	257999	17	0	17	254817	1266	0	{LEFTARROW}	0	0	256583	1416	NA	0	0	NA	NA	left	rrlrr.bmp	354	0	NA	0	0	0	0	NA	0	0	0	NA	0	0	0	0	NA	0	0	3	1	11
Arrow Flanker 2014	12180	1	"<?xml version=""1.0""?>\n<Clock xmlns:dt=""urn:schemas-microsoft-com:datatypes""><Description dt:dt=""string"">E-Prime Primary Realtime Clock</Description><StartTime><Timestamp dt:dt=""int"">0</Timestamp><DateUtc dt:dt=""string"">2015-04-14T17:58:50Z</DateUtc></StartTime><FrequencyChanges><FrequencyChange><Frequency dt:dt=""r8"">2825654</Frequency><Timestamp dt:dt=""r8"">3189304526267</Timestamp><Current dt:dt=""r8"">0</Current><DateUtc dt:dt=""string"">2015-04-14T17:58:50Z</DateUtc></FrequencyChange></FrequencyChanges></Clock>\n"	Arrow Flanker 2014-12180-1	60.018	1.0.0.100	1	-1855641731	Professional	2.0.10.353	2.0.10.353	04-14-2015	4/14/2015 5:58:50 PM	13:58:50	2.0.10.248	3	1	1	1	NA	NA	NA	NA	NA	NA	NA	NA	NA	NA	NA	NA	NA	NA	NA	NA	NA	NA	NA	NA	NA	NA	NA	NA	BlockProc	BlockList	NA	12	{LEFTARROW}	NA	-100	2297	congruent	NA	NA	NA	NA	NA	NA	NA	NA	NA	NA	NA	NA	NA	NA	NA	NA	NA	NA	NA	NA	NA	NA	TrialProc	TrialList	1	7	261131	17	0	16	258532	1600	1	{LEFTARROW}	-999999	0	260632	0	{LEFTARROW}	492	261124	NA	NA	left	lllll.bmp	354	0	NA	0	0	0	0	NA	0	0	0	NA	0	0	0	0	NA	0	0	1	1	12
Arrow Flanker 2014	12180	1	"<?xml version=""1.0""?>\n<Clock xmlns:dt=""urn:schemas-microsoft-com:datatypes""><Description dt:dt=""string"">E-Prime Primary Realtime Clock</Description><StartTime><Timestamp dt:dt=""int"">0</Timestamp><DateUtc dt:dt=""string"">2015-04-14T17:58:50Z</DateUtc></StartTime><FrequencyChanges><FrequencyChange><Frequency dt:dt=""r8"">2825654</Frequency><Timestamp dt:dt=""r8"">3189304526267</Timestamp><Current dt:dt=""r8"">0</Current><DateUtc dt:dt=""string"">2015-04-14T17:58:50Z</DateUtc></FrequencyChange></FrequencyChanges></Clock>\n"	Arrow Flanker 2014-12180-1	60.018	1.0.0.100	1	-1855641731	Professional	2.0.10.353	2.0.10.353	04-14-2015	4/14/2015 5:58:50 PM	13:58:50	2.0.10.248	3	1	1	1	NA	NA	NA	NA	NA	NA	NA	NA	NA	NA	NA	NA	NA	NA	NA	NA	NA	NA	NA	NA	NA	NA	NA	NA	BlockProc	BlockList	NA	13	{RIGHTARROW}	NA	-100	1166	incongruent	NA	NA	NA	NA	NA	NA	NA	NA	NA	NA	NA	NA	NA	NA	NA	NA	NA	NA	NA	NA	NA	NA	TrialProc	TrialList	0	11	263231	16	0	17	261665	516	1	{RIGHTARROW}	-999999	0	262681	0	{RIGHTARROW}	539	263220	NA	NA	right	llrll.bmp	354	0	NA	0	0	0	0	NA	0	0	0	NA	0	0	0	0	NA	0	0	4	1	13
Arrow Flanker 2014	12180	1	"<?xml version=""1.0""?>\n<Clock xmlns:dt=""urn:schemas-microsoft-com:datatypes""><Description dt:dt=""string"">E-Prime Primary Realtime Clock</Description><StartTime><Timestamp dt:dt=""int"">0</Timestamp><DateUtc dt:dt=""string"">2015-04-14T17:58:50Z</DateUtc></StartTime><FrequencyChanges><FrequencyChange><Frequency dt:dt=""r8"">2825654</Frequency><Timestamp dt:dt=""r8"">3189304526267</Timestamp><Current dt:dt=""r8"">0</Current><DateUtc dt:dt=""string"">2015-04-14T17:58:50Z</DateUtc></FrequencyChange></FrequencyChanges></Clock>\n"	Arrow Flanker 2014-12180-1	60.018	1.0.0.100	1	-1855641731	Professional	2.0.10.353	2.0.10.353	04-14-2015	4/14/2015 5:58:50 PM	13:58:50	2.0.10.248	3	1	1	1	NA	NA	NA	NA	NA	NA	NA	NA	NA	NA	NA	NA	NA	NA	NA	NA	NA	NA	NA	NA	NA	NA	NA	NA	BlockProc	BlockList	NA	14	{LEFTARROW}	NA	-100	1781	neutral	NA	NA	NA	NA	NA	NA	NA	NA	NA	NA	NA	NA	NA	NA	NA	NA	NA	NA	NA	NA	NA	NA	TrialProc	TrialList	0	13	265697	16	0	17	263764	934	1	{LEFTARROW}	-999999	0	265214	0	{LEFTARROW}	469	265683	NA	NA	left	ooloo.bmp	354	0	NA	0	0	0	0	NA	0	0	0	NA	0	0	0	0	NA	0	0	5	1	14
Arrow Flanker 2014	12180	1	"<?xml version=""1.0""?>\n<Clock xmlns:dt=""urn:schemas-microsoft-com:datatypes""><Description dt:dt=""string"">E-Prime Primary Realtime Clock</Description><StartTime><Timestamp dt:dt=""int"">0</Timestamp><DateUtc dt:dt=""string"">2015-04-14T17:58:50Z</DateUtc></StartTime><FrequencyChanges><FrequencyChange><Frequency dt:dt=""r8"">2825654</Frequency><Timestamp dt:dt=""r8"">3189304526267</Timestamp><Current dt:dt=""r8"">0</Current><DateUtc dt:dt=""string"">2015-04-14T17:58:50Z</DateUtc></FrequencyChange></FrequencyChanges></Clock>\n"	Arrow Flanker 2014-12180-1	60.018	1.0.0.100	1	-1855641731	Professional	2.0.10.353	2.0.10.353	04-14-2015	4/14/2015 5:58:50 PM	13:58:50	2.0.10.248	3	1	1	1	NA	NA	NA	NA	NA	NA	NA	NA	NA	NA	NA	NA	NA	NA	NA	NA	NA	NA	NA	NA	NA	NA	NA	NA	BlockProc	BlockList	NA	15	{LEFTARROW}	NA	-100	2356	neutral	NA	NA	NA	NA	NA	NA	NA	NA	NA	NA	NA	NA	NA	NA	NA	NA	NA	NA	NA	NA	NA	NA	TrialProc	TrialList	0	18	268613	16	0	17	266230	1366	1	{LEFTARROW}	-999999	0	268096	0	{LEFTARROW}	499	268595	NA	NA	left	ooloo.bmp	354	0	NA	0	0	0	0	NA	0	0	0	NA	0	0	0	0	NA	0	0	5	1	15
Arrow Flanker 2014	12180	1	"<?xml version=""1.0""?>\n<Clock xmlns:dt=""urn:schemas-microsoft-com:datatypes""><Description dt:dt=""string"">E-Prime Primary Realtime Clock</Description><StartTime><Timestamp dt:dt=""int"">0</Timestamp><DateUtc dt:dt=""string"">2015-04-14T17:58:50Z</DateUtc></StartTime><FrequencyChanges><FrequencyChange><Frequency dt:dt=""r8"">2825654</Frequency><Timestamp dt:dt=""r8"">3189304526267</Timestamp><Current dt:dt=""r8"">0</Current><DateUtc dt:dt=""string"">2015-04-14T17:58:50Z</DateUtc></FrequencyChange></FrequencyChanges></Clock>\n"	Arrow Flanker 2014-12180-1	60.018	1.0.0.100	1	-1855641731	Professional	2.0.10.353	2.0.10.353	04-14-2015	4/14/2015 5:58:50 PM	13:58:50	2.0.10.248	3	1	1	1	NA	NA	NA	NA	NA	NA	NA	NA	NA	NA	NA	NA	NA	NA	NA	NA	NA	NA	NA	NA	NA	NA	NA	NA	BlockProc	BlockList	NA	16	{LEFTARROW}	NA	-100	2578	incongruent	NA	NA	NA	NA	NA	NA	NA	NA	NA	NA	NA	NA	NA	NA	NA	NA	NA	NA	NA	NA	NA	NA	TrialProc	TrialList	0	15	271762	16	0	17	269146	1483	1	{LEFTARROW}	-999999	-1	271128	0	{LEFTARROW}	619	271747	NA	NA	left	rrlrr.bmp	354	0	NA	0	0	0	0	NA	0	0	0	NA	0	0	0	0	NA	0	0	3	1	16
Arrow Flanker 2014	12180	1	"<?xml version=""1.0""?>\n<Clock xmlns:dt=""urn:schemas-microsoft-com:datatypes""><Description dt:dt=""string"">E-Prime Primary Realtime Clock</Description><StartTime><Timestamp dt:dt=""int"">0</Timestamp><DateUtc dt:dt=""string"">2015-04-14T17:58:50Z</DateUtc></StartTime><FrequencyChanges><FrequencyChange><Frequency dt:dt=""r8"">2825654</Frequency><Timestamp dt:dt=""r8"">3189304526267</Timestamp><Current dt:dt=""r8"">0</Current><DateUtc dt:dt=""string"">2015-04-14T17:58:50Z</DateUtc></FrequencyChange></FrequencyChanges></Clock>\n"	Arrow Flanker 2014-12180-1	60.018	1.0.0.100	1	-1855641731	Professional	2.0.10.353	2.0.10.353	04-14-2015	4/14/2015 5:58:50 PM	13:58:50	2.0.10.248	3	1	1	1	NA	NA	NA	NA	NA	NA	NA	NA	NA	NA	NA	NA	NA	NA	NA	NA	NA	NA	NA	NA	NA	NA	NA	NA	BlockProc	BlockList	NA	17	{LEFTARROW}	NA	-100	1899	incongruent	NA	NA	NA	NA	NA	NA	NA	NA	NA	NA	NA	NA	NA	NA	NA	NA	NA	NA	NA	NA	NA	NA	TrialProc	TrialList	0	8	274411	17	0	17	272295	1199	1	{LEFTARROW}	-999999	0	273994	0	{LEFTARROW}	409	274403	NA	NA	left	rrlrr.bmp	354	0	NA	0	0	0	0	NA	0	0	0	NA	0	0	0	0	NA	0	0	3	1	17
Arrow Flanker 2014	12180	1	"<?xml version=""1.0""?>\n<Clock xmlns:dt=""urn:schemas-microsoft-com:datatypes""><Description dt:dt=""string"">E-Prime Primary Realtime Clock</Description><StartTime><Timestamp dt:dt=""int"">0</Timestamp><DateUtc dt:dt=""string"">2015-04-14T17:58:50Z</DateUtc></StartTime><FrequencyChanges><FrequencyChange><Frequency dt:dt=""r8"">2825654</Frequency><Timestamp dt:dt=""r8"">3189304526267</Timestamp><Current dt:dt=""r8"">0</Current><DateUtc dt:dt=""string"">2015-04-14T17:58:50Z</DateUtc></FrequencyChange></FrequencyChanges></Clock>\n"	Arrow Flanker 2014-12180-1	60.018	1.0.0.100	1	-1855641731	Professional	2.0.10.353	2.0.10.353	04-14-2015	4/14/2015 5:58:50 PM	13:58:50	2.0.10.248	3	1	1	1	NA	NA	NA	NA	NA	NA	NA	NA	NA	NA	NA	NA	NA	NA	NA	NA	NA	NA	NA	NA	NA	NA	NA	NA	BlockProc	BlockList	NA	18	{RIGHTARROW}	NA	-100	810	congruent	NA	NA	NA	NA	NA	NA	NA	NA	NA	NA	NA	NA	NA	NA	NA	NA	NA	NA	NA	NA	NA	NA	TrialProc	TrialList	0	6	276777	16	0	16	274944	766	1	{RIGHTARROW}	-999999	0	276210	0	{RIGHTARROW}	561	276771	NA	NA	right	rrrrr.bmp	354	0	NA	0	0	0	0	NA	0	0	0	NA	0	0	0	0	NA	0	0	2	1	18
Arrow Flanker 2014	12180	1	"<?xml version=""1.0""?>\n<Clock xmlns:dt=""urn:schemas-microsoft-com:datatypes""><Description dt:dt=""string"">E-Prime Primary Realtime Clock</Description><StartTime><Timestamp dt:dt=""int"">0</Timestamp><DateUtc dt:dt=""string"">2015-04-14T17:58:50Z</DateUtc></StartTime><FrequencyChanges><FrequencyChange><Frequency dt:dt=""r8"">2825654</Frequency><Timestamp dt:dt=""r8"">3189304526267</Timestamp><Current dt:dt=""r8"">0</Current><DateUtc dt:dt=""string"">2015-04-14T17:58:50Z</DateUtc></FrequencyChange></FrequencyChanges></Clock>\n"	Arrow Flanker 2014-12180-1	60.018	1.0.0.100	1	-1855641731	Professional	2.0.10.353	2.0.10.353	04-14-2015	4/14/2015 5:58:50 PM	13:58:50	2.0.10.248	3	1	1	1	NA	NA	NA	NA	NA	NA	NA	NA	NA	NA	NA	NA	NA	NA	NA	NA	NA	NA	NA	NA	NA	NA	NA	NA	BlockProc	BlockList	NA	19	{LEFTARROW}	NA	-100	692	incongruent	NA	NA	NA	NA	NA	NA	NA	NA	NA	NA	NA	NA	NA	NA	NA	NA	NA	NA	NA	NA	NA	NA	TrialProc	TrialList	0	17	279076	17	0	17	277310	650	1	{LEFTARROW}	-999999	0	278460	0	{LEFTARROW}	599	279059	NA	NA	left	rrlrr.bmp	354	0	NA	0	0	0	0	NA	0	0	0	NA	0	0	0	0	NA	0	0	3	1	19
Arrow Flanker 2014	12180	1	"<?xml version=""1.0""?>\n<Clock xmlns:dt=""urn:schemas-microsoft-com:datatypes""><Description dt:dt=""string"">E-Prime Primary Realtime Clock</Description><StartTime><Timestamp dt:dt=""int"">0</Timestamp><DateUtc dt:dt=""string"">2015-04-14T17:58:50Z</DateUtc></StartTime><FrequencyChanges><FrequencyChange><Frequency dt:dt=""r8"">2825654</Frequency><Timestamp dt:dt=""r8"">3189304526267</Timestamp><Current dt:dt=""r8"">0</Current><DateUtc dt:dt=""string"">2015-04-14T17:58:50Z</DateUtc></FrequencyChange></FrequencyChanges></Clock>\n"	Arrow Flanker 2014-12180-1	60.018	1.0.0.100	1	-1855641731	Professional	2.0.10.353	2.0.10.353	04-14-2015	4/14/2015 5:58:50 PM	13:58:50	2.0.10.248	3	1	1	1	NA	NA	NA	NA	NA	NA	NA	NA	NA	NA	NA	NA	NA	NA	NA	NA	NA	NA	NA	NA	NA	NA	NA	NA	BlockProc	BlockList	NA	20	{LEFTARROW}	NA	-100	1687	congruent	NA	NA	NA	NA	NA	NA	NA	NA	NA	NA	NA	NA	NA	NA	NA	NA	NA	NA	NA	NA	NA	NA	TrialProc	TrialList	1	14	281825	17	0	16	279609	1200	1	{LEFTARROW}	-999999	0	281309	0	{LEFTARROW}	502	281811	NA	NA	left	lllll.bmp	354	0	NA	0	0	0	0	NA	0	0	0	NA	0	0	0	0	NA	0	0	1	1	20
Arrow Flanker 2014	12180	1	"<?xml version=""1.0""?>\n<Clock xmlns:dt=""urn:schemas-microsoft-com:datatypes""><Description dt:dt=""string"">E-Prime Primary Realtime Clock</Description><StartTime><Timestamp dt:dt=""int"">0</Timestamp><DateUtc dt:dt=""string"">2015-04-14T17:58:50Z</DateUtc></StartTime><FrequencyChanges><FrequencyChange><Frequency dt:dt=""r8"">2825654</Frequency><Timestamp dt:dt=""r8"">3189304526267</Timestamp><Current dt:dt=""r8"">0</Current><DateUtc dt:dt=""string"">2015-04-14T17:58:50Z</DateUtc></FrequencyChange></FrequencyChanges></Clock>\n"	Arrow Flanker 2014-12180-1	60.018	1.0.0.100	1	-1855641731	Professional	2.0.10.353	2.0.10.353	04-14-2015	4/14/2015 5:58:50 PM	13:58:50	2.0.10.248	3	1	1	1	NA	NA	NA	NA	NA	NA	NA	NA	NA	NA	NA	NA	NA	NA	NA	NA	NA	NA	NA	NA	NA	NA	NA	NA	BlockProc	BlockList	NA	21	{LEFTARROW}	NA	-100	1598	congruent	NA	NA	NA	NA	NA	NA	NA	NA	NA	NA	NA	NA	NA	NA	NA	NA	NA	NA	NA	NA	NA	NA	TrialProc	TrialList	0	5	284392	16	0	16	282358	1117	1	{LEFTARROW}	-999999	0	283975	0	{LEFTARROW}	411	284386	NA	NA	left	lllll.bmp	354	0	NA	0	0	0	0	NA	0	0	0	NA	0	0	0	0	NA	0	0	1	1	21
Arrow Flanker 2014	12180	1	"<?xml version=""1.0""?>\n<Clock xmlns:dt=""urn:schemas-microsoft-com:datatypes""><Description dt:dt=""string"">E-Prime Primary Realtime Clock</Description><StartTime><Timestamp dt:dt=""int"">0</Timestamp><DateUtc dt:dt=""string"">2015-04-14T17:58:50Z</DateUtc></StartTime><FrequencyChanges><FrequencyChange><Frequency dt:dt=""r8"">2825654</Frequency><Timestamp dt:dt=""r8"">3189304526267</Timestamp><Current dt:dt=""r8"">0</Current><DateUtc dt:dt=""string"">2015-04-14T17:58:50Z</DateUtc></FrequencyChange></FrequencyChanges></Clock>\n"	Arrow Flanker 2014-12180-1	60.018	1.0.0.100	1	-1855641731	Professional	2.0.10.353	2.0.10.353	04-14-2015	4/14/2015 5:58:50 PM	13:58:50	2.0.10.248	3	1	1	1	NA	NA	NA	NA	NA	NA	NA	NA	NA	NA	NA	NA	NA	NA	NA	NA	NA	NA	NA	NA	NA	NA	NA	NA	BlockProc	BlockList	NA	22	{RIGHTARROW}	NA	-100	606	neutral	NA	NA	NA	NA	NA	NA	NA	NA	NA	NA	NA	NA	NA	NA	NA	NA	NA	NA	NA	NA	2	1	TrialProc	TrialList	0	13	286591	16	0	16	284924	617	1	{RIGHTARROW}	-999999	0	286041	0	{RIGHTARROW}	537	286578	NA	NA	right	ooroo.bmp	354	0	NA	-999999	17	287124	0	1	7658	294782	0	NA	-999999	23	294805	0	1	5921	300726	6	1	22
Arrow Flanker 2014	12180	1	"<?xml version=""1.0""?>\n<Clock xmlns:dt=""urn:schemas-microsoft-com:datatypes""><Description dt:dt=""string"">E-Prime Primary Realtime Clock</Description><StartTime><Timestamp dt:dt=""int"">0</Timestamp><DateUtc dt:dt=""string"">2015-04-14T17:58:50Z</DateUtc></StartTime><FrequencyChanges><FrequencyChange><Frequency dt:dt=""r8"">2825654</Frequency><Timestamp dt:dt=""r8"">3189304526267</Timestamp><Current dt:dt=""r8"">0</Current><DateUtc dt:dt=""string"">2015-04-14T17:58:50Z</DateUtc></FrequencyChange></FrequencyChanges></Clock>\n"	Arrow Flanker 2014-12180-1	60.018	1.0.0.100	1	-1855641731	Professional	2.0.10.353	2.0.10.353	04-14-2015	4/14/2015 5:58:50 PM	13:58:50	2.0.10.248	3	1	1	1	NA	NA	NA	NA	NA	NA	NA	NA	NA	NA	NA	NA	NA	NA	NA	NA	NA	NA	NA	NA	NA	NA	NA	NA	BlockProc	BlockList	NA	23	{RIGHTARROW}	NA	-100	1799	incongruent	NA	NA	NA	NA	NA	NA	NA	NA	NA	NA	NA	NA	NA	NA	NA	NA	NA	NA	NA	NA	NA	NA	TrialProc	TrialList	0	6	304103	16	0	18	302003	916	1	{RIGHTARROW}	-999999	0	303419	0	{RIGHTARROW}	678	304097	NA	NA	right	llrll.bmp	354	0	NA	0	0	0	0	NA	0	0	0	NA	0	0	0	0	NA	0	0	4	1	23
Arrow Flanker 2014	12180	1	"<?xml version=""1.0""?>\n<Clock xmlns:dt=""urn:schemas-microsoft-com:datatypes""><Description dt:dt=""string"">E-Prime Primary Realtime Clock</Description><StartTime><Timestamp dt:dt=""int"">0</Timestamp><DateUtc dt:dt=""string"">2015-04-14T17:58:50Z</DateUtc></StartTime><FrequencyChanges><FrequencyChange><Frequency dt:dt=""r8"">2825654</Frequency><Timestamp dt:dt=""r8"">3189304526267</Timestamp><Current dt:dt=""r8"">0</Current><DateUtc dt:dt=""string"">2015-04-14T17:58:50Z</DateUtc></FrequencyChange></FrequencyChanges></Clock>\n"	Arrow Flanker 2014-12180-1	60.018	1.0.0.100	1	-1855641731	Professional	2.0.10.353	2.0.10.353	04-14-2015	4/14/2015 5:58:50 PM	13:58:50	2.0.10.248	3	1	1	1	NA	NA	NA	NA	NA	NA	NA	NA	NA	NA	NA	NA	NA	NA	NA	NA	NA	NA	NA	NA	NA	NA	NA	NA	BlockProc	BlockList	NA	24	{RIGHTARROW}	NA	-100	1082	neutral	NA	NA	NA	NA	NA	NA	NA	NA	NA	NA	NA	NA	NA	NA	NA	NA	NA	NA	NA	NA	NA	NA	TrialProc	TrialList	0	14	306335	16	0	16	304635	700	1	{RIGHTARROW}	-999999	0	305835	0	{RIGHTARROW}	486	306321	NA	NA	right	ooroo.bmp	354	0	NA	0	0	0	0	NA	0	0	0	NA	0	0	0	0	NA	0	0	6	1	24
Arrow Flanker 2014	12180	1	"<?xml version=""1.0""?>\n<Clock xmlns:dt=""urn:schemas-microsoft-com:datatypes""><Description dt:dt=""string"">E-Prime Primary Realtime Clock</Description><StartTime><Timestamp dt:dt=""int"">0</Timestamp><DateUtc dt:dt=""string"">2015-04-14T17:58:50Z</DateUtc></StartTime><FrequencyChanges><FrequencyChange><Frequency dt:dt=""r8"">2825654</Frequency><Timestamp dt:dt=""r8"">3189304526267</Timestamp><Current dt:dt=""r8"">0</Current><DateUtc dt:dt=""string"">2015-04-14T17:58:50Z</DateUtc></FrequencyChange></FrequencyChanges></Clock>\n"	Arrow Flanker 2014-12180-1	60.018	1.0.0.100	1	-1855641731	Professional	2.0.10.353	2.0.10.353	04-14-2015	4/14/2015 5:58:50 PM	13:58:50	2.0.10.248	3	1	1	1	NA	NA	NA	NA	NA	NA	NA	NA	NA	NA	NA	NA	NA	NA	NA	NA	NA	NA	NA	NA	NA	NA	NA	NA	BlockProc	BlockList	NA	25	{RIGHTARROW}	NA	-100	479	incongruent	NA	NA	NA	NA	NA	NA	NA	NA	NA	NA	NA	NA	NA	NA	NA	NA	NA	NA	NA	NA	NA	NA	TrialProc	TrialList	1	13	308334	17	0	17	306868	450	1	{RIGHTARROW}	-999999	0	307818	0	{RIGHTARROW}	503	308321	NA	NA	right	llrll.bmp	354	0	NA	0	0	0	0	NA	0	0	0	NA	0	0	0	0	NA	0	0	4	1	25
Arrow Flanker 2014	12180	1	"<?xml version=""1.0""?>\n<Clock xmlns:dt=""urn:schemas-microsoft-com:datatypes""><Description dt:dt=""string"">E-Prime Primary Realtime Clock</Description><StartTime><Timestamp dt:dt=""int"">0</Timestamp><DateUtc dt:dt=""string"">2015-04-14T17:58:50Z</DateUtc></StartTime><FrequencyChanges><FrequencyChange><Frequency dt:dt=""r8"">2825654</Frequency><Timestamp dt:dt=""r8"">3189304526267</Timestamp><Current dt:dt=""r8"">0</Current><DateUtc dt:dt=""string"">2015-04-14T17:58:50Z</DateUtc></FrequencyChange></FrequencyChanges></Clock>\n"	Arrow Flanker 2014-12180-1	60.018	1.0.0.100	1	-1855641731	Professional	2.0.10.353	2.0.10.353	04-14-2015	4/14/2015 5:58:50 PM	13:58:50	2.0.10.248	3	1	1	1	NA	NA	NA	NA	NA	NA	NA	NA	NA	NA	NA	NA	NA	NA	NA	NA	NA	NA	NA	NA	NA	NA	NA	NA	BlockProc	BlockList	NA	26	{RIGHTARROW}	NA	-100	1205	congruent	NA	NA	NA	NA	NA	NA	NA	NA	NA	NA	NA	NA	NA	NA	NA	NA	NA	NA	NA	NA	NA	NA	TrialProc	TrialList	0	12	310317	17	0	16	308867	0	1	{RIGHTARROW}	-999999	0	309984	0	{RIGHTARROW}	321	310305	NA	NA	right	rrrrr.bmp	354	0	NA	0	0	0	0	NA	0	0	0	NA	0	0	0	0	NA	0	0	2	1	26
Arrow Flanker 2014	12180	1	"<?xml version=""1.0""?>\n<Clock xmlns:dt=""urn:schemas-microsoft-com:datatypes""><Description dt:dt=""string"">E-Prime Primary Realtime Clock</Description><StartTime><Timestamp dt:dt=""int"">0</Timestamp><DateUtc dt:dt=""string"">2015-04-14T17:58:50Z</DateUtc></StartTime><FrequencyChanges><FrequencyChange><Frequency dt:dt=""r8"">2825654</Frequency><Timestamp dt:dt=""r8"">3189304526267</Timestamp><Current dt:dt=""r8"">0</Current><DateUtc dt:dt=""string"">2015-04-14T17:58:50Z</DateUtc></FrequencyChange></FrequencyChanges></Clock>\n"	Arrow Flanker 2014-12180-1	60.018	1.0.0.100	1	-1855641731	Professional	2.0.10.353	2.0.10.353	04-14-2015	4/14/2015 5:58:50 PM	13:58:50	2.0.10.248	3	1	1	1	NA	NA	NA	NA	NA	NA	NA	NA	NA	NA	NA	NA	NA	NA	NA	NA	NA	NA	NA	NA	NA	NA	NA	NA	BlockProc	BlockList	NA	27	{LEFTARROW}	NA	-100	2220	incongruent	NA	NA	NA	NA	NA	NA	NA	NA	NA	NA	NA	NA	NA	NA	NA	NA	NA	NA	NA	NA	NA	NA	TrialProc	TrialList	0	14	313183	16	0	16	310850	0	0	{LEFTARROW}	-999999	0	312750	0	{RIGHTARROW}	419	313169	NA	NA	left	rrlrr.bmp	354	0	NA	0	0	0	0	NA	0	0	0	NA	0	0	0	0	NA	0	0	3	1	27
Arrow Flanker 2014	12180	1	"<?xml version=""1.0""?>\n<Clock xmlns:dt=""urn:schemas-microsoft-com:datatypes""><Description dt:dt=""string"">E-Prime Primary Realtime Clock</Description><StartTime><Timestamp dt:dt=""int"">0</Timestamp><DateUtc dt:dt=""string"">2015-04-14T17:58:50Z</DateUtc></StartTime><FrequencyChanges><FrequencyChange><Frequency dt:dt=""r8"">2825654</Frequency><Timestamp dt:dt=""r8"">3189304526267</Timestamp><Current dt:dt=""r8"">0</Current><DateUtc dt:dt=""string"">2015-04-14T17:58:50Z</DateUtc></FrequencyChange></FrequencyChanges></Clock>\n"	Arrow Flanker 2014-12180-1	60.018	1.0.0.100	1	-1855641731	Professional	2.0.10.353	2.0.10.353	04-14-2015	4/14/2015 5:58:50 PM	13:58:50	2.0.10.248	3	1	1	1	NA	NA	NA	NA	NA	NA	NA	NA	NA	NA	NA	NA	NA	NA	NA	NA	NA	NA	NA	NA	NA	NA	NA	NA	BlockProc	BlockList	NA	28	{RIGHTARROW}	NA	-100	1320	neutral	NA	NA	NA	NA	NA	NA	NA	NA	NA	NA	NA	NA	NA	NA	NA	NA	NA	NA	NA	NA	NA	NA	TrialProc	TrialList	1	12	315965	17	0	17	313716	0	1	{RIGHTARROW}	-999999	0	315432	0	{RIGHTARROW}	520	315952	NA	NA	right	ooroo.bmp	354	0	NA	0	0	0	0	NA	0	0	0	NA	0	0	0	0	NA	0	0	6	1	28
Arrow Flanker 2014	12180	1	"<?xml version=""1.0""?>\n<Clock xmlns:dt=""urn:schemas-microsoft-com:datatypes""><Description dt:dt=""string"">E-Prime Primary Realtime Clock</Description><StartTime><Timestamp dt:dt=""int"">0</Timestamp><DateUtc dt:dt=""string"">2015-04-14T17:58:50Z</DateUtc></StartTime><FrequencyChanges><FrequencyChange><Frequency dt:dt=""r8"">2825654</Frequency><Timestamp dt:dt=""r8"">3189304526267</Timestamp><Current dt:dt=""r8"">0</Current><DateUtc dt:dt=""string"">2015-04-14T17:58:50Z</DateUtc></FrequencyChange></FrequencyChanges></Clock>\n"	Arrow Flanker 2014-12180-1	60.018	1.0.0.100	1	-1855641731	Professional	2.0.10.353	2.0.10.353	04-14-2015	4/14/2015 5:58:50 PM	13:58:50	2.0.10.248	3	1	1	1	NA	NA	NA	NA	NA	NA	NA	NA	NA	NA	NA	NA	NA	NA	NA	NA	NA	NA	NA	NA	NA	NA	NA	NA	BlockProc	BlockList	NA	29	{RIGHTARROW}	NA	-100	1178	congruent	NA	NA	NA	NA	NA	NA	NA	NA	NA	NA	NA	NA	NA	NA	NA	NA	NA	NA	NA	NA	NA	NA	TrialProc	TrialList	1	7	318231	17	0	16	316498	0	1	{RIGHTARROW}	-999999	0	317715	0	{RIGHTARROW}	509	318224	NA	NA	right	rrrrr.bmp	354	0	NA	0	0	0	0	NA	0	0	0	NA	0	0	0	0	NA	0	0	2	1	29
Arrow Flanker 2014	12180	1	"<?xml version=""1.0""?>\n<Clock xmlns:dt=""urn:schemas-microsoft-com:datatypes""><Description dt:dt=""string"">E-Prime Primary Realtime Clock</Description><StartTime><Timestamp dt:dt=""int"">0</Timestamp><DateUtc dt:dt=""string"">2015-04-14T17:58:50Z</DateUtc></StartTime><FrequencyChanges><FrequencyChange><Frequency dt:dt=""r8"">2825654</Frequency><Timestamp dt:dt=""r8"">3189304526267</Timestamp><Current dt:dt=""r8"">0</Current><DateUtc dt:dt=""string"">2015-04-14T17:58:50Z</DateUtc></FrequencyChange></FrequencyChanges></Clock>\n"	Arrow Flanker 2014-12180-1	60.018	1.0.0.100	1	-1855641731	Professional	2.0.10.353	2.0.10.353	04-14-2015	4/14/2015 5:58:50 PM	13:58:50	2.0.10.248	3	1	1	1	NA	NA	NA	NA	NA	NA	NA	NA	NA	NA	NA	NA	NA	NA	NA	NA	NA	NA	NA	NA	NA	NA	NA	NA	BlockProc	BlockList	NA	30	{LEFTARROW}	NA	-100	1259	incongruent	NA	NA	NA	NA	NA	NA	NA	NA	NA	NA	NA	NA	NA	NA	NA	NA	NA	NA	NA	NA	NA	NA	TrialProc	TrialList	1	3	320547	17	0	16	318764	0	0	{LEFTARROW}	-999999	0	320181	0	{RIGHTARROW}	363	320544	NA	NA	left	rrlrr.bmp	354	0	NA	0	0	0	0	NA	0	0	0	NA	0	0	0	0	NA	0	0	3	1	30
Arrow Flanker 2014	12180	1	"<?xml version=""1.0""?>\n<Clock xmlns:dt=""urn:schemas-microsoft-com:datatypes""><Description dt:dt=""string"">E-Prime Primary Realtime Clock</Description><StartTime><Timestamp dt:dt=""int"">0</Timestamp><DateUtc dt:dt=""string"">2015-04-14T17:58:50Z</DateUtc></StartTime><FrequencyChanges><FrequencyChange><Frequency dt:dt=""r8"">2825654</Frequency><Timestamp dt:dt=""r8"">3189304526267</Timestamp><Current dt:dt=""r8"">0</Current><DateUtc dt:dt=""string"">2015-04-14T17:58:50Z</DateUtc></FrequencyChange></FrequencyChanges></Clock>\n"	Arrow Flanker 2014-12180-1	60.018	1.0.0.100	1	-1855641731	Professional	2.0.10.353	2.0.10.353	04-14-2015	4/14/2015 5:58:50 PM	13:58:50	2.0.10.248	3	1	1	1	NA	NA	NA	NA	NA	NA	NA	NA	NA	NA	NA	NA	NA	NA	NA	NA	NA	NA	NA	NA	NA	NA	NA	NA	BlockProc	BlockList	NA	31	{RIGHTARROW}	NA	-100	1640	congruent	NA	NA	NA	NA	NA	NA	NA	NA	NA	NA	NA	NA	NA	NA	NA	NA	NA	NA	NA	NA	NA	NA	TrialProc	TrialList	0	12	322780	17	0	16	321080	0	1	{RIGHTARROW}	-999999	0	322180	0	{RIGHTARROW}	588	322768	NA	NA	right	rrrrr.bmp	354	0	NA	0	0	0	0	NA	0	0	0	NA	0	0	0	0	NA	0	0	2	1	31
Arrow Flanker 2014	12180	1	"<?xml version=""1.0""?>\n<Clock xmlns:dt=""urn:schemas-microsoft-com:datatypes""><Description dt:dt=""string"">E-Prime Primary Realtime Clock</Description><StartTime><Timestamp dt:dt=""int"">0</Timestamp><DateUtc dt:dt=""string"">2015-04-14T17:58:50Z</DateUtc></StartTime><FrequencyChanges><FrequencyChange><Frequency dt:dt=""r8"">2825654</Frequency><Timestamp dt:dt=""r8"">3189304526267</Timestamp><Current dt:dt=""r8"">0</Current><DateUtc dt:dt=""string"">2015-04-14T17:58:50Z</DateUtc></FrequencyChange></FrequencyChanges></Clock>\n"	Arrow Flanker 2014-12180-1	60.018	1.0.0.100	1	-1855641731	Professional	2.0.10.353	2.0.10.353	04-14-2015	4/14/2015 5:58:50 PM	13:58:50	2.0.10.248	3	1	1	1	NA	NA	NA	NA	NA	NA	NA	NA	NA	NA	NA	NA	NA	NA	NA	NA	NA	NA	NA	NA	NA	NA	NA	NA	BlockProc	BlockList	NA	32	{RIGHTARROW}	NA	-100	2013	congruent	NA	NA	NA	NA	NA	NA	NA	NA	NA	NA	NA	NA	NA	NA	NA	NA	NA	NA	NA	NA	NA	NA	TrialProc	TrialList	0	7	325479	17	0	16	323313	0	1	{RIGHTARROW}	-999999	0	324963	0	{RIGHTARROW}	509	325472	NA	NA	right	rrrrr.bmp	354	0	NA	0	0	0	0	NA	0	0	0	NA	0	0	0	0	NA	0	0	2	1	32
Arrow Flanker 2014	12180	1	"<?xml version=""1.0""?>\n<Clock xmlns:dt=""urn:schemas-microsoft-com:datatypes""><Description dt:dt=""string"">E-Prime Primary Realtime Clock</Description><StartTime><Timestamp dt:dt=""int"">0</Timestamp><DateUtc dt:dt=""string"">2015-04-14T17:58:50Z</DateUtc></StartTime><FrequencyChanges><FrequencyChange><Frequency dt:dt=""r8"">2825654</Frequency><Timestamp dt:dt=""r8"">3189304526267</Timestamp><Current dt:dt=""r8"">0</Current><DateUtc dt:dt=""string"">2015-04-14T17:58:50Z</DateUtc></FrequencyChange></FrequencyChanges></Clock>\n"	Arrow Flanker 2014-12180-1	60.018	1.0.0.100	1	-1855641731	Professional	2.0.10.353	2.0.10.353	04-14-2015	4/14/2015 5:58:50 PM	13:58:50	2.0.10.248	3	1	1	1	NA	NA	NA	NA	NA	NA	NA	NA	NA	NA	NA	NA	NA	NA	NA	NA	NA	NA	NA	NA	NA	NA	NA	NA	BlockProc	BlockList	NA	33	{RIGHTARROW}	NA	-100	2394	neutral	NA	NA	NA	NA	NA	NA	NA	NA	NA	NA	NA	NA	NA	NA	NA	NA	NA	NA	NA	NA	NA	NA	TrialProc	TrialList	0	12	328412	16	0	16	326012	0	1	{RIGHTARROW}	-999999	0	327945	0	{RIGHTARROW}	455	328400	NA	NA	right	ooroo.bmp	354	0	NA	0	0	0	0	NA	0	0	0	NA	0	0	0	0	NA	0	0	6	1	33
Arrow Flanker 2014	12180	1	"<?xml version=""1.0""?>\n<Clock xmlns:dt=""urn:schemas-microsoft-com:datatypes""><Description dt:dt=""string"">E-Prime Primary Realtime Clock</Description><StartTime><Timestamp dt:dt=""int"">0</Timestamp><DateUtc dt:dt=""string"">2015-04-14T17:58:50Z</DateUtc></StartTime><FrequencyChanges><FrequencyChange><Frequency dt:dt=""r8"">2825654</Frequency><Timestamp dt:dt=""r8"">3189304526267</Timestamp><Current dt:dt=""r8"">0</Current><DateUtc dt:dt=""string"">2015-04-14T17:58:50Z</DateUtc></FrequencyChange></FrequencyChanges></Clock>\n"	Arrow Flanker 2014-12180-1	60.018	1.0.0.100	1	-1855641731	Professional	2.0.10.353	2.0.10.353	04-14-2015	4/14/2015 5:58:50 PM	13:58:50	2.0.10.248	3	1	1	1	NA	NA	NA	NA	NA	NA	NA	NA	NA	NA	NA	NA	NA	NA	NA	NA	NA	NA	NA	NA	NA	NA	NA	NA	BlockProc	BlockList	NA	34	{RIGHTARROW}	NA	-100	947	congruent	NA	NA	NA	NA	NA	NA	NA	NA	NA	NA	NA	NA	NA	NA	NA	NA	NA	NA	NA	NA	NA	NA	TrialProc	TrialList	1	11	330827	17	0	17	328945	0	1	{RIGHTARROW}	-999999	0	330144	0	{RIGHTARROW}	672	330816	NA	NA	right	rrrrr.bmp	354	0	NA	0	0	0	0	NA	0	0	0	NA	0	0	0	0	NA	0	0	2	1	34
Arrow Flanker 2014	12180	1	"<?xml version=""1.0""?>\n<Clock xmlns:dt=""urn:schemas-microsoft-com:datatypes""><Description dt:dt=""string"">E-Prime Primary Realtime Clock</Description><StartTime><Timestamp dt:dt=""int"">0</Timestamp><DateUtc dt:dt=""string"">2015-04-14T17:58:50Z</DateUtc></StartTime><FrequencyChanges><FrequencyChange><Frequency dt:dt=""r8"">2825654</Frequency><Timestamp dt:dt=""r8"">3189304526267</Timestamp><Current dt:dt=""r8"">0</Current><DateUtc dt:dt=""string"">2015-04-14T17:58:50Z</DateUtc></FrequencyChange></FrequencyChanges></Clock>\n"	Arrow Flanker 2014-12180-1	60.018	1.0.0.100	1	-1855641731	Professional	2.0.10.353	2.0.10.353	04-14-2015	4/14/2015 5:58:50 PM	13:58:50	2.0.10.248	3	1	1	1	NA	NA	NA	NA	NA	NA	NA	NA	NA	NA	NA	NA	NA	NA	NA	NA	NA	NA	NA	NA	NA	NA	NA	NA	BlockProc	BlockList	NA	35	{LEFTARROW}	NA	-100	1595	congruent	NA	NA	NA	NA	NA	NA	NA	NA	NA	NA	NA	NA	NA	NA	NA	NA	NA	NA	NA	NA	NA	NA	TrialProc	TrialList	0	3	333427	16	0	17	331361	0	1	{LEFTARROW}	-999999	0	332977	0	{LEFTARROW}	446	333423	NA	NA	left	lllll.bmp	354	0	NA	0	0	0	0	NA	0	0	0	NA	0	0	0	0	NA	0	0	1	1	35
Arrow Flanker 2014	12180	1	"<?xml version=""1.0""?>\n<Clock xmlns:dt=""urn:schemas-microsoft-com:datatypes""><Description dt:dt=""string"">E-Prime Primary Realtime Clock</Description><StartTime><Timestamp dt:dt=""int"">0</Timestamp><DateUtc dt:dt=""string"">2015-04-14T17:58:50Z</DateUtc></StartTime><FrequencyChanges><FrequencyChange><Frequency dt:dt=""r8"">2825654</Frequency><Timestamp dt:dt=""r8"">3189304526267</Timestamp><Current dt:dt=""r8"">0</Current><DateUtc dt:dt=""string"">2015-04-14T17:58:50Z</DateUtc></FrequencyChange></FrequencyChanges></Clock>\n"	Arrow Flanker 2014-12180-1	60.018	1.0.0.100	1	-1855641731	Professional	2.0.10.353	2.0.10.353	04-14-2015	4/14/2015 5:58:50 PM	13:58:50	2.0.10.248	3	1	1	1	NA	NA	NA	NA	NA	NA	NA	NA	NA	NA	NA	NA	NA	NA	NA	NA	NA	NA	NA	NA	NA	NA	NA	NA	BlockProc	BlockList	NA	36	{RIGHTARROW}	NA	-100	2091	incongruent	NA	NA	NA	NA	NA	NA	NA	NA	NA	NA	NA	NA	NA	NA	NA	NA	NA	NA	NA	NA	NA	NA	TrialProc	TrialList	0	17	336576	16	0	17	333960	0	1	{RIGHTARROW}	-999999	0	335926	0	{RIGHTARROW}	633	336559	NA	NA	right	llrll.bmp	354	0	NA	0	0	0	0	NA	0	0	0	NA	0	0	0	0	NA	0	0	4	1	36
Arrow Flanker 2014	12180	1	"<?xml version=""1.0""?>\n<Clock xmlns:dt=""urn:schemas-microsoft-com:datatypes""><Description dt:dt=""string"">E-Prime Primary Realtime Clock</Description><StartTime><Timestamp dt:dt=""int"">0</Timestamp><DateUtc dt:dt=""string"">2015-04-14T17:58:50Z</DateUtc></StartTime><FrequencyChanges><FrequencyChange><Frequency dt:dt=""r8"">2825654</Frequency><Timestamp dt:dt=""r8"">3189304526267</Timestamp><Current dt:dt=""r8"">0</Current><DateUtc dt:dt=""string"">2015-04-14T17:58:50Z</DateUtc></FrequencyChange></FrequencyChanges></Clock>\n"	Arrow Flanker 2014-12180-1	60.018	1.0.0.100	1	-1855641731	Professional	2.0.10.353	2.0.10.353	04-14-2015	4/14/2015 5:58:50 PM	13:58:50	2.0.10.248	3	1	1	1	NA	NA	NA	NA	NA	NA	NA	NA	NA	NA	NA	NA	NA	NA	NA	NA	NA	NA	NA	NA	NA	NA	NA	NA	BlockProc	BlockList	NA	37	{RIGHTARROW}	NA	-100	1553	incongruent	NA	NA	NA	NA	NA	NA	NA	NA	NA	NA	NA	NA	NA	NA	NA	NA	NA	NA	NA	NA	3	2	TrialProc	TrialList	0	8	339575	17	0	17	337109	0	1	{RIGHTARROW}	-999999	16	338975	0	{RIGHTARROW}	592	339567	NA	NA	right	llrll.bmp	354	0	NA	-999999	16	340108	0	1	3111	343219	0	NA	-999999	21	343240	0	1	1707	344947	4	1	37
Arrow Flanker 2014	12180	1	"<?xml version=""1.0""?>\n<Clock xmlns:dt=""urn:schemas-microsoft-com:datatypes""><Description dt:dt=""string"">E-Prime Primary Realtime Clock</Description><StartTime><Timestamp dt:dt=""int"">0</Timestamp><DateUtc dt:dt=""string"">2015-04-14T17:58:50Z</DateUtc></StartTime><FrequencyChanges><FrequencyChange><Frequency dt:dt=""r8"">2825654</Frequency><Timestamp dt:dt=""r8"">3189304526267</Timestamp><Current dt:dt=""r8"">0</Current><DateUtc dt:dt=""string"">2015-04-14T17:58:50Z</DateUtc></FrequencyChange></FrequencyChanges></Clock>\n"	Arrow Flanker 2014-12180-1	60.018	1.0.0.100	1	-1855641731	Professional	2.0.10.353	2.0.10.353	04-14-2015	4/14/2015 5:58:50 PM	13:58:50	2.0.10.248	3	1	1	1	NA	NA	NA	NA	NA	NA	NA	NA	NA	NA	NA	NA	NA	NA	NA	NA	NA	NA	NA	NA	NA	NA	NA	NA	BlockProc	BlockList	NA	38	{RIGHTARROW}	NA	-100	1626	neutral	NA	NA	NA	NA	NA	NA	NA	NA	NA	NA	NA	NA	NA	NA	NA	NA	NA	NA	NA	NA	NA	NA	TrialProc	TrialList	0	7	348406	16	0	11	346506	0	1	{RIGHTARROW}	-999999	16	347839	0	{RIGHTARROW}	560	348399	NA	NA	right	ooroo.bmp	354	0	NA	0	0	0	0	NA	0	0	0	NA	0	0	0	0	NA	0	0	6	1	38
Arrow Flanker 2014	12180	1	"<?xml version=""1.0""?>\n<Clock xmlns:dt=""urn:schemas-microsoft-com:datatypes""><Description dt:dt=""string"">E-Prime Primary Realtime Clock</Description><StartTime><Timestamp dt:dt=""int"">0</Timestamp><DateUtc dt:dt=""string"">2015-04-14T17:58:50Z</DateUtc></StartTime><FrequencyChanges><FrequencyChange><Frequency dt:dt=""r8"">2825654</Frequency><Timestamp dt:dt=""r8"">3189304526267</Timestamp><Current dt:dt=""r8"">0</Current><DateUtc dt:dt=""string"">2015-04-14T17:58:50Z</DateUtc></FrequencyChange></FrequencyChanges></Clock>\n"	Arrow Flanker 2014-12180-1	60.018	1.0.0.100	1	-1855641731	Professional	2.0.10.353	2.0.10.353	04-14-2015	4/14/2015 5:58:50 PM	13:58:50	2.0.10.248	3	1	1	1	NA	NA	NA	NA	NA	NA	NA	NA	NA	NA	NA	NA	NA	NA	NA	NA	NA	NA	NA	NA	NA	NA	NA	NA	BlockProc	BlockList	NA	39	{RIGHTARROW}	NA	-100	1811	neutral	NA	NA	NA	NA	NA	NA	NA	NA	NA	NA	NA	NA	NA	NA	NA	NA	NA	NA	NA	NA	NA	NA	TrialProc	TrialList	0	14	351005	17	0	17	348939	0	1	{RIGHTARROW}	-999999	0	350505	0	{RIGHTARROW}	485	350990	NA	NA	right	ooroo.bmp	354	0	NA	0	0	0	0	NA	0	0	0	NA	0	0	0	0	NA	0	0	6	1	39
Arrow Flanker 2014	12180	1	"<?xml version=""1.0""?>\n<Clock xmlns:dt=""urn:schemas-microsoft-com:datatypes""><Description dt:dt=""string"">E-Prime Primary Realtime Clock</Description><StartTime><Timestamp dt:dt=""int"">0</Timestamp><DateUtc dt:dt=""string"">2015-04-14T17:58:50Z</DateUtc></StartTime><FrequencyChanges><FrequencyChange><Frequency dt:dt=""r8"">2825654</Frequency><Timestamp dt:dt=""r8"">3189304526267</Timestamp><Current dt:dt=""r8"">0</Current><DateUtc dt:dt=""string"">2015-04-14T17:58:50Z</DateUtc></FrequencyChange></FrequencyChanges></Clock>\n"	Arrow Flanker 2014-12180-1	60.018	1.0.0.100	1	-1855641731	Professional	2.0.10.353	2.0.10.353	04-14-2015	4/14/2015 5:58:50 PM	13:58:50	2.0.10.248	3	1	1	1	NA	NA	NA	NA	NA	NA	NA	NA	NA	NA	NA	NA	NA	NA	NA	NA	NA	NA	NA	NA	NA	NA	NA	NA	BlockProc	BlockList	NA	40	{LEFTARROW}	NA	-100	1512	congruent	NA	NA	NA	NA	NA	NA	NA	NA	NA	NA	NA	NA	NA	NA	NA	NA	NA	NA	NA	NA	NA	NA	TrialProc	TrialList	1	6	353204	17	0	16	351538	0	1	{LEFTARROW}	-999999	0	352588	0	{LEFTARROW}	610	353198	NA	NA	left	lllll.bmp	354	0	NA	0	0	0	0	NA	0	0	0	NA	0	0	0	0	NA	0	0	1	1	40
Arrow Flanker 2014	12180	1	"<?xml version=""1.0""?>\n<Clock xmlns:dt=""urn:schemas-microsoft-com:datatypes""><Description dt:dt=""string"">E-Prime Primary Realtime Clock</Description><StartTime><Timestamp dt:dt=""int"">0</Timestamp><DateUtc dt:dt=""string"">2015-04-14T17:58:50Z</DateUtc></StartTime><FrequencyChanges><FrequencyChange><Frequency dt:dt=""r8"">2825654</Frequency><Timestamp dt:dt=""r8"">3189304526267</Timestamp><Current dt:dt=""r8"">0</Current><DateUtc dt:dt=""string"">2015-04-14T17:58:50Z</DateUtc></FrequencyChange></FrequencyChanges></Clock>\n"	Arrow Flanker 2014-12180-1	60.018	1.0.0.100	1	-1855641731	Professional	2.0.10.353	2.0.10.353	04-14-2015	4/14/2015 5:58:50 PM	13:58:50	2.0.10.248	3	1	1	1	NA	NA	NA	NA	NA	NA	NA	NA	NA	NA	NA	NA	NA	NA	NA	NA	NA	NA	NA	NA	NA	NA	NA	NA	BlockProc	BlockList	NA	41	{LEFTARROW}	NA	-100	1814	congruent	NA	NA	NA	NA	NA	NA	NA	NA	NA	NA	NA	NA	NA	NA	NA	NA	NA	NA	NA	NA	NA	NA	TrialProc	TrialList	0	7	356037	16	0	16	353737	0	1	{LEFTARROW}	-999999	0	355487	0	{LEFTARROW}	543	356030	NA	NA	left	lllll.bmp	354	0	NA	0	0	0	0	NA	0	0	0	NA	0	0	0	0	NA	0	0	1	1	41
Arrow Flanker 2014	12180	1	"<?xml version=""1.0""?>\n<Clock xmlns:dt=""urn:schemas-microsoft-com:datatypes""><Description dt:dt=""string"">E-Prime Primary Realtime Clock</Description><StartTime><Timestamp dt:dt=""int"">0</Timestamp><DateUtc dt:dt=""string"">2015-04-14T17:58:50Z</DateUtc></StartTime><FrequencyChanges><FrequencyChange><Frequency dt:dt=""r8"">2825654</Frequency><Timestamp dt:dt=""r8"">3189304526267</Timestamp><Current dt:dt=""r8"">0</Current><DateUtc dt:dt=""string"">2015-04-14T17:58:50Z</DateUtc></FrequencyChange></FrequencyChanges></Clock>\n"	Arrow Flanker 2014-12180-1	60.018	1.0.0.100	1	-1855641731	Professional	2.0.10.353	2.0.10.353	04-14-2015	4/14/2015 5:58:50 PM	13:58:50	2.0.10.248	3	1	1	1	NA	NA	NA	NA	NA	NA	NA	NA	NA	NA	NA	NA	NA	NA	NA	NA	NA	NA	NA	NA	NA	NA	NA	NA	BlockProc	BlockList	NA	42	{LEFTARROW}	NA	-100	1544	neutral	NA	NA	NA	NA	NA	NA	NA	NA	NA	NA	NA	NA	NA	NA	NA	NA	NA	NA	NA	NA	NA	NA	TrialProc	TrialList	1	7	358469	17	0	17	356570	0	1	{LEFTARROW}	-999999	16	358036	0	{LEFTARROW}	426	358462	NA	NA	left	ooloo.bmp	354	0	NA	0	0	0	0	NA	0	0	0	NA	0	0	0	0	NA	0	0	5	1	42
Arrow Flanker 2014	12180	1	"<?xml version=""1.0""?>\n<Clock xmlns:dt=""urn:schemas-microsoft-com:datatypes""><Description dt:dt=""string"">E-Prime Primary Realtime Clock</Description><StartTime><Timestamp dt:dt=""int"">0</Timestamp><DateUtc dt:dt=""string"">2015-04-14T17:58:50Z</DateUtc></StartTime><FrequencyChanges><FrequencyChange><Frequency dt:dt=""r8"">2825654</Frequency><Timestamp dt:dt=""r8"">3189304526267</Timestamp><Current dt:dt=""r8"">0</Current><DateUtc dt:dt=""string"">2015-04-14T17:58:50Z</DateUtc></FrequencyChange></FrequencyChanges></Clock>\n"	Arrow Flanker 2014-12180-1	60.018	1.0.0.100	1	-1855641731	Professional	2.0.10.353	2.0.10.353	04-14-2015	4/14/2015 5:58:50 PM	13:58:50	2.0.10.248	3	1	1	1	NA	NA	NA	NA	NA	NA	NA	NA	NA	NA	NA	NA	NA	NA	NA	NA	NA	NA	NA	NA	NA	NA	NA	NA	BlockProc	BlockList	NA	43	{LEFTARROW}	NA	-100	1422	neutral	NA	NA	NA	NA	NA	NA	NA	NA	NA	NA	NA	NA	NA	NA	NA	NA	NA	NA	NA	NA	NA	NA	TrialProc	TrialList	1	11	360585	17	0	16	359002	0	1	{LEFTARROW}	-999999	0	360202	0	{LEFTARROW}	372	360574	NA	NA	left	ooloo.bmp	354	0	NA	0	0	0	0	NA	0	0	0	NA	0	0	0	0	NA	0	0	5	1	43
Arrow Flanker 2014	12180	1	"<?xml version=""1.0""?>\n<Clock xmlns:dt=""urn:schemas-microsoft-com:datatypes""><Description dt:dt=""string"">E-Prime Primary Realtime Clock</Description><StartTime><Timestamp dt:dt=""int"">0</Timestamp><DateUtc dt:dt=""string"">2015-04-14T17:58:50Z</DateUtc></StartTime><FrequencyChanges><FrequencyChange><Frequency dt:dt=""r8"">2825654</Frequency><Timestamp dt:dt=""r8"">3189304526267</Timestamp><Current dt:dt=""r8"">0</Current><DateUtc dt:dt=""string"">2015-04-14T17:58:50Z</DateUtc></FrequencyChange></FrequencyChanges></Clock>\n"	Arrow Flanker 2014-12180-1	60.018	1.0.0.100	1	-1855641731	Professional	2.0.10.353	2.0.10.353	04-14-2015	4/14/2015 5:58:50 PM	13:58:50	2.0.10.248	3	1	1	1	NA	NA	NA	NA	NA	NA	NA	NA	NA	NA	NA	NA	NA	NA	NA	NA	NA	NA	NA	NA	NA	NA	NA	NA	BlockProc	BlockList	NA	44	{RIGHTARROW}	NA	-100	2029	congruent	NA	NA	NA	NA	NA	NA	NA	NA	NA	NA	NA	NA	NA	NA	NA	NA	NA	NA	NA	NA	NA	NA	TrialProc	TrialList	0	3	363185	16	0	17	361119	0	1	{RIGHTARROW}	-999999	0	362785	0	{RIGHTARROW}	397	363182	NA	NA	right	rrrrr.bmp	354	0	NA	0	0	0	0	NA	0	0	0	NA	0	0	0	0	NA	0	0	2	1	44
Arrow Flanker 2014	12180	1	"<?xml version=""1.0""?>\n<Clock xmlns:dt=""urn:schemas-microsoft-com:datatypes""><Description dt:dt=""string"">E-Prime Primary Realtime Clock</Description><StartTime><Timestamp dt:dt=""int"">0</Timestamp><DateUtc dt:dt=""string"">2015-04-14T17:58:50Z</DateUtc></StartTime><FrequencyChanges><FrequencyChange><Frequency dt:dt=""r8"">2825654</Frequency><Timestamp dt:dt=""r8"">3189304526267</Timestamp><Current dt:dt=""r8"">0</Current><DateUtc dt:dt=""string"">2015-04-14T17:58:50Z</DateUtc></FrequencyChange></FrequencyChanges></Clock>\n"	Arrow Flanker 2014-12180-1	60.018	1.0.0.100	1	-1855641731	Professional	2.0.10.353	2.0.10.353	04-14-2015	4/14/2015 5:58:50 PM	13:58:50	2.0.10.248	3	1	1	1	NA	NA	NA	NA	NA	NA	NA	NA	NA	NA	NA	NA	NA	NA	NA	NA	NA	NA	NA	NA	NA	NA	NA	NA	BlockProc	BlockList	NA	45	{RIGHTARROW}	NA	-100	1693	congruent	NA	NA	NA	NA	NA	NA	NA	NA	NA	NA	NA	NA	NA	NA	NA	NA	NA	NA	NA	NA	NA	NA	TrialProc	TrialList	0	10	366184	16	0	17	363718	1499	1	{RIGHTARROW}	-999999	0	365717	0	{RIGHTARROW}	457	366174	NA	NA	right	rrrrr.bmp	354	0	NA	0	0	0	0	NA	0	0	0	NA	0	0	0	0	NA	0	0	2	1	45
Arrow Flanker 2014	12180	1	"<?xml version=""1.0""?>\n<Clock xmlns:dt=""urn:schemas-microsoft-com:datatypes""><Description dt:dt=""string"">E-Prime Primary Realtime Clock</Description><StartTime><Timestamp dt:dt=""int"">0</Timestamp><DateUtc dt:dt=""string"">2015-04-14T17:58:50Z</DateUtc></StartTime><FrequencyChanges><FrequencyChange><Frequency dt:dt=""r8"">2825654</Frequency><Timestamp dt:dt=""r8"">3189304526267</Timestamp><Current dt:dt=""r8"">0</Current><DateUtc dt:dt=""string"">2015-04-14T17:58:50Z</DateUtc></FrequencyChange></FrequencyChanges></Clock>\n"	Arrow Flanker 2014-12180-1	60.018	1.0.0.100	1	-1855641731	Professional	2.0.10.353	2.0.10.353	04-14-2015	4/14/2015 5:58:50 PM	13:58:50	2.0.10.248	3	1	1	1	NA	NA	NA	NA	NA	NA	NA	NA	NA	NA	NA	NA	NA	NA	NA	NA	NA	NA	NA	NA	NA	NA	NA	NA	BlockProc	BlockList	NA	46	{LEFTARROW}	NA	-100	2271	neutral	NA	NA	NA	NA	NA	NA	NA	NA	NA	NA	NA	NA	NA	NA	NA	NA	NA	NA	NA	NA	NA	NA	TrialProc	TrialList	1	7	368916	17	0	17	366717	0	1	{LEFTARROW}	-999999	0	368500	0	{LEFTARROW}	409	368909	NA	NA	left	ooloo.bmp	354	0	NA	0	0	0	0	NA	0	0	0	NA	0	0	0	0	NA	0	0	5	1	46
Arrow Flanker 2014	12180	1	"<?xml version=""1.0""?>\n<Clock xmlns:dt=""urn:schemas-microsoft-com:datatypes""><Description dt:dt=""string"">E-Prime Primary Realtime Clock</Description><StartTime><Timestamp dt:dt=""int"">0</Timestamp><DateUtc dt:dt=""string"">2015-04-14T17:58:50Z</DateUtc></StartTime><FrequencyChanges><FrequencyChange><Frequency dt:dt=""r8"">2825654</Frequency><Timestamp dt:dt=""r8"">3189304526267</Timestamp><Current dt:dt=""r8"">0</Current><DateUtc dt:dt=""string"">2015-04-14T17:58:50Z</DateUtc></FrequencyChange></FrequencyChanges></Clock>\n"	Arrow Flanker 2014-12180-1	60.018	1.0.0.100	1	-1855641731	Professional	2.0.10.353	2.0.10.353	04-14-2015	4/14/2015 5:58:50 PM	13:58:50	2.0.10.248	3	1	1	1	NA	NA	NA	NA	NA	NA	NA	NA	NA	NA	NA	NA	NA	NA	NA	NA	NA	NA	NA	NA	NA	NA	NA	NA	BlockProc	BlockList	NA	47	{RIGHTARROW}	NA	-100	1488	incongruent	NA	NA	NA	NA	NA	NA	NA	NA	NA	NA	NA	NA	NA	NA	NA	NA	NA	NA	NA	NA	NA	NA	TrialProc	TrialList	0	18	371199	17	0	16	369449	0	1	{RIGHTARROW}	-999999	0	370666	0	{RIGHTARROW}	515	371181	NA	NA	right	llrll.bmp	354	0	NA	0	0	0	0	NA	0	0	0	NA	0	0	0	0	NA	0	0	4	1	47
Arrow Flanker 2014	12180	1	"<?xml version=""1.0""?>\n<Clock xmlns:dt=""urn:schemas-microsoft-com:datatypes""><Description dt:dt=""string"">E-Prime Primary Realtime Clock</Description><StartTime><Timestamp dt:dt=""int"">0</Timestamp><DateUtc dt:dt=""string"">2015-04-14T17:58:50Z</DateUtc></StartTime><FrequencyChanges><FrequencyChange><Frequency dt:dt=""r8"">2825654</Frequency><Timestamp dt:dt=""r8"">3189304526267</Timestamp><Current dt:dt=""r8"">0</Current><DateUtc dt:dt=""string"">2015-04-14T17:58:50Z</DateUtc></FrequencyChange></FrequencyChanges></Clock>\n"	Arrow Flanker 2014-12180-1	60.018	1.0.0.100	1	-1855641731	Professional	2.0.10.353	2.0.10.353	04-14-2015	4/14/2015 5:58:50 PM	13:58:50	2.0.10.248	3	1	1	1	NA	NA	NA	NA	NA	NA	NA	NA	NA	NA	NA	NA	NA	NA	NA	NA	NA	NA	NA	NA	NA	NA	NA	NA	BlockProc	BlockList	NA	48	{LEFTARROW}	NA	-100	2070	congruent	NA	NA	NA	NA	NA	NA	NA	NA	NA	NA	NA	NA	NA	NA	NA	NA	NA	NA	NA	NA	NA	NA	TrialProc	TrialList	0	4	373665	16	0	16	371732	0	1	{LEFTARROW}	-999999	0	373115	0	{LEFTARROW}	546	373661	NA	NA	left	lllll.bmp	354	0	NA	0	0	0	0	NA	0	0	0	NA	0	0	0	0	NA	0	0	1	1	48
Arrow Flanker 2014	12180	1	"<?xml version=""1.0""?>\n<Clock xmlns:dt=""urn:schemas-microsoft-com:datatypes""><Description dt:dt=""string"">E-Prime Primary Realtime Clock</Description><StartTime><Timestamp dt:dt=""int"">0</Timestamp><DateUtc dt:dt=""string"">2015-04-14T17:58:50Z</DateUtc></StartTime><FrequencyChanges><FrequencyChange><Frequency dt:dt=""r8"">2825654</Frequency><Timestamp dt:dt=""r8"">3189304526267</Timestamp><Current dt:dt=""r8"">0</Current><DateUtc dt:dt=""string"">2015-04-14T17:58:50Z</DateUtc></FrequencyChange></FrequencyChanges></Clock>\n"	Arrow Flanker 2014-12180-1	60.018	1.0.0.100	1	-1855641731	Professional	2.0.10.353	2.0.10.353	04-14-2015	4/14/2015 5:58:50 PM	13:58:50	2.0.10.248	3	1	1	1	NA	NA	NA	NA	NA	NA	NA	NA	NA	NA	NA	NA	NA	NA	NA	NA	NA	NA	NA	NA	NA	NA	NA	NA	BlockProc	BlockList	NA	49	{LEFTARROW}	NA	-100	1115	neutral	NA	NA	NA	NA	NA	NA	NA	NA	NA	NA	NA	NA	NA	NA	NA	NA	NA	NA	NA	NA	NA	NA	TrialProc	TrialList	0	14	375931	16	0	17	374198	0	1	{LEFTARROW}	-999999	0	375398	0	{LEFTARROW}	519	375917	NA	NA	left	ooloo.bmp	354	0	NA	0	0	0	0	NA	0	0	0	NA	0	0	0	0	NA	0	0	5	1	49
Arrow Flanker 2014	12180	1	"<?xml version=""1.0""?>\n<Clock xmlns:dt=""urn:schemas-microsoft-com:datatypes""><Description dt:dt=""string"">E-Prime Primary Realtime Clock</Description><StartTime><Timestamp dt:dt=""int"">0</Timestamp><DateUtc dt:dt=""string"">2015-04-14T17:58:50Z</DateUtc></StartTime><FrequencyChanges><FrequencyChange><Frequency dt:dt=""r8"">2825654</Frequency><Timestamp dt:dt=""r8"">3189304526267</Timestamp><Current dt:dt=""r8"">0</Current><DateUtc dt:dt=""string"">2015-04-14T17:58:50Z</DateUtc></FrequencyChange></FrequencyChanges></Clock>\n"	Arrow Flanker 2014-12180-1	60.018	1.0.0.100	1	-1855641731	Professional	2.0.10.353	2.0.10.353	04-14-2015	4/14/2015 5:58:50 PM	13:58:50	2.0.10.248	3	1	1	1	NA	NA	NA	NA	NA	NA	NA	NA	NA	NA	NA	NA	NA	NA	NA	NA	NA	NA	NA	NA	NA	NA	NA	NA	BlockProc	BlockList	NA	50	{RIGHTARROW}	NA	-100	2045	congruent	NA	NA	NA	NA	NA	NA	NA	NA	NA	NA	NA	NA	NA	NA	NA	NA	NA	NA	NA	NA	NA	NA	TrialProc	TrialList	1	12	378313	17	0	17	376464	0	1	{RIGHTARROW}	-999999	0	377864	0	{RIGHTARROW}	437	378301	NA	NA	right	rrrrr.bmp	354	0	NA	0	0	0	0	NA	0	0	0	NA	0	0	0	0	NA	0	0	2	1	50
Arrow Flanker 2014	12180	1	"<?xml version=""1.0""?>\n<Clock xmlns:dt=""urn:schemas-microsoft-com:datatypes""><Description dt:dt=""string"">E-Prime Primary Realtime Clock</Description><StartTime><Timestamp dt:dt=""int"">0</Timestamp><DateUtc dt:dt=""string"">2015-04-14T17:58:50Z</DateUtc></StartTime><FrequencyChanges><FrequencyChange><Frequency dt:dt=""r8"">2825654</Frequency><Timestamp dt:dt=""r8"">3189304526267</Timestamp><Current dt:dt=""r8"">0</Current><DateUtc dt:dt=""string"">2015-04-14T17:58:50Z</DateUtc></FrequencyChange></FrequencyChanges></Clock>\n"	Arrow Flanker 2014-12180-1	60.018	1.0.0.100	1	-1855641731	Professional	2.0.10.353	2.0.10.353	04-14-2015	4/14/2015 5:58:50 PM	13:58:50	2.0.10.248	3	1	1	1	NA	NA	NA	NA	NA	NA	NA	NA	NA	NA	NA	NA	NA	NA	NA	NA	NA	NA	NA	NA	NA	NA	NA	NA	BlockProc	BlockList	NA	51	{RIGHTARROW}	NA	-100	1638	congruent	NA	NA	NA	NA	NA	NA	NA	NA	NA	NA	NA	NA	NA	NA	NA	NA	NA	NA	NA	NA	NA	NA	TrialProc	TrialList	0	16	380813	16	0	17	378847	0	1	{RIGHTARROW}	-999999	0	380313	0	{RIGHTARROW}	484	380797	NA	NA	right	rrrrr.bmp	354	0	NA	0	0	0	0	NA	0	0	0	NA	0	0	0	0	NA	0	0	2	1	51
Arrow Flanker 2014	12180	1	"<?xml version=""1.0""?>\n<Clock xmlns:dt=""urn:schemas-microsoft-com:datatypes""><Description dt:dt=""string"">E-Prime Primary Realtime Clock</Description><StartTime><Timestamp dt:dt=""int"">0</Timestamp><DateUtc dt:dt=""string"">2015-04-14T17:58:50Z</DateUtc></StartTime><FrequencyChanges><FrequencyChange><Frequency dt:dt=""r8"">2825654</Frequency><Timestamp dt:dt=""r8"">3189304526267</Timestamp><Current dt:dt=""r8"">0</Current><DateUtc dt:dt=""string"">2015-04-14T17:58:50Z</DateUtc></FrequencyChange></FrequencyChanges></Clock>\n"	Arrow Flanker 2014-12180-1	60.018	1.0.0.100	1	-1855641731	Professional	2.0.10.353	2.0.10.353	04-14-2015	4/14/2015 5:58:50 PM	13:58:50	2.0.10.248	3	1	1	1	NA	NA	NA	NA	NA	NA	NA	NA	NA	NA	NA	NA	NA	NA	NA	NA	NA	NA	NA	NA	NA	NA	NA	NA	BlockProc	BlockList	NA	52	{RIGHTARROW}	NA	-100	1684	congruent	NA	NA	NA	NA	NA	NA	NA	NA	NA	NA	NA	NA	NA	NA	NA	NA	NA	NA	NA	NA	NA	NA	TrialProc	TrialList	0	14	383579	16	0	17	381346	0	1	{RIGHTARROW}	-999999	0	383129	0	{RIGHTARROW}	436	383565	NA	NA	right	rrrrr.bmp	354	0	NA	0	0	0	0	NA	0	0	0	NA	0	0	0	0	NA	0	0	2	1	52
Arrow Flanker 2014	12180	1	"<?xml version=""1.0""?>\n<Clock xmlns:dt=""urn:schemas-microsoft-com:datatypes""><Description dt:dt=""string"">E-Prime Primary Realtime Clock</Description><StartTime><Timestamp dt:dt=""int"">0</Timestamp><DateUtc dt:dt=""string"">2015-04-14T17:58:50Z</DateUtc></StartTime><FrequencyChanges><FrequencyChange><Frequency dt:dt=""r8"">2825654</Frequency><Timestamp dt:dt=""r8"">3189304526267</Timestamp><Current dt:dt=""r8"">0</Current><DateUtc dt:dt=""string"">2015-04-14T17:58:50Z</DateUtc></FrequencyChange></FrequencyChanges></Clock>\n"	Arrow Flanker 2014-12180-1	60.018	1.0.0.100	1	-1855641731	Professional	2.0.10.353	2.0.10.353	04-14-2015	4/14/2015 5:58:50 PM	13:58:50	2.0.10.248	3	1	1	1	NA	NA	NA	NA	NA	NA	NA	NA	NA	NA	NA	NA	NA	NA	NA	NA	NA	NA	NA	NA	NA	NA	NA	NA	BlockProc	BlockList	NA	53	{LEFTARROW}	NA	-100	1769	neutral	NA	NA	NA	NA	NA	NA	NA	NA	NA	NA	NA	NA	NA	NA	NA	NA	NA	NA	NA	NA	NA	NA	TrialProc	TrialList	0	15	386028	16	0	17	384112	0	1	{LEFTARROW}	-999999	0	385528	0	{LEFTARROW}	484	386012	NA	NA	left	ooloo.bmp	354	0	NA	0	0	0	0	NA	0	0	0	NA	0	0	0	0	NA	0	0	5	1	53
Arrow Flanker 2014	12180	1	"<?xml version=""1.0""?>\n<Clock xmlns:dt=""urn:schemas-microsoft-com:datatypes""><Description dt:dt=""string"">E-Prime Primary Realtime Clock</Description><StartTime><Timestamp dt:dt=""int"">0</Timestamp><DateUtc dt:dt=""string"">2015-04-14T17:58:50Z</DateUtc></StartTime><FrequencyChanges><FrequencyChange><Frequency dt:dt=""r8"">2825654</Frequency><Timestamp dt:dt=""r8"">3189304526267</Timestamp><Current dt:dt=""r8"">0</Current><DateUtc dt:dt=""string"">2015-04-14T17:58:50Z</DateUtc></FrequencyChange></FrequencyChanges></Clock>\n"	Arrow Flanker 2014-12180-1	60.018	1.0.0.100	1	-1855641731	Professional	2.0.10.353	2.0.10.353	04-14-2015	4/14/2015 5:58:50 PM	13:58:50	2.0.10.248	3	1	1	1	NA	NA	NA	NA	NA	NA	NA	NA	NA	NA	NA	NA	NA	NA	NA	NA	NA	NA	NA	NA	NA	NA	NA	NA	BlockProc	BlockList	NA	54	{LEFTARROW}	NA	-100	1340	congruent	NA	NA	NA	NA	NA	NA	NA	NA	NA	NA	NA	NA	NA	NA	NA	NA	NA	NA	NA	NA	1	NA	TrialProc	TrialList	0	12	388744	16	0	17	386561	0	1	{LEFTARROW}	-999999	0	388294	0	{LEFTARROW}	438	388732	NA	NA	left	lllll.bmp	354	0	NA	-999999	17	389277	0	1	1603	390880	0	NA	0	0	0	0	NA	0	0	1	1	54
Arrow Flanker 2014	12180	1	"<?xml version=""1.0""?>\n<Clock xmlns:dt=""urn:schemas-microsoft-com:datatypes""><Description dt:dt=""string"">E-Prime Primary Realtime Clock</Description><StartTime><Timestamp dt:dt=""int"">0</Timestamp><DateUtc dt:dt=""string"">2015-04-14T17:58:50Z</DateUtc></StartTime><FrequencyChanges><FrequencyChange><Frequency dt:dt=""r8"">2825654</Frequency><Timestamp dt:dt=""r8"">3189304526267</Timestamp><Current dt:dt=""r8"">0</Current><DateUtc dt:dt=""string"">2015-04-14T17:58:50Z</DateUtc></FrequencyChange></FrequencyChanges></Clock>\n"	Arrow Flanker 2014-12180-1	60.018	1.0.0.100	1	-1855641731	Professional	2.0.10.353	2.0.10.353	04-14-2015	4/14/2015 5:58:50 PM	13:58:50	2.0.10.248	3	1	1	1	NA	NA	NA	NA	NA	NA	NA	NA	NA	NA	NA	NA	NA	NA	NA	NA	NA	NA	NA	NA	NA	NA	NA	NA	BlockProc	BlockList	NA	55	{LEFTARROW}	NA	-100	1153	neutral	NA	NA	NA	NA	NA	NA	NA	NA	NA	NA	NA	NA	NA	NA	NA	NA	NA	NA	NA	NA	NA	NA	TrialProc	TrialList	0	16	395292	16	0	10	393126	0	1	{LEFTARROW}	-999999	0	394742	0	{LEFTARROW}	534	395276	NA	NA	left	ooloo.bmp	354	0	NA	0	0	0	0	NA	0	0	0	NA	0	0	0	0	NA	0	0	5	1	55
Arrow Flanker 2014	12180	1	"<?xml version=""1.0""?>\n<Clock xmlns:dt=""urn:schemas-microsoft-com:datatypes""><Description dt:dt=""string"">E-Prime Primary Realtime Clock</Description><StartTime><Timestamp dt:dt=""int"">0</Timestamp><DateUtc dt:dt=""string"">2015-04-14T17:58:50Z</DateUtc></StartTime><FrequencyChanges><FrequencyChange><Frequency dt:dt=""r8"">2825654</Frequency><Timestamp dt:dt=""r8"">3189304526267</Timestamp><Current dt:dt=""r8"">0</Current><DateUtc dt:dt=""string"">2015-04-14T17:58:50Z</DateUtc></FrequencyChange></FrequencyChanges></Clock>\n"	Arrow Flanker 2014-12180-1	60.018	1.0.0.100	1	-1855641731	Professional	2.0.10.353	2.0.10.353	04-14-2015	4/14/2015 5:58:50 PM	13:58:50	2.0.10.248	3	1	1	1	NA	NA	NA	NA	NA	NA	NA	NA	NA	NA	NA	NA	NA	NA	NA	NA	NA	NA	NA	NA	NA	NA	NA	NA	BlockProc	BlockList	NA	56	{RIGHTARROW}	NA	-100	2321	neutral	NA	NA	NA	NA	NA	NA	NA	NA	NA	NA	NA	NA	NA	NA	NA	NA	NA	NA	NA	NA	NA	NA	TrialProc	TrialList	1	16	398124	17	0	17	395825	0	1	{RIGHTARROW}	-999999	0	397691	0	{RIGHTARROW}	417	398108	NA	NA	right	ooroo.bmp	354	0	NA	0	0	0	0	NA	0	0	0	NA	0	0	0	0	NA	0	0	6	1	56
Arrow Flanker 2014	12180	1	"<?xml version=""1.0""?>\n<Clock xmlns:dt=""urn:schemas-microsoft-com:datatypes""><Description dt:dt=""string"">E-Prime Primary Realtime Clock</Description><StartTime><Timestamp dt:dt=""int"">0</Timestamp><DateUtc dt:dt=""string"">2015-04-14T17:58:50Z</DateUtc></StartTime><FrequencyChanges><FrequencyChange><Frequency dt:dt=""r8"">2825654</Frequency><Timestamp dt:dt=""r8"">3189304526267</Timestamp><Current dt:dt=""r8"">0</Current><DateUtc dt:dt=""string"">2015-04-14T17:58:50Z</DateUtc></FrequencyChange></FrequencyChanges></Clock>\n"	Arrow Flanker 2014-12180-1	60.018	1.0.0.100	1	-1855641731	Professional	2.0.10.353	2.0.10.353	04-14-2015	4/14/2015 5:58:50 PM	13:58:50	2.0.10.248	3	1	1	1	NA	NA	NA	NA	NA	NA	NA	NA	NA	NA	NA	NA	NA	NA	NA	NA	NA	NA	NA	NA	NA	NA	NA	NA	BlockProc	BlockList	NA	57	{RIGHTARROW}	NA	-100	1534	incongruent	NA	NA	NA	NA	NA	NA	NA	NA	NA	NA	NA	NA	NA	NA	NA	NA	NA	NA	NA	NA	NA	NA	TrialProc	TrialList	0	17	400557	17	0	16	398657	0	0	{RIGHTARROW}	-999999	0	400140	0	{LEFTARROW}	400	400540	NA	NA	right	llrll.bmp	354	0	NA	0	0	0	0	NA	0	0	0	NA	0	0	0	0	NA	0	0	4	1	57
Arrow Flanker 2014	12180	1	"<?xml version=""1.0""?>\n<Clock xmlns:dt=""urn:schemas-microsoft-com:datatypes""><Description dt:dt=""string"">E-Prime Primary Realtime Clock</Description><StartTime><Timestamp dt:dt=""int"">0</Timestamp><DateUtc dt:dt=""string"">2015-04-14T17:58:50Z</DateUtc></StartTime><FrequencyChanges><FrequencyChange><Frequency dt:dt=""r8"">2825654</Frequency><Timestamp dt:dt=""r8"">3189304526267</Timestamp><Current dt:dt=""r8"">0</Current><DateUtc dt:dt=""string"">2015-04-14T17:58:50Z</DateUtc></FrequencyChange></FrequencyChanges></Clock>\n"	Arrow Flanker 2014-12180-1	60.018	1.0.0.100	1	-1855641731	Professional	2.0.10.353	2.0.10.353	04-14-2015	4/14/2015 5:58:50 PM	13:58:50	2.0.10.248	3	1	1	1	NA	NA	NA	NA	NA	NA	NA	NA	NA	NA	NA	NA	NA	NA	NA	NA	NA	NA	NA	NA	NA	NA	NA	NA	BlockProc	BlockList	NA	58	{RIGHTARROW}	NA	-100	1564	congruent	NA	NA	NA	NA	NA	NA	NA	NA	NA	NA	NA	NA	NA	NA	NA	NA	NA	NA	NA	NA	NA	NA	TrialProc	TrialList	0	6	402690	16	0	16	401090	500	1	{RIGHTARROW}	-999999	0	402090	0	{RIGHTARROW}	593	402683	NA	NA	right	rrrrr.bmp	354	0	NA	0	0	0	0	NA	0	0	0	NA	0	0	0	0	NA	0	0	2	1	58
Arrow Flanker 2014	12180	1	"<?xml version=""1.0""?>\n<Clock xmlns:dt=""urn:schemas-microsoft-com:datatypes""><Description dt:dt=""string"">E-Prime Primary Realtime Clock</Description><StartTime><Timestamp dt:dt=""int"">0</Timestamp><DateUtc dt:dt=""string"">2015-04-14T17:58:50Z</DateUtc></StartTime><FrequencyChanges><FrequencyChange><Frequency dt:dt=""r8"">2825654</Frequency><Timestamp dt:dt=""r8"">3189304526267</Timestamp><Current dt:dt=""r8"">0</Current><DateUtc dt:dt=""string"">2015-04-14T17:58:50Z</DateUtc></FrequencyChange></FrequencyChanges></Clock>\n"	Arrow Flanker 2014-12180-1	60.018	1.0.0.100	1	-1855641731	Professional	2.0.10.353	2.0.10.353	04-14-2015	4/14/2015 5:58:50 PM	13:58:50	2.0.10.248	3	1	1	1	NA	NA	NA	NA	NA	NA	NA	NA	NA	NA	NA	NA	NA	NA	NA	NA	NA	NA	NA	NA	NA	NA	NA	NA	BlockProc	BlockList	NA	59	{LEFTARROW}	NA	-100	1266	congruent	NA	NA	NA	NA	NA	NA	NA	NA	NA	NA	NA	NA	NA	NA	NA	NA	NA	NA	NA	NA	NA	NA	TrialProc	TrialList	1	11	404822	17	0	17	403223	0	1	{LEFTARROW}	-999999	0	404389	0	{LEFTARROW}	422	404811	NA	NA	left	lllll.bmp	354	0	NA	0	0	0	0	NA	0	0	0	NA	0	0	0	0	NA	0	0	1	1	59
Arrow Flanker 2014	12180	1	"<?xml version=""1.0""?>\n<Clock xmlns:dt=""urn:schemas-microsoft-com:datatypes""><Description dt:dt=""string"">E-Prime Primary Realtime Clock</Description><StartTime><Timestamp dt:dt=""int"">0</Timestamp><DateUtc dt:dt=""string"">2015-04-14T17:58:50Z</DateUtc></StartTime><FrequencyChanges><FrequencyChange><Frequency dt:dt=""r8"">2825654</Frequency><Timestamp dt:dt=""r8"">3189304526267</Timestamp><Current dt:dt=""r8"">0</Current><DateUtc dt:dt=""string"">2015-04-14T17:58:50Z</DateUtc></FrequencyChange></FrequencyChanges></Clock>\n"	Arrow Flanker 2014-12180-1	60.018	1.0.0.100	1	-1855641731	Professional	2.0.10.353	2.0.10.353	04-14-2015	4/14/2015 5:58:50 PM	13:58:50	2.0.10.248	3	1	1	1	NA	NA	NA	NA	NA	NA	NA	NA	NA	NA	NA	NA	NA	NA	NA	NA	NA	NA	NA	NA	NA	NA	NA	NA	BlockProc	BlockList	NA	60	{RIGHTARROW}	NA	-100	2276	incongruent	NA	NA	NA	NA	NA	NA	NA	NA	NA	NA	NA	NA	NA	NA	NA	NA	NA	NA	NA	NA	NA	NA	TrialProc	TrialList	0	17	407788	17	0	16	405355	0	1	{RIGHTARROW}	-999999	0	407255	0	{RIGHTARROW}	516	407771	NA	NA	right	llrll.bmp	354	0	NA	0	0	0	0	NA	0	0	0	NA	0	0	0	0	NA	0	0	4	1	60
Arrow Flanker 2014	12180	1	"<?xml version=""1.0""?>\n<Clock xmlns:dt=""urn:schemas-microsoft-com:datatypes""><Description dt:dt=""string"">E-Prime Primary Realtime Clock</Description><StartTime><Timestamp dt:dt=""int"">0</Timestamp><DateUtc dt:dt=""string"">2015-04-14T17:58:50Z</DateUtc></StartTime><FrequencyChanges><FrequencyChange><Frequency dt:dt=""r8"">2825654</Frequency><Timestamp dt:dt=""r8"">3189304526267</Timestamp><Current dt:dt=""r8"">0</Current><DateUtc dt:dt=""string"">2015-04-14T17:58:50Z</DateUtc></FrequencyChange></FrequencyChanges></Clock>\n"	Arrow Flanker 2014-12180-1	60.018	1.0.0.100	1	-1855641731	Professional	2.0.10.353	2.0.10.353	04-14-2015	4/14/2015 5:58:50 PM	13:58:50	2.0.10.248	3	1	1	1	NA	NA	NA	NA	NA	NA	NA	NA	NA	NA	NA	NA	NA	NA	NA	NA	NA	NA	NA	NA	NA	NA	NA	NA	BlockProc	BlockList	NA	61	{RIGHTARROW}	NA	-100	2509	neutral	NA	NA	NA	NA	NA	NA	NA	NA	NA	NA	NA	NA	NA	NA	NA	NA	NA	NA	NA	NA	NA	NA	TrialProc	TrialList	1	8	410787	17	0	16	408321	0	1	{RIGHTARROW}	-999999	0	410287	0	{RIGHTARROW}	492	410779	NA	NA	right	ooroo.bmp	354	0	NA	0	0	0	0	NA	0	0	0	NA	0	0	0	0	NA	0	0	6	1	61
Arrow Flanker 2014	12180	1	"<?xml version=""1.0""?>\n<Clock xmlns:dt=""urn:schemas-microsoft-com:datatypes""><Description dt:dt=""string"">E-Prime Primary Realtime Clock</Description><StartTime><Timestamp dt:dt=""int"">0</Timestamp><DateUtc dt:dt=""string"">2015-04-14T17:58:50Z</DateUtc></StartTime><FrequencyChanges><FrequencyChange><Frequency dt:dt=""r8"">2825654</Frequency><Timestamp dt:dt=""r8"">3189304526267</Timestamp><Current dt:dt=""r8"">0</Current><DateUtc dt:dt=""string"">2015-04-14T17:58:50Z</DateUtc></FrequencyChange></FrequencyChanges></Clock>\n"	Arrow Flanker 2014-12180-1	60.018	1.0.0.100	1	-1855641731	Professional	2.0.10.353	2.0.10.353	04-14-2015	4/14/2015 5:58:50 PM	13:58:50	2.0.10.248	3	1	1	1	NA	NA	NA	NA	NA	NA	NA	NA	NA	NA	NA	NA	NA	NA	NA	NA	NA	NA	NA	NA	NA	NA	NA	NA	BlockProc	BlockList	NA	62	{RIGHTARROW}	NA	-100	562	incongruent	NA	NA	NA	NA	NA	NA	NA	NA	NA	NA	NA	NA	NA	NA	NA	NA	NA	NA	NA	NA	NA	NA	TrialProc	TrialList	1	10	412853	17	0	16	411320	0	1	{RIGHTARROW}	-999999	0	412237	0	{RIGHTARROW}	606	412843	NA	NA	right	llrll.bmp	354	0	NA	0	0	0	0	NA	0	0	0	NA	0	0	0	0	NA	0	0	4	1	62
Arrow Flanker 2014	12180	1	"<?xml version=""1.0""?>\n<Clock xmlns:dt=""urn:schemas-microsoft-com:datatypes""><Description dt:dt=""string"">E-Prime Primary Realtime Clock</Description><StartTime><Timestamp dt:dt=""int"">0</Timestamp><DateUtc dt:dt=""string"">2015-04-14T17:58:50Z</DateUtc></StartTime><FrequencyChanges><FrequencyChange><Frequency dt:dt=""r8"">2825654</Frequency><Timestamp dt:dt=""r8"">3189304526267</Timestamp><Current dt:dt=""r8"">0</Current><DateUtc dt:dt=""string"">2015-04-14T17:58:50Z</DateUtc></FrequencyChange></FrequencyChanges></Clock>\n"	Arrow Flanker 2014-12180-1	60.018	1.0.0.100	1	-1855641731	Professional	2.0.10.353	2.0.10.353	04-14-2015	4/14/2015 5:58:50 PM	13:58:50	2.0.10.248	3	1	1	1	NA	NA	NA	NA	NA	NA	NA	NA	NA	NA	NA	NA	NA	NA	NA	NA	NA	NA	NA	NA	NA	NA	NA	NA	BlockProc	BlockList	NA	63	{LEFTARROW}	NA	-100	2279	incongruent	NA	NA	NA	NA	NA	NA	NA	NA	NA	NA	NA	NA	NA	NA	NA	NA	NA	NA	NA	NA	NA	NA	TrialProc	TrialList	0	13	415736	16	0	16	413386	0	1	{LEFTARROW}	-999999	0	415186	0	{LEFTARROW}	537	415723	NA	NA	left	rrlrr.bmp	354	0	NA	0	0	0	0	NA	0	0	0	NA	0	0	0	0	NA	0	0	3	1	63
Arrow Flanker 2014	12180	1	"<?xml version=""1.0""?>\n<Clock xmlns:dt=""urn:schemas-microsoft-com:datatypes""><Description dt:dt=""string"">E-Prime Primary Realtime Clock</Description><StartTime><Timestamp dt:dt=""int"">0</Timestamp><DateUtc dt:dt=""string"">2015-04-14T17:58:50Z</DateUtc></StartTime><FrequencyChanges><FrequencyChange><Frequency dt:dt=""r8"">2825654</Frequency><Timestamp dt:dt=""r8"">3189304526267</Timestamp><Current dt:dt=""r8"">0</Current><DateUtc dt:dt=""string"">2015-04-14T17:58:50Z</DateUtc></FrequencyChange></FrequencyChanges></Clock>\n"	Arrow Flanker 2014-12180-1	60.018	1.0.0.100	1	-1855641731	Professional	2.0.10.353	2.0.10.353	04-14-2015	4/14/2015 5:58:50 PM	13:58:50	2.0.10.248	3	1	1	1	NA	NA	NA	NA	NA	NA	NA	NA	NA	NA	NA	NA	NA	NA	NA	NA	NA	NA	NA	NA	NA	NA	NA	NA	BlockProc	BlockList	NA	64	{RIGHTARROW}	NA	-100	1990	congruent	NA	NA	NA	NA	NA	NA	NA	NA	NA	NA	NA	NA	NA	NA	NA	NA	NA	NA	NA	NA	NA	NA	TrialProc	TrialList	0	6	418785	16	0	17	416269	0	1	{RIGHTARROW}	-999999	0	418268	0	{RIGHTARROW}	511	418779	NA	NA	right	rrrrr.bmp	354	0	NA	0	0	0	0	NA	0	0	0	NA	0	0	0	0	NA	0	0	2	1	64
Arrow Flanker 2014	12180	1	"<?xml version=""1.0""?>\n<Clock xmlns:dt=""urn:schemas-microsoft-com:datatypes""><Description dt:dt=""string"">E-Prime Primary Realtime Clock</Description><StartTime><Timestamp dt:dt=""int"">0</Timestamp><DateUtc dt:dt=""string"">2015-04-14T17:58:50Z</DateUtc></StartTime><FrequencyChanges><FrequencyChange><Frequency dt:dt=""r8"">2825654</Frequency><Timestamp dt:dt=""r8"">3189304526267</Timestamp><Current dt:dt=""r8"">0</Current><DateUtc dt:dt=""string"">2015-04-14T17:58:50Z</DateUtc></FrequencyChange></FrequencyChanges></Clock>\n"	Arrow Flanker 2014-12180-1	60.018	1.0.0.100	1	-1855641731	Professional	2.0.10.353	2.0.10.353	04-14-2015	4/14/2015 5:58:50 PM	13:58:50	2.0.10.248	3	1	1	1	NA	NA	NA	NA	NA	NA	NA	NA	NA	NA	NA	NA	NA	NA	NA	NA	NA	NA	NA	NA	NA	NA	NA	NA	BlockProc	BlockList	NA	65	{LEFTARROW}	NA	-100	1303	congruent	NA	NA	NA	NA	NA	NA	NA	NA	NA	NA	NA	NA	NA	NA	NA	NA	NA	NA	NA	NA	NA	NA	TrialProc	TrialList	0	9	421251	16	0	17	419318	0	1	{LEFTARROW}	-999999	0	420734	0	{LEFTARROW}	508	421242	NA	NA	left	lllll.bmp	354	0	NA	0	0	0	0	NA	0	0	0	NA	0	0	0	0	NA	0	0	1	1	65
Arrow Flanker 2014	12180	1	"<?xml version=""1.0""?>\n<Clock xmlns:dt=""urn:schemas-microsoft-com:datatypes""><Description dt:dt=""string"">E-Prime Primary Realtime Clock</Description><StartTime><Timestamp dt:dt=""int"">0</Timestamp><DateUtc dt:dt=""string"">2015-04-14T17:58:50Z</DateUtc></StartTime><FrequencyChanges><FrequencyChange><Frequency dt:dt=""r8"">2825654</Frequency><Timestamp dt:dt=""r8"">3189304526267</Timestamp><Current dt:dt=""r8"">0</Current><DateUtc dt:dt=""string"">2015-04-14T17:58:50Z</DateUtc></FrequencyChange></FrequencyChanges></Clock>\n"	Arrow Flanker 2014-12180-1	60.018	1.0.0.100	1	-1855641731	Professional	2.0.10.353	2.0.10.353	04-14-2015	4/14/2015 5:58:50 PM	13:58:50	2.0.10.248	3	1	1	1	NA	NA	NA	NA	NA	NA	NA	NA	NA	NA	NA	NA	NA	NA	NA	NA	NA	NA	NA	NA	NA	NA	NA	NA	BlockProc	BlockList	NA	66	{RIGHTARROW}	NA	-100	1580	incongruent	NA	NA	NA	NA	NA	NA	NA	NA	NA	NA	NA	NA	NA	NA	NA	NA	NA	NA	NA	NA	NA	NA	TrialProc	TrialList	0	19	423917	16	0	17	421784	0	1	{RIGHTARROW}	-999999	0	423400	0	{RIGHTARROW}	498	423898	NA	NA	right	llrll.bmp	354	0	NA	0	0	0	0	NA	0	0	0	NA	0	0	0	0	NA	0	0	4	1	66
Arrow Flanker 2014	12180	1	"<?xml version=""1.0""?>\n<Clock xmlns:dt=""urn:schemas-microsoft-com:datatypes""><Description dt:dt=""string"">E-Prime Primary Realtime Clock</Description><StartTime><Timestamp dt:dt=""int"">0</Timestamp><DateUtc dt:dt=""string"">2015-04-14T17:58:50Z</DateUtc></StartTime><FrequencyChanges><FrequencyChange><Frequency dt:dt=""r8"">2825654</Frequency><Timestamp dt:dt=""r8"">3189304526267</Timestamp><Current dt:dt=""r8"">0</Current><DateUtc dt:dt=""string"">2015-04-14T17:58:50Z</DateUtc></FrequencyChange></FrequencyChanges></Clock>\n"	Arrow Flanker 2014-12180-1	60.018	1.0.0.100	1	-1855641731	Professional	2.0.10.353	2.0.10.353	04-14-2015	4/14/2015 5:58:50 PM	13:58:50	2.0.10.248	3	1	1	1	NA	NA	NA	NA	NA	NA	NA	NA	NA	NA	NA	NA	NA	NA	NA	NA	NA	NA	NA	NA	NA	NA	NA	NA	BlockProc	BlockList	NA	67	{LEFTARROW}	NA	-100	1734	neutral	NA	NA	NA	NA	NA	NA	NA	NA	NA	NA	NA	NA	NA	NA	NA	NA	NA	NA	NA	NA	NA	NA	TrialProc	TrialList	1	5	425999	17	0	17	424450	0	1	{LEFTARROW}	-999999	0	425516	0	{LEFTARROW}	478	425994	NA	NA	left	ooloo.bmp	354	0	NA	0	0	0	0	NA	0	0	0	NA	0	0	0	0	NA	0	0	5	1	67
Arrow Flanker 2014	12180	1	"<?xml version=""1.0""?>\n<Clock xmlns:dt=""urn:schemas-microsoft-com:datatypes""><Description dt:dt=""string"">E-Prime Primary Realtime Clock</Description><StartTime><Timestamp dt:dt=""int"">0</Timestamp><DateUtc dt:dt=""string"">2015-04-14T17:58:50Z</DateUtc></StartTime><FrequencyChanges><FrequencyChange><Frequency dt:dt=""r8"">2825654</Frequency><Timestamp dt:dt=""r8"">3189304526267</Timestamp><Current dt:dt=""r8"">0</Current><DateUtc dt:dt=""string"">2015-04-14T17:58:50Z</DateUtc></FrequencyChange></FrequencyChanges></Clock>\n"	Arrow Flanker 2014-12180-1	60.018	1.0.0.100	1	-1855641731	Professional	2.0.10.353	2.0.10.353	04-14-2015	4/14/2015 5:58:50 PM	13:58:50	2.0.10.248	3	1	1	1	NA	NA	NA	NA	NA	NA	NA	NA	NA	NA	NA	NA	NA	NA	NA	NA	NA	NA	NA	NA	NA	NA	NA	NA	BlockProc	BlockList	NA	68	{LEFTARROW}	NA	-100	1855	incongruent	NA	NA	NA	NA	NA	NA	NA	NA	NA	NA	NA	NA	NA	NA	NA	NA	NA	NA	NA	NA	NA	NA	TrialProc	TrialList	0	14	428632	17	0	17	426533	0	1	{LEFTARROW}	-999999	16	428032	0	{LEFTARROW}	586	428618	NA	NA	left	rrlrr.bmp	354	0	NA	0	0	0	0	NA	0	0	0	NA	0	0	0	0	NA	0	0	3	1	68
Arrow Flanker 2014	12180	1	"<?xml version=""1.0""?>\n<Clock xmlns:dt=""urn:schemas-microsoft-com:datatypes""><Description dt:dt=""string"">E-Prime Primary Realtime Clock</Description><StartTime><Timestamp dt:dt=""int"">0</Timestamp><DateUtc dt:dt=""string"">2015-04-14T17:58:50Z</DateUtc></StartTime><FrequencyChanges><FrequencyChange><Frequency dt:dt=""r8"">2825654</Frequency><Timestamp dt:dt=""r8"">3189304526267</Timestamp><Current dt:dt=""r8"">0</Current><DateUtc dt:dt=""string"">2015-04-14T17:58:50Z</DateUtc></FrequencyChange></FrequencyChanges></Clock>\n"	Arrow Flanker 2014-12180-1	60.018	1.0.0.100	1	-1855641731	Professional	2.0.10.353	2.0.10.353	04-14-2015	4/14/2015 5:58:50 PM	13:58:50	2.0.10.248	3	1	1	1	NA	NA	NA	NA	NA	NA	NA	NA	NA	NA	NA	NA	NA	NA	NA	NA	NA	NA	NA	NA	NA	NA	NA	NA	BlockProc	BlockList	NA	69	{RIGHTARROW}	NA	-100	885	congruent	NA	NA	NA	NA	NA	NA	NA	NA	NA	NA	NA	NA	NA	NA	NA	NA	NA	NA	NA	NA	NA	NA	TrialProc	TrialList	0	11	430965	16	0	16	429165	0	1	{RIGHTARROW}	-999999	0	430398	0	{RIGHTARROW}	556	430954	NA	NA	right	rrrrr.bmp	354	0	NA	0	0	0	0	NA	0	0	0	NA	0	0	0	0	NA	0	0	2	1	69
Arrow Flanker 2014	12180	1	"<?xml version=""1.0""?>\n<Clock xmlns:dt=""urn:schemas-microsoft-com:datatypes""><Description dt:dt=""string"">E-Prime Primary Realtime Clock</Description><StartTime><Timestamp dt:dt=""int"">0</Timestamp><DateUtc dt:dt=""string"">2015-04-14T17:58:50Z</DateUtc></StartTime><FrequencyChanges><FrequencyChange><Frequency dt:dt=""r8"">2825654</Frequency><Timestamp dt:dt=""r8"">3189304526267</Timestamp><Current dt:dt=""r8"">0</Current><DateUtc dt:dt=""string"">2015-04-14T17:58:50Z</DateUtc></FrequencyChange></FrequencyChanges></Clock>\n"	Arrow Flanker 2014-12180-1	60.018	1.0.0.100	1	-1855641731	Professional	2.0.10.353	2.0.10.353	04-14-2015	4/14/2015 5:58:50 PM	13:58:50	2.0.10.248	3	1	1	1	NA	NA	NA	NA	NA	NA	NA	NA	NA	NA	NA	NA	NA	NA	NA	NA	NA	NA	NA	NA	NA	NA	NA	NA	BlockProc	BlockList	NA	70	{RIGHTARROW}	NA	-100	2216	neutral	NA	NA	NA	NA	NA	NA	NA	NA	NA	NA	NA	NA	NA	NA	NA	NA	NA	NA	NA	NA	1	NA	TrialProc	TrialList	0	9	433747	17	0	17	431498	0	1	{RIGHTARROW}	-999999	0	433331	0	{RIGHTARROW}	407	433738	NA	NA	right	ooroo.bmp	354	0	NA	-999999	16	434280	0	1	4485	438765	0	NA	0	0	0	0	NA	0	0	6	1	70
Arrow Flanker 2014	12180	1	"<?xml version=""1.0""?>\n<Clock xmlns:dt=""urn:schemas-microsoft-com:datatypes""><Description dt:dt=""string"">E-Prime Primary Realtime Clock</Description><StartTime><Timestamp dt:dt=""int"">0</Timestamp><DateUtc dt:dt=""string"">2015-04-14T17:58:50Z</DateUtc></StartTime><FrequencyChanges><FrequencyChange><Frequency dt:dt=""r8"">2825654</Frequency><Timestamp dt:dt=""r8"">3189304526267</Timestamp><Current dt:dt=""r8"">0</Current><DateUtc dt:dt=""string"">2015-04-14T17:58:50Z</DateUtc></FrequencyChange></FrequencyChanges></Clock>\n"	Arrow Flanker 2014-12180-1	60.018	1.0.0.100	1	-1855641731	Professional	2.0.10.353	2.0.10.353	04-14-2015	4/14/2015 5:58:50 PM	13:58:50	2.0.10.248	3	1	1	1	NA	NA	NA	NA	NA	NA	NA	NA	NA	NA	NA	NA	NA	NA	NA	NA	NA	NA	NA	NA	NA	NA	NA	NA	BlockProc	BlockList	NA	71	{LEFTARROW}	NA	-100	1996	incongruent	NA	NA	NA	NA	NA	NA	NA	NA	NA	NA	NA	NA	NA	NA	NA	NA	NA	NA	NA	NA	NA	NA	TrialProc	TrialList	0	5	442478	16	0	13	440262	0	1	{LEFTARROW}	-999999	16	441728	0	{LEFTARROW}	745	442473	NA	NA	left	rrlrr.bmp	354	0	NA	0	0	0	0	NA	0	0	0	NA	0	0	0	0	NA	0	0	3	1	71
Arrow Flanker 2014	12180	1	"<?xml version=""1.0""?>\n<Clock xmlns:dt=""urn:schemas-microsoft-com:datatypes""><Description dt:dt=""string"">E-Prime Primary Realtime Clock</Description><StartTime><Timestamp dt:dt=""int"">0</Timestamp><DateUtc dt:dt=""string"">2015-04-14T17:58:50Z</DateUtc></StartTime><FrequencyChanges><FrequencyChange><Frequency dt:dt=""r8"">2825654</Frequency><Timestamp dt:dt=""r8"">3189304526267</Timestamp><Current dt:dt=""r8"">0</Current><DateUtc dt:dt=""string"">2015-04-14T17:58:50Z</DateUtc></FrequencyChange></FrequencyChanges></Clock>\n"	Arrow Flanker 2014-12180-1	60.018	1.0.0.100	1	-1855641731	Professional	2.0.10.353	2.0.10.353	04-14-2015	4/14/2015 5:58:50 PM	13:58:50	2.0.10.248	3	1	1	1	NA	NA	NA	NA	NA	NA	NA	NA	NA	NA	NA	NA	NA	NA	NA	NA	NA	NA	NA	NA	NA	NA	NA	NA	BlockProc	BlockList	NA	72	{LEFTARROW}	NA	-100	1430	incongruent	NA	NA	NA	NA	NA	NA	NA	NA	NA	NA	NA	NA	NA	NA	NA	NA	NA	NA	NA	NA	NA	NA	TrialProc	TrialList	1	9	445410	17	0	17	443011	0	1	{LEFTARROW}	-999999	0	444827	0	{LEFTARROW}	574	445401	NA	NA	left	rrlrr.bmp	354	0	NA	0	0	0	0	NA	0	0	0	NA	0	0	0	0	NA	0	0	3	1	72
