ExperimentName	Subject	Session	Clock.Information	DataFile.Basename	Display.RefreshRate	ExperimentVersion	Group	RandomSeed	RuntimeCapabilities	RuntimeVersion	RuntimeVersionExpected	SessionDate	SessionStartDateTimeUtc	SessionTime	StudioVersion	Block	BlockList	BlockList.Cycle	BlockList.Sample	Both	CompletelyMW	CongMeanRT	CongTotal	Fragmented	GoodByeList	GoodByeList.Cycle	GoodByeList.Sample	IncongMeanRT	IncongTotal	MapBlockList	MapBlockList.Cycle	MapBlockList.Sample	Mindwandering	MostlyMW	MostlyOT	NeutralMeanRT	NeutralTotal	NumberProbes1	NumberProbes2	OnTask	PracBlockList	PracBlockList.Cycle	PracBlockList.Sample	Procedure[Block]	Running[Block]	Sequential	Trial	CorrectAnswer	CuePositionY	CuePositionY2	DurationOfFixation	FlankerType	MapTrialList	MapTrialList.Cycle	MapTrialList.Sample	PracSlideFixationStart.DurationError	PracSlideFixationStart.OnsetDelay	PracSlideFixationStart.OnsetTime	PracSlideFixationStart.OnsetToOnsetTime	PracSlideTarget.ACC	PracSlideTarget.CRESP	PracSlideTarget.DurationError	PracSlideTarget.OnsetDelay	PracSlideTarget.OnsetTime	PracSlideTarget.OnsetToOnsetTime	PracSlideTarget.RESP	PracSlideTarget.RT	PracSlideTarget.RTTime	PracSlideTarget.Tag	PracTrialList	PracTrialList.Cycle	PracTrialList.Sample	Probe1Resp	Probe2Resp	Procedure[Trial]	Running[Trial]	SlideFixationEnd.DurationError	SlideFixationEnd.OnsetDelay	SlideFixationEnd.OnsetTime	SlideFixationEnd.OnsetToOnsetTime	SlideFixationStart.DurationError	SlideFixationStart.OnsetDelay	SlideFixationStart.OnsetTime	SlideFixationStart.OnsetToOnsetTime	SlideTarget.ACC	SlideTarget.CRESP	SlideTarget.DurationError	SlideTarget.OnsetDelay	SlideTarget.OnsetTime	SlideTarget.OnsetToOnsetTime	SlideTarget.RESP	SlideTarget.RT	SlideTarget.RTTime	SlideTarget.Tag	TargerDirection	TargetDirection	TargetImage	TargetPosition	ThoughtProbe1.ACC	ThoughtProbe1.CRESP	ThoughtProbe1.DurationError	ThoughtProbe1.OnsetDelay	ThoughtProbe1.OnsetTime	ThoughtProbe1.OnsetToOnsetTime	ThoughtProbe1.RESP	ThoughtProbe1.RT	ThoughtProbe1.RTTime	ThoughtProbe2.ACC	ThoughtProbe2.CRESP	ThoughtProbe2.DurationError	ThoughtProbe2.OnsetDelay	ThoughtProbe2.OnsetTime	ThoughtProbe2.OnsetToOnsetTime	ThoughtProbe2.RESP	ThoughtProbe2.RT	ThoughtProbe2.RTTime	TrialList	TrialList.Cycle	TrialList.Sample
Arrow Flanker 2014	12187	1	"<?xml version=""1.0""?>\n<Clock xmlns:dt=""urn:schemas-microsoft-com:datatypes""><Description dt:dt=""string"">E-Prime Primary Realtime Clock</Description><StartTime><Timestamp dt:dt=""int"">0</Timestamp><DateUtc dt:dt=""string"">2015-04-15T20:06:23Z</DateUtc></StartTime><FrequencyChanges><FrequencyChange><Frequency dt:dt=""r8"">2825625</Frequency><Timestamp dt:dt=""r8"">297840400673</Timestamp><Current dt:dt=""r8"">0</Current><DateUtc dt:dt=""string"">2015-04-15T20:06:23Z</DateUtc></FrequencyChange></FrequencyChanges></Clock>\n"	Arrow Flanker 2014-12187-1	60.017	1.0.0.100	1	1488228433	Professional	2.0.10.353	2.0.10.353	04-15-2015	4/15/2015 8:06:23 PM	16:06:23	2.0.10.248	1	NA	NA	NA	NA	NA	NA	NA	NA	NA	NA	NA	NA	NA	1	1	1	NA	NA	NA	NA	NA	NA	NA	NA	NA	NA	NA	MapBlockProc	MapBlockList	NA	1	{RIGHTARROW}	-100	NA	1546	NA	2	1	1	0	12	155802	1550	1	{RIGHTARROW}	-999999	0	157852	0	{RIGHTARROW}	738	158590	NA	NA	NA	NA	NA	NA	MapTrialProc	MapTrialList	NA	NA	NA	NA	NA	NA	NA	NA	NA	NA	NA	NA	NA	NA	NA	NA	NA	NA	right	NA	R.bmp	354	NA	NA	NA	NA	NA	NA	NA	NA	NA	NA	NA	NA	NA	NA	NA	NA	NA	NA	NA	NA	NA
Arrow Flanker 2014	12187	1	"<?xml version=""1.0""?>\n<Clock xmlns:dt=""urn:schemas-microsoft-com:datatypes""><Description dt:dt=""string"">E-Prime Primary Realtime Clock</Description><StartTime><Timestamp dt:dt=""int"">0</Timestamp><DateUtc dt:dt=""string"">2015-04-15T20:06:23Z</DateUtc></StartTime><FrequencyChanges><FrequencyChange><Frequency dt:dt=""r8"">2825625</Frequency><Timestamp dt:dt=""r8"">297840400673</Timestamp><Current dt:dt=""r8"">0</Current><DateUtc dt:dt=""string"">2015-04-15T20:06:23Z</DateUtc></FrequencyChange></FrequencyChanges></Clock>\n"	Arrow Flanker 2014-12187-1	60.017	1.0.0.100	1	1488228433	Professional	2.0.10.353	2.0.10.353	04-15-2015	4/15/2015 8:06:23 PM	16:06:23	2.0.10.248	1	NA	NA	NA	NA	NA	NA	NA	NA	NA	NA	NA	NA	NA	1	1	1	NA	NA	NA	NA	NA	NA	NA	NA	NA	NA	NA	MapBlockProc	MapBlockList	NA	2	{LEFTARROW}	-100	NA	654	NA	1	1	2	0	16	160134	667	1	{LEFTARROW}	-999999	0	161301	0	{LEFTARROW}	505	161806	NA	NA	NA	NA	NA	NA	MapTrialProc	MapTrialList	NA	NA	NA	NA	NA	NA	NA	NA	NA	NA	NA	NA	NA	NA	NA	NA	NA	NA	left	NA	L.bmp	354	NA	NA	NA	NA	NA	NA	NA	NA	NA	NA	NA	NA	NA	NA	NA	NA	NA	NA	NA	NA	NA
Arrow Flanker 2014	12187	1	"<?xml version=""1.0""?>\n<Clock xmlns:dt=""urn:schemas-microsoft-com:datatypes""><Description dt:dt=""string"">E-Prime Primary Realtime Clock</Description><StartTime><Timestamp dt:dt=""int"">0</Timestamp><DateUtc dt:dt=""string"">2015-04-15T20:06:23Z</DateUtc></StartTime><FrequencyChanges><FrequencyChange><Frequency dt:dt=""r8"">2825625</Frequency><Timestamp dt:dt=""r8"">297840400673</Timestamp><Current dt:dt=""r8"">0</Current><DateUtc dt:dt=""string"">2015-04-15T20:06:23Z</DateUtc></FrequencyChange></FrequencyChanges></Clock>\n"	Arrow Flanker 2014-12187-1	60.017	1.0.0.100	1	1488228433	Professional	2.0.10.353	2.0.10.353	04-15-2015	4/15/2015 8:06:23 PM	16:06:23	2.0.10.248	1	NA	NA	NA	NA	NA	NA	NA	NA	NA	NA	NA	NA	NA	1	1	1	NA	NA	NA	NA	NA	NA	NA	NA	NA	NA	NA	MapBlockProc	MapBlockList	NA	3	{RIGHTARROW}	-100	NA	1561	NA	2	1	3	0	16	163333	1567	1	{RIGHTARROW}	-999999	16	165416	0	{RIGHTARROW}	662	166078	NA	NA	NA	NA	NA	NA	MapTrialProc	MapTrialList	NA	NA	NA	NA	NA	NA	NA	NA	NA	NA	NA	NA	NA	NA	NA	NA	NA	NA	right	NA	R.bmp	354	NA	NA	NA	NA	NA	NA	NA	NA	NA	NA	NA	NA	NA	NA	NA	NA	NA	NA	NA	NA	NA
Arrow Flanker 2014	12187	1	"<?xml version=""1.0""?>\n<Clock xmlns:dt=""urn:schemas-microsoft-com:datatypes""><Description dt:dt=""string"">E-Prime Primary Realtime Clock</Description><StartTime><Timestamp dt:dt=""int"">0</Timestamp><DateUtc dt:dt=""string"">2015-04-15T20:06:23Z</DateUtc></StartTime><FrequencyChanges><FrequencyChange><Frequency dt:dt=""r8"">2825625</Frequency><Timestamp dt:dt=""r8"">297840400673</Timestamp><Current dt:dt=""r8"">0</Current><DateUtc dt:dt=""string"">2015-04-15T20:06:23Z</DateUtc></FrequencyChange></FrequencyChanges></Clock>\n"	Arrow Flanker 2014-12187-1	60.017	1.0.0.100	1	1488228433	Professional	2.0.10.353	2.0.10.353	04-15-2015	4/15/2015 8:06:23 PM	16:06:23	2.0.10.248	1	NA	NA	NA	NA	NA	NA	NA	NA	NA	NA	NA	NA	NA	1	1	1	NA	NA	NA	NA	NA	NA	NA	NA	NA	NA	NA	MapBlockProc	MapBlockList	NA	4	{LEFTARROW}	-100	NA	1288	NA	1	1	4	0	17	167616	1299	1	{LEFTARROW}	-999999	0	169415	0	{LEFTARROW}	550	169965	NA	NA	NA	NA	NA	NA	MapTrialProc	MapTrialList	NA	NA	NA	NA	NA	NA	NA	NA	NA	NA	NA	NA	NA	NA	NA	NA	NA	NA	left	NA	L.bmp	354	NA	NA	NA	NA	NA	NA	NA	NA	NA	NA	NA	NA	NA	NA	NA	NA	NA	NA	NA	NA	NA
Arrow Flanker 2014	12187	1	"<?xml version=""1.0""?>\n<Clock xmlns:dt=""urn:schemas-microsoft-com:datatypes""><Description dt:dt=""string"">E-Prime Primary Realtime Clock</Description><StartTime><Timestamp dt:dt=""int"">0</Timestamp><DateUtc dt:dt=""string"">2015-04-15T20:06:23Z</DateUtc></StartTime><FrequencyChanges><FrequencyChange><Frequency dt:dt=""r8"">2825625</Frequency><Timestamp dt:dt=""r8"">297840400673</Timestamp><Current dt:dt=""r8"">0</Current><DateUtc dt:dt=""string"">2015-04-15T20:06:23Z</DateUtc></FrequencyChange></FrequencyChanges></Clock>\n"	Arrow Flanker 2014-12187-1	60.017	1.0.0.100	1	1488228433	Professional	2.0.10.353	2.0.10.353	04-15-2015	4/15/2015 8:06:23 PM	16:06:23	2.0.10.248	1	NA	NA	NA	NA	NA	NA	NA	NA	NA	NA	NA	NA	NA	1	1	1	NA	NA	NA	NA	NA	NA	NA	NA	NA	NA	NA	MapBlockProc	MapBlockList	NA	5	{RIGHTARROW}	-100	NA	713	NA	2	1	5	0	16	171498	716	1	{RIGHTARROW}	-999999	0	172714	0	{RIGHTARROW}	675	173389	NA	NA	NA	NA	NA	NA	MapTrialProc	MapTrialList	NA	NA	NA	NA	NA	NA	NA	NA	NA	NA	NA	NA	NA	NA	NA	NA	NA	NA	right	NA	R.bmp	354	NA	NA	NA	NA	NA	NA	NA	NA	NA	NA	NA	NA	NA	NA	NA	NA	NA	NA	NA	NA	NA
Arrow Flanker 2014	12187	1	"<?xml version=""1.0""?>\n<Clock xmlns:dt=""urn:schemas-microsoft-com:datatypes""><Description dt:dt=""string"">E-Prime Primary Realtime Clock</Description><StartTime><Timestamp dt:dt=""int"">0</Timestamp><DateUtc dt:dt=""string"">2015-04-15T20:06:23Z</DateUtc></StartTime><FrequencyChanges><FrequencyChange><Frequency dt:dt=""r8"">2825625</Frequency><Timestamp dt:dt=""r8"">297840400673</Timestamp><Current dt:dt=""r8"">0</Current><DateUtc dt:dt=""string"">2015-04-15T20:06:23Z</DateUtc></FrequencyChange></FrequencyChanges></Clock>\n"	Arrow Flanker 2014-12187-1	60.017	1.0.0.100	1	1488228433	Professional	2.0.10.353	2.0.10.353	04-15-2015	4/15/2015 8:06:23 PM	16:06:23	2.0.10.248	1	NA	NA	NA	NA	NA	NA	NA	NA	NA	NA	NA	NA	NA	1	1	1	NA	NA	NA	NA	NA	NA	NA	NA	NA	NA	NA	MapBlockProc	MapBlockList	NA	6	{LEFTARROW}	-100	NA	978	NA	1	1	6	0	16	174930	983	1	{LEFTARROW}	-999999	0	176413	0	{LEFTARROW}	512	176925	NA	NA	NA	NA	NA	NA	MapTrialProc	MapTrialList	NA	NA	NA	NA	NA	NA	NA	NA	NA	NA	NA	NA	NA	NA	NA	NA	NA	NA	left	NA	L.bmp	354	NA	NA	NA	NA	NA	NA	NA	NA	NA	NA	NA	NA	NA	NA	NA	NA	NA	NA	NA	NA	NA
Arrow Flanker 2014	12187	1	"<?xml version=""1.0""?>\n<Clock xmlns:dt=""urn:schemas-microsoft-com:datatypes""><Description dt:dt=""string"">E-Prime Primary Realtime Clock</Description><StartTime><Timestamp dt:dt=""int"">0</Timestamp><DateUtc dt:dt=""string"">2015-04-15T20:06:23Z</DateUtc></StartTime><FrequencyChanges><FrequencyChange><Frequency dt:dt=""r8"">2825625</Frequency><Timestamp dt:dt=""r8"">297840400673</Timestamp><Current dt:dt=""r8"">0</Current><DateUtc dt:dt=""string"">2015-04-15T20:06:23Z</DateUtc></FrequencyChange></FrequencyChanges></Clock>\n"	Arrow Flanker 2014-12187-1	60.017	1.0.0.100	1	1488228433	Professional	2.0.10.353	2.0.10.353	04-15-2015	4/15/2015 8:06:23 PM	16:06:23	2.0.10.248	1	NA	NA	NA	NA	NA	NA	NA	NA	NA	NA	NA	NA	NA	1	1	1	NA	NA	NA	NA	NA	NA	NA	NA	NA	NA	NA	MapBlockProc	MapBlockList	NA	7	{RIGHTARROW}	-100	NA	520	NA	2	1	7	0	16	178462	534	1	{RIGHTARROW}	-999999	0	179496	0	{RIGHTARROW}	741	180237	NA	NA	NA	NA	NA	NA	MapTrialProc	MapTrialList	NA	NA	NA	NA	NA	NA	NA	NA	NA	NA	NA	NA	NA	NA	NA	NA	NA	NA	right	NA	R.bmp	354	NA	NA	NA	NA	NA	NA	NA	NA	NA	NA	NA	NA	NA	NA	NA	NA	NA	NA	NA	NA	NA
Arrow Flanker 2014	12187	1	"<?xml version=""1.0""?>\n<Clock xmlns:dt=""urn:schemas-microsoft-com:datatypes""><Description dt:dt=""string"">E-Prime Primary Realtime Clock</Description><StartTime><Timestamp dt:dt=""int"">0</Timestamp><DateUtc dt:dt=""string"">2015-04-15T20:06:23Z</DateUtc></StartTime><FrequencyChanges><FrequencyChange><Frequency dt:dt=""r8"">2825625</Frequency><Timestamp dt:dt=""r8"">297840400673</Timestamp><Current dt:dt=""r8"">0</Current><DateUtc dt:dt=""string"">2015-04-15T20:06:23Z</DateUtc></FrequencyChange></FrequencyChanges></Clock>\n"	Arrow Flanker 2014-12187-1	60.017	1.0.0.100	1	1488228433	Professional	2.0.10.353	2.0.10.353	04-15-2015	4/15/2015 8:06:23 PM	16:06:23	2.0.10.248	1	NA	NA	NA	NA	NA	NA	NA	NA	NA	NA	NA	NA	NA	1	1	1	NA	NA	NA	NA	NA	NA	NA	NA	NA	NA	NA	MapBlockProc	MapBlockList	NA	8	{LEFTARROW}	-100	NA	1083	NA	1	1	8	0	16	181778	1083	1	{LEFTARROW}	-999999	0	183361	0	{LEFTARROW}	780	184141	NA	NA	NA	NA	NA	NA	MapTrialProc	MapTrialList	NA	NA	NA	NA	NA	NA	NA	NA	NA	NA	NA	NA	NA	NA	NA	NA	NA	NA	left	NA	L.bmp	354	NA	NA	NA	NA	NA	NA	NA	NA	NA	NA	NA	NA	NA	NA	NA	NA	NA	NA	NA	NA	NA
Arrow Flanker 2014	12187	1	"<?xml version=""1.0""?>\n<Clock xmlns:dt=""urn:schemas-microsoft-com:datatypes""><Description dt:dt=""string"">E-Prime Primary Realtime Clock</Description><StartTime><Timestamp dt:dt=""int"">0</Timestamp><DateUtc dt:dt=""string"">2015-04-15T20:06:23Z</DateUtc></StartTime><FrequencyChanges><FrequencyChange><Frequency dt:dt=""r8"">2825625</Frequency><Timestamp dt:dt=""r8"">297840400673</Timestamp><Current dt:dt=""r8"">0</Current><DateUtc dt:dt=""string"">2015-04-15T20:06:23Z</DateUtc></FrequencyChange></FrequencyChanges></Clock>\n"	Arrow Flanker 2014-12187-1	60.017	1.0.0.100	1	1488228433	Professional	2.0.10.353	2.0.10.353	04-15-2015	4/15/2015 8:06:23 PM	16:06:23	2.0.10.248	1	NA	NA	NA	NA	NA	NA	NA	NA	NA	NA	NA	NA	NA	1	1	1	NA	NA	NA	NA	NA	NA	NA	NA	NA	NA	NA	MapBlockProc	MapBlockList	NA	9	{LEFTARROW}	-100	NA	1479	NA	1	1	9	0	16	185677	1483	1	{LEFTARROW}	-999999	0	187660	0	{LEFTARROW}	561	188221	NA	NA	NA	NA	NA	NA	MapTrialProc	MapTrialList	NA	NA	NA	NA	NA	NA	NA	NA	NA	NA	NA	NA	NA	NA	NA	NA	NA	NA	left	NA	L.bmp	354	NA	NA	NA	NA	NA	NA	NA	NA	NA	NA	NA	NA	NA	NA	NA	NA	NA	NA	NA	NA	NA
Arrow Flanker 2014	12187	1	"<?xml version=""1.0""?>\n<Clock xmlns:dt=""urn:schemas-microsoft-com:datatypes""><Description dt:dt=""string"">E-Prime Primary Realtime Clock</Description><StartTime><Timestamp dt:dt=""int"">0</Timestamp><DateUtc dt:dt=""string"">2015-04-15T20:06:23Z</DateUtc></StartTime><FrequencyChanges><FrequencyChange><Frequency dt:dt=""r8"">2825625</Frequency><Timestamp dt:dt=""r8"">297840400673</Timestamp><Current dt:dt=""r8"">0</Current><DateUtc dt:dt=""string"">2015-04-15T20:06:23Z</DateUtc></FrequencyChange></FrequencyChanges></Clock>\n"	Arrow Flanker 2014-12187-1	60.017	1.0.0.100	1	1488228433	Professional	2.0.10.353	2.0.10.353	04-15-2015	4/15/2015 8:06:23 PM	16:06:23	2.0.10.248	1	NA	NA	NA	NA	NA	NA	NA	NA	NA	NA	NA	NA	NA	1	1	1	NA	NA	NA	NA	NA	NA	NA	NA	NA	NA	NA	MapBlockProc	MapBlockList	NA	10	{RIGHTARROW}	-100	NA	926	NA	2	1	10	0	16	189759	933	1	{RIGHTARROW}	-999999	0	191192	0	{RIGHTARROW}	484	191676	NA	NA	NA	NA	NA	NA	MapTrialProc	MapTrialList	NA	NA	NA	NA	NA	NA	NA	NA	NA	NA	NA	NA	NA	NA	NA	NA	NA	NA	right	NA	R.bmp	354	NA	NA	NA	NA	NA	NA	NA	NA	NA	NA	NA	NA	NA	NA	NA	NA	NA	NA	NA	NA	NA
Arrow Flanker 2014	12187	1	"<?xml version=""1.0""?>\n<Clock xmlns:dt=""urn:schemas-microsoft-com:datatypes""><Description dt:dt=""string"">E-Prime Primary Realtime Clock</Description><StartTime><Timestamp dt:dt=""int"">0</Timestamp><DateUtc dt:dt=""string"">2015-04-15T20:06:23Z</DateUtc></StartTime><FrequencyChanges><FrequencyChange><Frequency dt:dt=""r8"">2825625</Frequency><Timestamp dt:dt=""r8"">297840400673</Timestamp><Current dt:dt=""r8"">0</Current><DateUtc dt:dt=""string"">2015-04-15T20:06:23Z</DateUtc></FrequencyChange></FrequencyChanges></Clock>\n"	Arrow Flanker 2014-12187-1	60.017	1.0.0.100	1	1488228433	Professional	2.0.10.353	2.0.10.353	04-15-2015	4/15/2015 8:06:23 PM	16:06:23	2.0.10.248	2	NA	NA	NA	NA	NA	NA	NA	NA	NA	NA	NA	NA	NA	NA	NA	NA	NA	NA	NA	NA	NA	NA	NA	NA	1	1	1	PracBlockProc	PracBlockList	NA	1	{LEFTARROW}	-100	NA	1106	congruent	NA	NA	NA	0	16	214619	1116	1	{LEFTARROW}	-999999	0	216235	0	{LEFTARROW}	1280	217515	NA	1	1	1	NA	NA	PracTrialProc	PracTrialList	NA	NA	NA	NA	NA	NA	NA	NA	NA	NA	NA	NA	NA	NA	NA	NA	NA	NA	left	NA	lllll.bmp	354	NA	NA	NA	NA	NA	NA	NA	NA	NA	NA	NA	NA	NA	NA	NA	NA	NA	NA	NA	NA	NA
Arrow Flanker 2014	12187	1	"<?xml version=""1.0""?>\n<Clock xmlns:dt=""urn:schemas-microsoft-com:datatypes""><Description dt:dt=""string"">E-Prime Primary Realtime Clock</Description><StartTime><Timestamp dt:dt=""int"">0</Timestamp><DateUtc dt:dt=""string"">2015-04-15T20:06:23Z</DateUtc></StartTime><FrequencyChanges><FrequencyChange><Frequency dt:dt=""r8"">2825625</Frequency><Timestamp dt:dt=""r8"">297840400673</Timestamp><Current dt:dt=""r8"">0</Current><DateUtc dt:dt=""string"">2015-04-15T20:06:23Z</DateUtc></FrequencyChange></FrequencyChanges></Clock>\n"	Arrow Flanker 2014-12187-1	60.017	1.0.0.100	1	1488228433	Professional	2.0.10.353	2.0.10.353	04-15-2015	4/15/2015 8:06:23 PM	16:06:23	2.0.10.248	2	NA	NA	NA	NA	NA	NA	NA	NA	NA	NA	NA	NA	NA	NA	NA	NA	NA	NA	NA	NA	NA	NA	NA	NA	1	1	1	PracBlockProc	PracBlockList	NA	2	{RIGHTARROW}	-100	NA	718	incongruent	NA	NA	NA	0	16	219051	733	1	{RIGHTARROW}	-999999	0	220284	0	{RIGHTARROW}	847	221131	NA	5	1	2	NA	NA	PracTrialProc	PracTrialList	NA	NA	NA	NA	NA	NA	NA	NA	NA	NA	NA	NA	NA	NA	NA	NA	NA	NA	right	NA	llrll.bmp	354	NA	NA	NA	NA	NA	NA	NA	NA	NA	NA	NA	NA	NA	NA	NA	NA	NA	NA	NA	NA	NA
Arrow Flanker 2014	12187	1	"<?xml version=""1.0""?>\n<Clock xmlns:dt=""urn:schemas-microsoft-com:datatypes""><Description dt:dt=""string"">E-Prime Primary Realtime Clock</Description><StartTime><Timestamp dt:dt=""int"">0</Timestamp><DateUtc dt:dt=""string"">2015-04-15T20:06:23Z</DateUtc></StartTime><FrequencyChanges><FrequencyChange><Frequency dt:dt=""r8"">2825625</Frequency><Timestamp dt:dt=""r8"">297840400673</Timestamp><Current dt:dt=""r8"">0</Current><DateUtc dt:dt=""string"">2015-04-15T20:06:23Z</DateUtc></FrequencyChange></FrequencyChanges></Clock>\n"	Arrow Flanker 2014-12187-1	60.017	1.0.0.100	1	1488228433	Professional	2.0.10.353	2.0.10.353	04-15-2015	4/15/2015 8:06:23 PM	16:06:23	2.0.10.248	2	NA	NA	NA	NA	NA	NA	NA	NA	NA	NA	NA	NA	NA	NA	NA	NA	NA	NA	NA	NA	NA	NA	NA	NA	1	1	1	PracBlockProc	PracBlockList	NA	3	{RIGHTARROW}	-100	NA	1291	congruent	NA	NA	NA	0	17	222667	1299	1	{RIGHTARROW}	-999999	0	224466	0	{RIGHTARROW}	617	225083	NA	4	1	3	NA	NA	PracTrialProc	PracTrialList	NA	NA	NA	NA	NA	NA	NA	NA	NA	NA	NA	NA	NA	NA	NA	NA	NA	NA	right	NA	rrrrr.bmp	354	NA	NA	NA	NA	NA	NA	NA	NA	NA	NA	NA	NA	NA	NA	NA	NA	NA	NA	NA	NA	NA
Arrow Flanker 2014	12187	1	"<?xml version=""1.0""?>\n<Clock xmlns:dt=""urn:schemas-microsoft-com:datatypes""><Description dt:dt=""string"">E-Prime Primary Realtime Clock</Description><StartTime><Timestamp dt:dt=""int"">0</Timestamp><DateUtc dt:dt=""string"">2015-04-15T20:06:23Z</DateUtc></StartTime><FrequencyChanges><FrequencyChange><Frequency dt:dt=""r8"">2825625</Frequency><Timestamp dt:dt=""r8"">297840400673</Timestamp><Current dt:dt=""r8"">0</Current><DateUtc dt:dt=""string"">2015-04-15T20:06:23Z</DateUtc></FrequencyChange></FrequencyChanges></Clock>\n"	Arrow Flanker 2014-12187-1	60.017	1.0.0.100	1	1488228433	Professional	2.0.10.353	2.0.10.353	04-15-2015	4/15/2015 8:06:23 PM	16:06:23	2.0.10.248	2	NA	NA	NA	NA	NA	NA	NA	NA	NA	NA	NA	NA	NA	NA	NA	NA	NA	NA	NA	NA	NA	NA	NA	NA	1	1	1	PracBlockProc	PracBlockList	NA	4	{LEFTARROW}	-100	NA	877	neutral	NA	NA	NA	0	16	226615	883	1	{LEFTARROW}	-999999	0	227998	0	{LEFTARROW}	845	228843	NA	3	1	4	NA	NA	PracTrialProc	PracTrialList	NA	NA	NA	NA	NA	NA	NA	NA	NA	NA	NA	NA	NA	NA	NA	NA	NA	NA	left	NA	ooloo.bmp	354	NA	NA	NA	NA	NA	NA	NA	NA	NA	NA	NA	NA	NA	NA	NA	NA	NA	NA	NA	NA	NA
Arrow Flanker 2014	12187	1	"<?xml version=""1.0""?>\n<Clock xmlns:dt=""urn:schemas-microsoft-com:datatypes""><Description dt:dt=""string"">E-Prime Primary Realtime Clock</Description><StartTime><Timestamp dt:dt=""int"">0</Timestamp><DateUtc dt:dt=""string"">2015-04-15T20:06:23Z</DateUtc></StartTime><FrequencyChanges><FrequencyChange><Frequency dt:dt=""r8"">2825625</Frequency><Timestamp dt:dt=""r8"">297840400673</Timestamp><Current dt:dt=""r8"">0</Current><DateUtc dt:dt=""string"">2015-04-15T20:06:23Z</DateUtc></FrequencyChange></FrequencyChanges></Clock>\n"	Arrow Flanker 2014-12187-1	60.017	1.0.0.100	1	1488228433	Professional	2.0.10.353	2.0.10.353	04-15-2015	4/15/2015 8:06:23 PM	16:06:23	2.0.10.248	2	NA	NA	NA	NA	NA	NA	NA	NA	NA	NA	NA	NA	NA	NA	NA	NA	NA	NA	NA	NA	NA	NA	NA	NA	1	1	1	PracBlockProc	PracBlockList	NA	5	{LEFTARROW}	-100	NA	1162	incongruent	NA	NA	NA	0	16	230381	1166	1	{LEFTARROW}	-999999	0	232047	0	{LEFTARROW}	715	232762	NA	2	1	5	NA	NA	PracTrialProc	PracTrialList	NA	NA	NA	NA	NA	NA	NA	NA	NA	NA	NA	NA	NA	NA	NA	NA	NA	NA	left	NA	rrlrr.bmp	354	NA	NA	NA	NA	NA	NA	NA	NA	NA	NA	NA	NA	NA	NA	NA	NA	NA	NA	NA	NA	NA
Arrow Flanker 2014	12187	1	"<?xml version=""1.0""?>\n<Clock xmlns:dt=""urn:schemas-microsoft-com:datatypes""><Description dt:dt=""string"">E-Prime Primary Realtime Clock</Description><StartTime><Timestamp dt:dt=""int"">0</Timestamp><DateUtc dt:dt=""string"">2015-04-15T20:06:23Z</DateUtc></StartTime><FrequencyChanges><FrequencyChange><Frequency dt:dt=""r8"">2825625</Frequency><Timestamp dt:dt=""r8"">297840400673</Timestamp><Current dt:dt=""r8"">0</Current><DateUtc dt:dt=""string"">2015-04-15T20:06:23Z</DateUtc></FrequencyChange></FrequencyChanges></Clock>\n"	Arrow Flanker 2014-12187-1	60.017	1.0.0.100	1	1488228433	Professional	2.0.10.353	2.0.10.353	04-15-2015	4/15/2015 8:06:23 PM	16:06:23	2.0.10.248	2	NA	NA	NA	NA	NA	NA	NA	NA	NA	NA	NA	NA	NA	NA	NA	NA	NA	NA	NA	NA	NA	NA	NA	NA	1	1	1	PracBlockProc	PracBlockList	NA	6	{RIGHTARROW}	-100	NA	1545	neutral	NA	NA	NA	0	17	234297	1549	1	{RIGHTARROW}	-999999	0	236346	0	{RIGHTARROW}	576	236922	NA	6	1	6	NA	NA	PracTrialProc	PracTrialList	NA	NA	NA	NA	NA	NA	NA	NA	NA	NA	NA	NA	NA	NA	NA	NA	NA	NA	right	NA	ooroo.bmp	354	NA	NA	NA	NA	NA	NA	NA	NA	NA	NA	NA	NA	NA	NA	NA	NA	NA	NA	NA	NA	NA
Arrow Flanker 2014	12187	1	"<?xml version=""1.0""?>\n<Clock xmlns:dt=""urn:schemas-microsoft-com:datatypes""><Description dt:dt=""string"">E-Prime Primary Realtime Clock</Description><StartTime><Timestamp dt:dt=""int"">0</Timestamp><DateUtc dt:dt=""string"">2015-04-15T20:06:23Z</DateUtc></StartTime><FrequencyChanges><FrequencyChange><Frequency dt:dt=""r8"">2825625</Frequency><Timestamp dt:dt=""r8"">297840400673</Timestamp><Current dt:dt=""r8"">0</Current><DateUtc dt:dt=""string"">2015-04-15T20:06:23Z</DateUtc></FrequencyChange></FrequencyChanges></Clock>\n"	Arrow Flanker 2014-12187-1	60.017	1.0.0.100	1	1488228433	Professional	2.0.10.353	2.0.10.353	04-15-2015	4/15/2015 8:06:23 PM	16:06:23	2.0.10.248	3	1	1	1	NA	NA	NA	NA	NA	NA	NA	NA	NA	NA	NA	NA	NA	NA	NA	NA	NA	NA	NA	NA	NA	NA	NA	NA	BlockProc	BlockList	NA	1	{LEFTARROW}	NA	-100	2418	incongruent	NA	NA	NA	NA	NA	NA	NA	NA	NA	NA	NA	NA	NA	NA	NA	NA	NA	NA	NA	NA	NA	NA	TrialProc	TrialList	0	14	255624	16	0	17	253025	1266	1	{LEFTARROW}	-999999	0	254791	0	{LEFTARROW}	818	255609	NA	NA	left	rrlrr.bmp	354	0	NA	0	0	0	0	NA	0	0	0	NA	0	0	0	0	NA	0	0	3	1	1
Arrow Flanker 2014	12187	1	"<?xml version=""1.0""?>\n<Clock xmlns:dt=""urn:schemas-microsoft-com:datatypes""><Description dt:dt=""string"">E-Prime Primary Realtime Clock</Description><StartTime><Timestamp dt:dt=""int"">0</Timestamp><DateUtc dt:dt=""string"">2015-04-15T20:06:23Z</DateUtc></StartTime><FrequencyChanges><FrequencyChange><Frequency dt:dt=""r8"">2825625</Frequency><Timestamp dt:dt=""r8"">297840400673</Timestamp><Current dt:dt=""r8"">0</Current><DateUtc dt:dt=""string"">2015-04-15T20:06:23Z</DateUtc></FrequencyChange></FrequencyChanges></Clock>\n"	Arrow Flanker 2014-12187-1	60.017	1.0.0.100	1	1488228433	Professional	2.0.10.353	2.0.10.353	04-15-2015	4/15/2015 8:06:23 PM	16:06:23	2.0.10.248	3	1	1	1	NA	NA	NA	NA	NA	NA	NA	NA	NA	NA	NA	NA	NA	NA	NA	NA	NA	NA	NA	NA	NA	NA	NA	NA	BlockProc	BlockList	NA	2	{LEFTARROW}	NA	-100	1469	incongruent	NA	NA	NA	NA	NA	NA	NA	NA	NA	NA	NA	NA	NA	NA	NA	NA	NA	NA	NA	NA	NA	NA	TrialProc	TrialList	0	11	258340	16	0	17	256157	916	1	{LEFTARROW}	-999999	0	257573	0	{LEFTARROW}	756	258329	NA	NA	left	rrlrr.bmp	354	0	NA	0	0	0	0	NA	0	0	0	NA	0	0	0	0	NA	0	0	3	1	2
Arrow Flanker 2014	12187	1	"<?xml version=""1.0""?>\n<Clock xmlns:dt=""urn:schemas-microsoft-com:datatypes""><Description dt:dt=""string"">E-Prime Primary Realtime Clock</Description><StartTime><Timestamp dt:dt=""int"">0</Timestamp><DateUtc dt:dt=""string"">2015-04-15T20:06:23Z</DateUtc></StartTime><FrequencyChanges><FrequencyChange><Frequency dt:dt=""r8"">2825625</Frequency><Timestamp dt:dt=""r8"">297840400673</Timestamp><Current dt:dt=""r8"">0</Current><DateUtc dt:dt=""string"">2015-04-15T20:06:23Z</DateUtc></FrequencyChange></FrequencyChanges></Clock>\n"	Arrow Flanker 2014-12187-1	60.017	1.0.0.100	1	1488228433	Professional	2.0.10.353	2.0.10.353	04-15-2015	4/15/2015 8:06:23 PM	16:06:23	2.0.10.248	3	1	1	1	NA	NA	NA	NA	NA	NA	NA	NA	NA	NA	NA	NA	NA	NA	NA	NA	NA	NA	NA	NA	NA	NA	NA	NA	BlockProc	BlockList	NA	3	{RIGHTARROW}	NA	-100	1274	incongruent	NA	NA	NA	NA	NA	NA	NA	NA	NA	NA	NA	NA	NA	NA	NA	NA	NA	NA	NA	NA	NA	NA	TrialProc	TrialList	1	21	260622	17	0	17	258873	500	1	{RIGHTARROW}	-999999	0	259873	0	{RIGHTARROW}	728	260601	NA	NA	right	llrll.bmp	354	0	NA	0	0	0	0	NA	0	0	0	NA	0	0	0	0	NA	0	0	4	1	3
Arrow Flanker 2014	12187	1	"<?xml version=""1.0""?>\n<Clock xmlns:dt=""urn:schemas-microsoft-com:datatypes""><Description dt:dt=""string"">E-Prime Primary Realtime Clock</Description><StartTime><Timestamp dt:dt=""int"">0</Timestamp><DateUtc dt:dt=""string"">2015-04-15T20:06:23Z</DateUtc></StartTime><FrequencyChanges><FrequencyChange><Frequency dt:dt=""r8"">2825625</Frequency><Timestamp dt:dt=""r8"">297840400673</Timestamp><Current dt:dt=""r8"">0</Current><DateUtc dt:dt=""string"">2015-04-15T20:06:23Z</DateUtc></FrequencyChange></FrequencyChanges></Clock>\n"	Arrow Flanker 2014-12187-1	60.017	1.0.0.100	1	1488228433	Professional	2.0.10.353	2.0.10.353	04-15-2015	4/15/2015 8:06:23 PM	16:06:23	2.0.10.248	3	1	1	1	NA	NA	NA	NA	NA	NA	NA	NA	NA	NA	NA	NA	NA	NA	NA	NA	NA	NA	NA	NA	NA	NA	NA	NA	BlockProc	BlockList	NA	4	{LEFTARROW}	NA	-100	2244	incongruent	NA	NA	NA	NA	NA	NA	NA	NA	NA	NA	NA	NA	NA	NA	NA	NA	NA	NA	NA	NA	NA	NA	TrialProc	TrialList	1	12	264021	17	0	16	261155	1534	1	{LEFTARROW}	-999999	0	263205	0	{LEFTARROW}	804	264009	NA	NA	left	rrlrr.bmp	354	0	NA	0	0	0	0	NA	0	0	0	NA	0	0	0	0	NA	0	0	3	1	4
Arrow Flanker 2014	12187	1	"<?xml version=""1.0""?>\n<Clock xmlns:dt=""urn:schemas-microsoft-com:datatypes""><Description dt:dt=""string"">E-Prime Primary Realtime Clock</Description><StartTime><Timestamp dt:dt=""int"">0</Timestamp><DateUtc dt:dt=""string"">2015-04-15T20:06:23Z</DateUtc></StartTime><FrequencyChanges><FrequencyChange><Frequency dt:dt=""r8"">2825625</Frequency><Timestamp dt:dt=""r8"">297840400673</Timestamp><Current dt:dt=""r8"">0</Current><DateUtc dt:dt=""string"">2015-04-15T20:06:23Z</DateUtc></FrequencyChange></FrequencyChanges></Clock>\n"	Arrow Flanker 2014-12187-1	60.017	1.0.0.100	1	1488228433	Professional	2.0.10.353	2.0.10.353	04-15-2015	4/15/2015 8:06:23 PM	16:06:23	2.0.10.248	3	1	1	1	NA	NA	NA	NA	NA	NA	NA	NA	NA	NA	NA	NA	NA	NA	NA	NA	NA	NA	NA	NA	NA	NA	NA	NA	BlockProc	BlockList	NA	5	{RIGHTARROW}	NA	-100	1952	incongruent	NA	NA	NA	NA	NA	NA	NA	NA	NA	NA	NA	NA	NA	NA	NA	NA	NA	NA	NA	NA	NA	NA	TrialProc	TrialList	0	14	266871	16	0	17	264555	1099	1	{RIGHTARROW}	-999999	0	266154	0	{RIGHTARROW}	703	266857	NA	NA	right	llrll.bmp	354	0	NA	0	0	0	0	NA	0	0	0	NA	0	0	0	0	NA	0	0	4	1	5
Arrow Flanker 2014	12187	1	"<?xml version=""1.0""?>\n<Clock xmlns:dt=""urn:schemas-microsoft-com:datatypes""><Description dt:dt=""string"">E-Prime Primary Realtime Clock</Description><StartTime><Timestamp dt:dt=""int"">0</Timestamp><DateUtc dt:dt=""string"">2015-04-15T20:06:23Z</DateUtc></StartTime><FrequencyChanges><FrequencyChange><Frequency dt:dt=""r8"">2825625</Frequency><Timestamp dt:dt=""r8"">297840400673</Timestamp><Current dt:dt=""r8"">0</Current><DateUtc dt:dt=""string"">2015-04-15T20:06:23Z</DateUtc></FrequencyChange></FrequencyChanges></Clock>\n"	Arrow Flanker 2014-12187-1	60.017	1.0.0.100	1	1488228433	Professional	2.0.10.353	2.0.10.353	04-15-2015	4/15/2015 8:06:23 PM	16:06:23	2.0.10.248	3	1	1	1	NA	NA	NA	NA	NA	NA	NA	NA	NA	NA	NA	NA	NA	NA	NA	NA	NA	NA	NA	NA	NA	NA	NA	NA	BlockProc	BlockList	NA	6	{RIGHTARROW}	NA	-100	1697	incongruent	NA	NA	NA	NA	NA	NA	NA	NA	NA	NA	NA	NA	NA	NA	NA	NA	NA	NA	NA	NA	NA	NA	TrialProc	TrialList	1	17	269786	17	0	17	267404	1099	1	{RIGHTARROW}	-999999	0	269003	0	{RIGHTARROW}	766	269769	NA	NA	right	llrll.bmp	354	0	NA	0	0	0	0	NA	0	0	0	NA	0	0	0	0	NA	0	0	4	1	6
Arrow Flanker 2014	12187	1	"<?xml version=""1.0""?>\n<Clock xmlns:dt=""urn:schemas-microsoft-com:datatypes""><Description dt:dt=""string"">E-Prime Primary Realtime Clock</Description><StartTime><Timestamp dt:dt=""int"">0</Timestamp><DateUtc dt:dt=""string"">2015-04-15T20:06:23Z</DateUtc></StartTime><FrequencyChanges><FrequencyChange><Frequency dt:dt=""r8"">2825625</Frequency><Timestamp dt:dt=""r8"">297840400673</Timestamp><Current dt:dt=""r8"">0</Current><DateUtc dt:dt=""string"">2015-04-15T20:06:23Z</DateUtc></FrequencyChange></FrequencyChanges></Clock>\n"	Arrow Flanker 2014-12187-1	60.017	1.0.0.100	1	1488228433	Professional	2.0.10.353	2.0.10.353	04-15-2015	4/15/2015 8:06:23 PM	16:06:23	2.0.10.248	3	1	1	1	NA	NA	NA	NA	NA	NA	NA	NA	NA	NA	NA	NA	NA	NA	NA	NA	NA	NA	NA	NA	NA	NA	NA	NA	BlockProc	BlockList	NA	7	{RIGHTARROW}	NA	-100	993	congruent	NA	NA	NA	NA	NA	NA	NA	NA	NA	NA	NA	NA	NA	NA	NA	NA	NA	NA	NA	NA	NA	NA	TrialProc	TrialList	0	20	272269	17	0	17	270320	799	1	{RIGHTARROW}	-999999	0	271619	0	{RIGHTARROW}	630	272249	NA	NA	right	rrrrr.bmp	354	0	NA	0	0	0	0	NA	0	0	0	NA	0	0	0	0	NA	0	0	2	1	7
Arrow Flanker 2014	12187	1	"<?xml version=""1.0""?>\n<Clock xmlns:dt=""urn:schemas-microsoft-com:datatypes""><Description dt:dt=""string"">E-Prime Primary Realtime Clock</Description><StartTime><Timestamp dt:dt=""int"">0</Timestamp><DateUtc dt:dt=""string"">2015-04-15T20:06:23Z</DateUtc></StartTime><FrequencyChanges><FrequencyChange><Frequency dt:dt=""r8"">2825625</Frequency><Timestamp dt:dt=""r8"">297840400673</Timestamp><Current dt:dt=""r8"">0</Current><DateUtc dt:dt=""string"">2015-04-15T20:06:23Z</DateUtc></FrequencyChange></FrequencyChanges></Clock>\n"	Arrow Flanker 2014-12187-1	60.017	1.0.0.100	1	1488228433	Professional	2.0.10.353	2.0.10.353	04-15-2015	4/15/2015 8:06:23 PM	16:06:23	2.0.10.248	3	1	1	1	NA	NA	NA	NA	NA	NA	NA	NA	NA	NA	NA	NA	NA	NA	NA	NA	NA	NA	NA	NA	NA	NA	NA	NA	BlockProc	BlockList	NA	8	{RIGHTARROW}	NA	-100	1474	congruent	NA	NA	NA	NA	NA	NA	NA	NA	NA	NA	NA	NA	NA	NA	NA	NA	NA	NA	NA	NA	NA	NA	TrialProc	TrialList	0	8	274785	17	0	16	272802	900	1	{RIGHTARROW}	-999999	0	274202	0	{RIGHTARROW}	575	274777	NA	NA	right	rrrrr.bmp	354	0	NA	0	0	0	0	NA	0	0	0	NA	0	0	0	0	NA	0	0	2	1	8
Arrow Flanker 2014	12187	1	"<?xml version=""1.0""?>\n<Clock xmlns:dt=""urn:schemas-microsoft-com:datatypes""><Description dt:dt=""string"">E-Prime Primary Realtime Clock</Description><StartTime><Timestamp dt:dt=""int"">0</Timestamp><DateUtc dt:dt=""string"">2015-04-15T20:06:23Z</DateUtc></StartTime><FrequencyChanges><FrequencyChange><Frequency dt:dt=""r8"">2825625</Frequency><Timestamp dt:dt=""r8"">297840400673</Timestamp><Current dt:dt=""r8"">0</Current><DateUtc dt:dt=""string"">2015-04-15T20:06:23Z</DateUtc></FrequencyChange></FrequencyChanges></Clock>\n"	Arrow Flanker 2014-12187-1	60.017	1.0.0.100	1	1488228433	Professional	2.0.10.353	2.0.10.353	04-15-2015	4/15/2015 8:06:23 PM	16:06:23	2.0.10.248	3	1	1	1	NA	NA	NA	NA	NA	NA	NA	NA	NA	NA	NA	NA	NA	NA	NA	NA	NA	NA	NA	NA	NA	NA	NA	NA	BlockProc	BlockList	NA	9	{LEFTARROW}	NA	-100	2140	incongruent	NA	NA	NA	NA	NA	NA	NA	NA	NA	NA	NA	NA	NA	NA	NA	NA	NA	NA	NA	NA	NA	NA	TrialProc	TrialList	0	12	277701	16	0	16	275318	1166	1	{LEFTARROW}	-999999	0	276984	0	{LEFTARROW}	704	277688	NA	NA	left	rrlrr.bmp	354	0	NA	0	0	0	0	NA	0	0	0	NA	0	0	0	0	NA	0	0	3	1	9
Arrow Flanker 2014	12187	1	"<?xml version=""1.0""?>\n<Clock xmlns:dt=""urn:schemas-microsoft-com:datatypes""><Description dt:dt=""string"">E-Prime Primary Realtime Clock</Description><StartTime><Timestamp dt:dt=""int"">0</Timestamp><DateUtc dt:dt=""string"">2015-04-15T20:06:23Z</DateUtc></StartTime><FrequencyChanges><FrequencyChange><Frequency dt:dt=""r8"">2825625</Frequency><Timestamp dt:dt=""r8"">297840400673</Timestamp><Current dt:dt=""r8"">0</Current><DateUtc dt:dt=""string"">2015-04-15T20:06:23Z</DateUtc></FrequencyChange></FrequencyChanges></Clock>\n"	Arrow Flanker 2014-12187-1	60.017	1.0.0.100	1	1488228433	Professional	2.0.10.353	2.0.10.353	04-15-2015	4/15/2015 8:06:23 PM	16:06:23	2.0.10.248	3	1	1	1	NA	NA	NA	NA	NA	NA	NA	NA	NA	NA	NA	NA	NA	NA	NA	NA	NA	NA	NA	NA	NA	NA	NA	NA	BlockProc	BlockList	NA	10	{RIGHTARROW}	NA	-100	2227	congruent	NA	NA	NA	NA	NA	NA	NA	NA	NA	NA	NA	NA	NA	NA	NA	NA	NA	NA	NA	NA	NA	NA	TrialProc	TrialList	0	15	280967	16	0	17	278234	1600	1	{RIGHTARROW}	-999999	0	280333	0	{RIGHTARROW}	619	280952	NA	NA	right	rrrrr.bmp	354	0	NA	0	0	0	0	NA	0	0	0	NA	0	0	0	0	NA	0	0	2	1	10
Arrow Flanker 2014	12187	1	"<?xml version=""1.0""?>\n<Clock xmlns:dt=""urn:schemas-microsoft-com:datatypes""><Description dt:dt=""string"">E-Prime Primary Realtime Clock</Description><StartTime><Timestamp dt:dt=""int"">0</Timestamp><DateUtc dt:dt=""string"">2015-04-15T20:06:23Z</DateUtc></StartTime><FrequencyChanges><FrequencyChange><Frequency dt:dt=""r8"">2825625</Frequency><Timestamp dt:dt=""r8"">297840400673</Timestamp><Current dt:dt=""r8"">0</Current><DateUtc dt:dt=""string"">2015-04-15T20:06:23Z</DateUtc></FrequencyChange></FrequencyChanges></Clock>\n"	Arrow Flanker 2014-12187-1	60.017	1.0.0.100	1	1488228433	Professional	2.0.10.353	2.0.10.353	04-15-2015	4/15/2015 8:06:23 PM	16:06:23	2.0.10.248	3	1	1	1	NA	NA	NA	NA	NA	NA	NA	NA	NA	NA	NA	NA	NA	NA	NA	NA	NA	NA	NA	NA	NA	NA	NA	NA	BlockProc	BlockList	NA	11	{RIGHTARROW}	NA	-100	1322	neutral	NA	NA	NA	NA	NA	NA	NA	NA	NA	NA	NA	NA	NA	NA	NA	NA	NA	NA	NA	NA	NA	NA	TrialProc	TrialList	1	16	283432	17	0	17	281500	750	1	{RIGHTARROW}	-999999	16	282766	0	{RIGHTARROW}	650	283416	NA	NA	right	ooroo.bmp	354	0	NA	0	0	0	0	NA	0	0	0	NA	0	0	0	0	NA	0	0	6	1	11
Arrow Flanker 2014	12187	1	"<?xml version=""1.0""?>\n<Clock xmlns:dt=""urn:schemas-microsoft-com:datatypes""><Description dt:dt=""string"">E-Prime Primary Realtime Clock</Description><StartTime><Timestamp dt:dt=""int"">0</Timestamp><DateUtc dt:dt=""string"">2015-04-15T20:06:23Z</DateUtc></StartTime><FrequencyChanges><FrequencyChange><Frequency dt:dt=""r8"">2825625</Frequency><Timestamp dt:dt=""r8"">297840400673</Timestamp><Current dt:dt=""r8"">0</Current><DateUtc dt:dt=""string"">2015-04-15T20:06:23Z</DateUtc></FrequencyChange></FrequencyChanges></Clock>\n"	Arrow Flanker 2014-12187-1	60.017	1.0.0.100	1	1488228433	Professional	2.0.10.353	2.0.10.353	04-15-2015	4/15/2015 8:06:23 PM	16:06:23	2.0.10.248	3	1	1	1	NA	NA	NA	NA	NA	NA	NA	NA	NA	NA	NA	NA	NA	NA	NA	NA	NA	NA	NA	NA	NA	NA	NA	NA	BlockProc	BlockList	NA	12	{RIGHTARROW}	NA	-100	2262	congruent	NA	NA	NA	NA	NA	NA	NA	NA	NA	NA	NA	NA	NA	NA	NA	NA	NA	NA	NA	NA	NA	NA	TrialProc	TrialList	1	12	286548	17	0	17	283966	1399	1	{RIGHTARROW}	-999999	0	285865	0	{RIGHTARROW}	671	286536	NA	NA	right	rrrrr.bmp	354	0	NA	0	0	0	0	NA	0	0	0	NA	0	0	0	0	NA	0	0	2	1	12
Arrow Flanker 2014	12187	1	"<?xml version=""1.0""?>\n<Clock xmlns:dt=""urn:schemas-microsoft-com:datatypes""><Description dt:dt=""string"">E-Prime Primary Realtime Clock</Description><StartTime><Timestamp dt:dt=""int"">0</Timestamp><DateUtc dt:dt=""string"">2015-04-15T20:06:23Z</DateUtc></StartTime><FrequencyChanges><FrequencyChange><Frequency dt:dt=""r8"">2825625</Frequency><Timestamp dt:dt=""r8"">297840400673</Timestamp><Current dt:dt=""r8"">0</Current><DateUtc dt:dt=""string"">2015-04-15T20:06:23Z</DateUtc></FrequencyChange></FrequencyChanges></Clock>\n"	Arrow Flanker 2014-12187-1	60.017	1.0.0.100	1	1488228433	Professional	2.0.10.353	2.0.10.353	04-15-2015	4/15/2015 8:06:23 PM	16:06:23	2.0.10.248	3	1	1	1	NA	NA	NA	NA	NA	NA	NA	NA	NA	NA	NA	NA	NA	NA	NA	NA	NA	NA	NA	NA	NA	NA	NA	NA	BlockProc	BlockList	NA	13	{LEFTARROW}	NA	-100	1363	incongruent	NA	NA	NA	NA	NA	NA	NA	NA	NA	NA	NA	NA	NA	NA	NA	NA	NA	NA	NA	NA	NA	NA	TrialProc	TrialList	1	20	288764	17	0	16	287081	484	1	{LEFTARROW}	-999999	0	288065	0	{LEFTARROW}	679	288744	NA	NA	left	rrlrr.bmp	354	0	NA	0	0	0	0	NA	0	0	0	NA	0	0	0	0	NA	0	0	3	1	13
Arrow Flanker 2014	12187	1	"<?xml version=""1.0""?>\n<Clock xmlns:dt=""urn:schemas-microsoft-com:datatypes""><Description dt:dt=""string"">E-Prime Primary Realtime Clock</Description><StartTime><Timestamp dt:dt=""int"">0</Timestamp><DateUtc dt:dt=""string"">2015-04-15T20:06:23Z</DateUtc></StartTime><FrequencyChanges><FrequencyChange><Frequency dt:dt=""r8"">2825625</Frequency><Timestamp dt:dt=""r8"">297840400673</Timestamp><Current dt:dt=""r8"">0</Current><DateUtc dt:dt=""string"">2015-04-15T20:06:23Z</DateUtc></FrequencyChange></FrequencyChanges></Clock>\n"	Arrow Flanker 2014-12187-1	60.017	1.0.0.100	1	1488228433	Professional	2.0.10.353	2.0.10.353	04-15-2015	4/15/2015 8:06:23 PM	16:06:23	2.0.10.248	3	1	1	1	NA	NA	NA	NA	NA	NA	NA	NA	NA	NA	NA	NA	NA	NA	NA	NA	NA	NA	NA	NA	NA	NA	NA	NA	BlockProc	BlockList	NA	14	{RIGHTARROW}	NA	-100	1673	neutral	NA	NA	NA	NA	NA	NA	NA	NA	NA	NA	NA	NA	NA	NA	NA	NA	NA	NA	NA	NA	NA	NA	TrialProc	TrialList	1	16	291480	17	0	17	289298	1116	1	{RIGHTARROW}	-999999	0	290914	0	{RIGHTARROW}	550	291464	NA	NA	right	ooroo.bmp	354	0	NA	0	0	0	0	NA	0	0	0	NA	0	0	0	0	NA	0	0	6	1	14
Arrow Flanker 2014	12187	1	"<?xml version=""1.0""?>\n<Clock xmlns:dt=""urn:schemas-microsoft-com:datatypes""><Description dt:dt=""string"">E-Prime Primary Realtime Clock</Description><StartTime><Timestamp dt:dt=""int"">0</Timestamp><DateUtc dt:dt=""string"">2015-04-15T20:06:23Z</DateUtc></StartTime><FrequencyChanges><FrequencyChange><Frequency dt:dt=""r8"">2825625</Frequency><Timestamp dt:dt=""r8"">297840400673</Timestamp><Current dt:dt=""r8"">0</Current><DateUtc dt:dt=""string"">2015-04-15T20:06:23Z</DateUtc></FrequencyChange></FrequencyChanges></Clock>\n"	Arrow Flanker 2014-12187-1	60.017	1.0.0.100	1	1488228433	Professional	2.0.10.353	2.0.10.353	04-15-2015	4/15/2015 8:06:23 PM	16:06:23	2.0.10.248	3	1	1	1	NA	NA	NA	NA	NA	NA	NA	NA	NA	NA	NA	NA	NA	NA	NA	NA	NA	NA	NA	NA	NA	NA	NA	NA	BlockProc	BlockList	NA	15	{RIGHTARROW}	NA	-100	2402	neutral	NA	NA	NA	NA	NA	NA	NA	NA	NA	NA	NA	NA	NA	NA	NA	NA	NA	NA	NA	NA	NA	NA	TrialProc	TrialList	0	17	294313	16	0	16	292013	1283	1	{RIGHTARROW}	-999999	0	293796	0	{RIGHTARROW}	500	294296	NA	NA	right	ooroo.bmp	354	0	NA	0	0	0	0	NA	0	0	0	NA	0	0	0	0	NA	0	0	6	1	15
Arrow Flanker 2014	12187	1	"<?xml version=""1.0""?>\n<Clock xmlns:dt=""urn:schemas-microsoft-com:datatypes""><Description dt:dt=""string"">E-Prime Primary Realtime Clock</Description><StartTime><Timestamp dt:dt=""int"">0</Timestamp><DateUtc dt:dt=""string"">2015-04-15T20:06:23Z</DateUtc></StartTime><FrequencyChanges><FrequencyChange><Frequency dt:dt=""r8"">2825625</Frequency><Timestamp dt:dt=""r8"">297840400673</Timestamp><Current dt:dt=""r8"">0</Current><DateUtc dt:dt=""string"">2015-04-15T20:06:23Z</DateUtc></FrequencyChange></FrequencyChanges></Clock>\n"	Arrow Flanker 2014-12187-1	60.017	1.0.0.100	1	1488228433	Professional	2.0.10.353	2.0.10.353	04-15-2015	4/15/2015 8:06:23 PM	16:06:23	2.0.10.248	3	1	1	1	NA	NA	NA	NA	NA	NA	NA	NA	NA	NA	NA	NA	NA	NA	NA	NA	NA	NA	NA	NA	NA	NA	NA	NA	BlockProc	BlockList	NA	16	{RIGHTARROW}	NA	-100	1029	neutral	NA	NA	NA	NA	NA	NA	NA	NA	NA	NA	NA	NA	NA	NA	NA	NA	NA	NA	NA	NA	NA	NA	TrialProc	TrialList	0	17	296729	16	0	17	294846	833	1	{RIGHTARROW}	-999999	0	296179	0	{RIGHTARROW}	532	296711	NA	NA	right	ooroo.bmp	354	0	NA	0	0	0	0	NA	0	0	0	NA	0	0	0	0	NA	0	0	6	1	16
Arrow Flanker 2014	12187	1	"<?xml version=""1.0""?>\n<Clock xmlns:dt=""urn:schemas-microsoft-com:datatypes""><Description dt:dt=""string"">E-Prime Primary Realtime Clock</Description><StartTime><Timestamp dt:dt=""int"">0</Timestamp><DateUtc dt:dt=""string"">2015-04-15T20:06:23Z</DateUtc></StartTime><FrequencyChanges><FrequencyChange><Frequency dt:dt=""r8"">2825625</Frequency><Timestamp dt:dt=""r8"">297840400673</Timestamp><Current dt:dt=""r8"">0</Current><DateUtc dt:dt=""string"">2015-04-15T20:06:23Z</DateUtc></FrequencyChange></FrequencyChanges></Clock>\n"	Arrow Flanker 2014-12187-1	60.017	1.0.0.100	1	1488228433	Professional	2.0.10.353	2.0.10.353	04-15-2015	4/15/2015 8:06:23 PM	16:06:23	2.0.10.248	3	1	1	1	NA	NA	NA	NA	NA	NA	NA	NA	NA	NA	NA	NA	NA	NA	NA	NA	NA	NA	NA	NA	NA	NA	NA	NA	BlockProc	BlockList	NA	17	{RIGHTARROW}	NA	-100	1580	congruent	NA	NA	NA	NA	NA	NA	NA	NA	NA	NA	NA	NA	NA	NA	NA	NA	NA	NA	NA	NA	NA	NA	TrialProc	TrialList	0	21	299645	16	0	17	297262	1300	1	{RIGHTARROW}	-999999	0	299061	0	{RIGHTARROW}	562	299623	NA	NA	right	rrrrr.bmp	354	0	NA	0	0	0	0	NA	0	0	0	NA	0	0	0	0	NA	0	0	2	1	17
Arrow Flanker 2014	12187	1	"<?xml version=""1.0""?>\n<Clock xmlns:dt=""urn:schemas-microsoft-com:datatypes""><Description dt:dt=""string"">E-Prime Primary Realtime Clock</Description><StartTime><Timestamp dt:dt=""int"">0</Timestamp><DateUtc dt:dt=""string"">2015-04-15T20:06:23Z</DateUtc></StartTime><FrequencyChanges><FrequencyChange><Frequency dt:dt=""r8"">2825625</Frequency><Timestamp dt:dt=""r8"">297840400673</Timestamp><Current dt:dt=""r8"">0</Current><DateUtc dt:dt=""string"">2015-04-15T20:06:23Z</DateUtc></FrequencyChange></FrequencyChanges></Clock>\n"	Arrow Flanker 2014-12187-1	60.017	1.0.0.100	1	1488228433	Professional	2.0.10.353	2.0.10.353	04-15-2015	4/15/2015 8:06:23 PM	16:06:23	2.0.10.248	3	1	1	1	NA	NA	NA	NA	NA	NA	NA	NA	NA	NA	NA	NA	NA	NA	NA	NA	NA	NA	NA	NA	NA	NA	NA	NA	BlockProc	BlockList	NA	18	{LEFTARROW}	NA	-100	1012	incongruent	NA	NA	NA	NA	NA	NA	NA	NA	NA	NA	NA	NA	NA	NA	NA	NA	NA	NA	NA	NA	NA	NA	TrialProc	TrialList	0	6	302077	17	0	17	300178	816	1	{LEFTARROW}	-999999	0	301494	0	{LEFTARROW}	577	302071	NA	NA	left	rrlrr.bmp	354	0	NA	0	0	0	0	NA	0	0	0	NA	0	0	0	0	NA	0	0	3	1	18
Arrow Flanker 2014	12187	1	"<?xml version=""1.0""?>\n<Clock xmlns:dt=""urn:schemas-microsoft-com:datatypes""><Description dt:dt=""string"">E-Prime Primary Realtime Clock</Description><StartTime><Timestamp dt:dt=""int"">0</Timestamp><DateUtc dt:dt=""string"">2015-04-15T20:06:23Z</DateUtc></StartTime><FrequencyChanges><FrequencyChange><Frequency dt:dt=""r8"">2825625</Frequency><Timestamp dt:dt=""r8"">297840400673</Timestamp><Current dt:dt=""r8"">0</Current><DateUtc dt:dt=""string"">2015-04-15T20:06:23Z</DateUtc></FrequencyChange></FrequencyChanges></Clock>\n"	Arrow Flanker 2014-12187-1	60.017	1.0.0.100	1	1488228433	Professional	2.0.10.353	2.0.10.353	04-15-2015	4/15/2015 8:06:23 PM	16:06:23	2.0.10.248	3	1	1	1	NA	NA	NA	NA	NA	NA	NA	NA	NA	NA	NA	NA	NA	NA	NA	NA	NA	NA	NA	NA	NA	NA	NA	NA	BlockProc	BlockList	NA	19	{RIGHTARROW}	NA	-100	1330	incongruent	NA	NA	NA	NA	NA	NA	NA	NA	NA	NA	NA	NA	NA	NA	NA	NA	NA	NA	NA	NA	NA	NA	TrialProc	TrialList	1	9	304576	17	0	16	302610	767	1	{RIGHTARROW}	-999999	0	303877	0	{RIGHTARROW}	690	304567	NA	NA	right	llrll.bmp	354	0	NA	0	0	0	0	NA	0	0	0	NA	0	0	0	0	NA	0	0	4	1	19
Arrow Flanker 2014	12187	1	"<?xml version=""1.0""?>\n<Clock xmlns:dt=""urn:schemas-microsoft-com:datatypes""><Description dt:dt=""string"">E-Prime Primary Realtime Clock</Description><StartTime><Timestamp dt:dt=""int"">0</Timestamp><DateUtc dt:dt=""string"">2015-04-15T20:06:23Z</DateUtc></StartTime><FrequencyChanges><FrequencyChange><Frequency dt:dt=""r8"">2825625</Frequency><Timestamp dt:dt=""r8"">297840400673</Timestamp><Current dt:dt=""r8"">0</Current><DateUtc dt:dt=""string"">2015-04-15T20:06:23Z</DateUtc></FrequencyChange></FrequencyChanges></Clock>\n"	Arrow Flanker 2014-12187-1	60.017	1.0.0.100	1	1488228433	Professional	2.0.10.353	2.0.10.353	04-15-2015	4/15/2015 8:06:23 PM	16:06:23	2.0.10.248	3	1	1	1	NA	NA	NA	NA	NA	NA	NA	NA	NA	NA	NA	NA	NA	NA	NA	NA	NA	NA	NA	NA	NA	NA	NA	NA	BlockProc	BlockList	NA	20	{RIGHTARROW}	NA	-100	1919	congruent	NA	NA	NA	NA	NA	NA	NA	NA	NA	NA	NA	NA	NA	NA	NA	NA	NA	NA	NA	NA	NA	NA	TrialProc	TrialList	1	7	307342	17	0	17	305110	1066	1	{RIGHTARROW}	-999999	0	306676	0	{RIGHTARROW}	659	307335	NA	NA	right	rrrrr.bmp	354	0	NA	0	0	0	0	NA	0	0	0	NA	0	0	0	0	NA	0	0	2	1	20
Arrow Flanker 2014	12187	1	"<?xml version=""1.0""?>\n<Clock xmlns:dt=""urn:schemas-microsoft-com:datatypes""><Description dt:dt=""string"">E-Prime Primary Realtime Clock</Description><StartTime><Timestamp dt:dt=""int"">0</Timestamp><DateUtc dt:dt=""string"">2015-04-15T20:06:23Z</DateUtc></StartTime><FrequencyChanges><FrequencyChange><Frequency dt:dt=""r8"">2825625</Frequency><Timestamp dt:dt=""r8"">297840400673</Timestamp><Current dt:dt=""r8"">0</Current><DateUtc dt:dt=""string"">2015-04-15T20:06:23Z</DateUtc></FrequencyChange></FrequencyChanges></Clock>\n"	Arrow Flanker 2014-12187-1	60.017	1.0.0.100	1	1488228433	Professional	2.0.10.353	2.0.10.353	04-15-2015	4/15/2015 8:06:23 PM	16:06:23	2.0.10.248	3	1	1	1	NA	NA	NA	NA	NA	NA	NA	NA	NA	NA	NA	NA	NA	NA	NA	NA	NA	NA	NA	NA	NA	NA	NA	NA	BlockProc	BlockList	NA	21	{RIGHTARROW}	NA	-100	1419	neutral	NA	NA	NA	NA	NA	NA	NA	NA	NA	NA	NA	NA	NA	NA	NA	NA	NA	NA	NA	NA	NA	NA	TrialProc	TrialList	1	16	310391	17	0	17	307876	1033	1	{RIGHTARROW}	-999999	16	309425	0	{RIGHTARROW}	950	310375	NA	NA	right	ooroo.bmp	354	0	NA	0	0	0	0	NA	0	0	0	NA	0	0	0	0	NA	0	0	6	1	21
Arrow Flanker 2014	12187	1	"<?xml version=""1.0""?>\n<Clock xmlns:dt=""urn:schemas-microsoft-com:datatypes""><Description dt:dt=""string"">E-Prime Primary Realtime Clock</Description><StartTime><Timestamp dt:dt=""int"">0</Timestamp><DateUtc dt:dt=""string"">2015-04-15T20:06:23Z</DateUtc></StartTime><FrequencyChanges><FrequencyChange><Frequency dt:dt=""r8"">2825625</Frequency><Timestamp dt:dt=""r8"">297840400673</Timestamp><Current dt:dt=""r8"">0</Current><DateUtc dt:dt=""string"">2015-04-15T20:06:23Z</DateUtc></FrequencyChange></FrequencyChanges></Clock>\n"	Arrow Flanker 2014-12187-1	60.017	1.0.0.100	1	1488228433	Professional	2.0.10.353	2.0.10.353	04-15-2015	4/15/2015 8:06:23 PM	16:06:23	2.0.10.248	3	1	1	1	NA	NA	NA	NA	NA	NA	NA	NA	NA	NA	NA	NA	NA	NA	NA	NA	NA	NA	NA	NA	NA	NA	NA	NA	BlockProc	BlockList	NA	22	{LEFTARROW}	NA	-100	622	neutral	NA	NA	NA	NA	NA	NA	NA	NA	NA	NA	NA	NA	NA	NA	NA	NA	NA	NA	NA	NA	2	1	TrialProc	TrialList	0	6	312541	17	0	17	310925	483	1	{LEFTARROW}	-999999	0	311908	0	{LEFTARROW}	627	312535	NA	NA	left	ooloo.bmp	354	0	NA	-999999	16	313074	0	1	3749	316823	0	NA	-999999	17	316840	0	1	4223	321063	5	1	22
Arrow Flanker 2014	12187	1	"<?xml version=""1.0""?>\n<Clock xmlns:dt=""urn:schemas-microsoft-com:datatypes""><Description dt:dt=""string"">E-Prime Primary Realtime Clock</Description><StartTime><Timestamp dt:dt=""int"">0</Timestamp><DateUtc dt:dt=""string"">2015-04-15T20:06:23Z</DateUtc></StartTime><FrequencyChanges><FrequencyChange><Frequency dt:dt=""r8"">2825625</Frequency><Timestamp dt:dt=""r8"">297840400673</Timestamp><Current dt:dt=""r8"">0</Current><DateUtc dt:dt=""string"">2015-04-15T20:06:23Z</DateUtc></FrequencyChange></FrequencyChanges></Clock>\n"	Arrow Flanker 2014-12187-1	60.017	1.0.0.100	1	1488228433	Professional	2.0.10.353	2.0.10.353	04-15-2015	4/15/2015 8:06:23 PM	16:06:23	2.0.10.248	3	1	1	1	NA	NA	NA	NA	NA	NA	NA	NA	NA	NA	NA	NA	NA	NA	NA	NA	NA	NA	NA	NA	NA	NA	NA	NA	BlockProc	BlockList	NA	23	{RIGHTARROW}	NA	-100	1687	neutral	NA	NA	NA	NA	NA	NA	NA	NA	NA	NA	NA	NA	NA	NA	NA	NA	NA	NA	NA	NA	NA	NA	TrialProc	TrialList	1	14	324004	17	0	14	322388	650	1	{RIGHTARROW}	-999999	0	323538	0	{RIGHTARROW}	452	323990	NA	NA	right	ooroo.bmp	354	0	NA	0	0	0	0	NA	0	0	0	NA	0	0	0	0	NA	0	0	6	1	23
Arrow Flanker 2014	12187	1	"<?xml version=""1.0""?>\n<Clock xmlns:dt=""urn:schemas-microsoft-com:datatypes""><Description dt:dt=""string"">E-Prime Primary Realtime Clock</Description><StartTime><Timestamp dt:dt=""int"">0</Timestamp><DateUtc dt:dt=""string"">2015-04-15T20:06:23Z</DateUtc></StartTime><FrequencyChanges><FrequencyChange><Frequency dt:dt=""r8"">2825625</Frequency><Timestamp dt:dt=""r8"">297840400673</Timestamp><Current dt:dt=""r8"">0</Current><DateUtc dt:dt=""string"">2015-04-15T20:06:23Z</DateUtc></FrequencyChange></FrequencyChanges></Clock>\n"	Arrow Flanker 2014-12187-1	60.017	1.0.0.100	1	1488228433	Professional	2.0.10.353	2.0.10.353	04-15-2015	4/15/2015 8:06:23 PM	16:06:23	2.0.10.248	3	1	1	1	NA	NA	NA	NA	NA	NA	NA	NA	NA	NA	NA	NA	NA	NA	NA	NA	NA	NA	NA	NA	NA	NA	NA	NA	BlockProc	BlockList	NA	24	{LEFTARROW}	NA	-100	1336	incongruent	NA	NA	NA	NA	NA	NA	NA	NA	NA	NA	NA	NA	NA	NA	NA	NA	NA	NA	NA	NA	NA	NA	TrialProc	TrialList	1	10	326720	17	0	16	324537	1167	1	{LEFTARROW}	-999999	0	326204	0	{LEFTARROW}	506	326710	NA	NA	left	rrlrr.bmp	354	0	NA	0	0	0	0	NA	0	0	0	NA	0	0	0	0	NA	0	0	3	1	24
Arrow Flanker 2014	12187	1	"<?xml version=""1.0""?>\n<Clock xmlns:dt=""urn:schemas-microsoft-com:datatypes""><Description dt:dt=""string"">E-Prime Primary Realtime Clock</Description><StartTime><Timestamp dt:dt=""int"">0</Timestamp><DateUtc dt:dt=""string"">2015-04-15T20:06:23Z</DateUtc></StartTime><FrequencyChanges><FrequencyChange><Frequency dt:dt=""r8"">2825625</Frequency><Timestamp dt:dt=""r8"">297840400673</Timestamp><Current dt:dt=""r8"">0</Current><DateUtc dt:dt=""string"">2015-04-15T20:06:23Z</DateUtc></FrequencyChange></FrequencyChanges></Clock>\n"	Arrow Flanker 2014-12187-1	60.017	1.0.0.100	1	1488228433	Professional	2.0.10.353	2.0.10.353	04-15-2015	4/15/2015 8:06:23 PM	16:06:23	2.0.10.248	3	1	1	1	NA	NA	NA	NA	NA	NA	NA	NA	NA	NA	NA	NA	NA	NA	NA	NA	NA	NA	NA	NA	NA	NA	NA	NA	BlockProc	BlockList	NA	25	{RIGHTARROW}	NA	-100	627	incongruent	NA	NA	NA	NA	NA	NA	NA	NA	NA	NA	NA	NA	NA	NA	NA	NA	NA	NA	NA	NA	NA	NA	TrialProc	TrialList	0	15	328853	17	0	16	327253	517	1	{RIGHTARROW}	-999999	0	328270	0	{RIGHTARROW}	568	328838	NA	NA	right	llrll.bmp	354	0	NA	0	0	0	0	NA	0	0	0	NA	0	0	0	0	NA	0	0	4	1	25
Arrow Flanker 2014	12187	1	"<?xml version=""1.0""?>\n<Clock xmlns:dt=""urn:schemas-microsoft-com:datatypes""><Description dt:dt=""string"">E-Prime Primary Realtime Clock</Description><StartTime><Timestamp dt:dt=""int"">0</Timestamp><DateUtc dt:dt=""string"">2015-04-15T20:06:23Z</DateUtc></StartTime><FrequencyChanges><FrequencyChange><Frequency dt:dt=""r8"">2825625</Frequency><Timestamp dt:dt=""r8"">297840400673</Timestamp><Current dt:dt=""r8"">0</Current><DateUtc dt:dt=""string"">2015-04-15T20:06:23Z</DateUtc></FrequencyChange></FrequencyChanges></Clock>\n"	Arrow Flanker 2014-12187-1	60.017	1.0.0.100	1	1488228433	Professional	2.0.10.353	2.0.10.353	04-15-2015	4/15/2015 8:06:23 PM	16:06:23	2.0.10.248	3	1	1	1	NA	NA	NA	NA	NA	NA	NA	NA	NA	NA	NA	NA	NA	NA	NA	NA	NA	NA	NA	NA	NA	NA	NA	NA	BlockProc	BlockList	NA	26	{LEFTARROW}	NA	-100	1255	incongruent	NA	NA	NA	NA	NA	NA	NA	NA	NA	NA	NA	NA	NA	NA	NA	NA	NA	NA	NA	NA	NA	NA	TrialProc	TrialList	0	13	331619	16	0	16	329386	0	1	{LEFTARROW}	-999999	0	330869	0	{LEFTARROW}	737	331606	NA	NA	left	rrlrr.bmp	354	0	NA	0	0	0	0	NA	0	0	0	NA	0	0	0	0	NA	0	0	3	1	26
Arrow Flanker 2014	12187	1	"<?xml version=""1.0""?>\n<Clock xmlns:dt=""urn:schemas-microsoft-com:datatypes""><Description dt:dt=""string"">E-Prime Primary Realtime Clock</Description><StartTime><Timestamp dt:dt=""int"">0</Timestamp><DateUtc dt:dt=""string"">2015-04-15T20:06:23Z</DateUtc></StartTime><FrequencyChanges><FrequencyChange><Frequency dt:dt=""r8"">2825625</Frequency><Timestamp dt:dt=""r8"">297840400673</Timestamp><Current dt:dt=""r8"">0</Current><DateUtc dt:dt=""string"">2015-04-15T20:06:23Z</DateUtc></FrequencyChange></FrequencyChanges></Clock>\n"	Arrow Flanker 2014-12187-1	60.017	1.0.0.100	1	1488228433	Professional	2.0.10.353	2.0.10.353	04-15-2015	4/15/2015 8:06:23 PM	16:06:23	2.0.10.248	3	1	1	1	NA	NA	NA	NA	NA	NA	NA	NA	NA	NA	NA	NA	NA	NA	NA	NA	NA	NA	NA	NA	NA	NA	NA	NA	BlockProc	BlockList	NA	27	{RIGHTARROW}	NA	-100	1416	neutral	NA	NA	NA	NA	NA	NA	NA	NA	NA	NA	NA	NA	NA	NA	NA	NA	NA	NA	NA	NA	NA	NA	TrialProc	TrialList	0	18	333768	17	0	17	332152	0	1	{RIGHTARROW}	-999999	0	333185	0	{RIGHTARROW}	565	333750	NA	NA	right	ooroo.bmp	354	0	NA	0	0	0	0	NA	0	0	0	NA	0	0	0	0	NA	0	0	6	1	27
Arrow Flanker 2014	12187	1	"<?xml version=""1.0""?>\n<Clock xmlns:dt=""urn:schemas-microsoft-com:datatypes""><Description dt:dt=""string"">E-Prime Primary Realtime Clock</Description><StartTime><Timestamp dt:dt=""int"">0</Timestamp><DateUtc dt:dt=""string"">2015-04-15T20:06:23Z</DateUtc></StartTime><FrequencyChanges><FrequencyChange><Frequency dt:dt=""r8"">2825625</Frequency><Timestamp dt:dt=""r8"">297840400673</Timestamp><Current dt:dt=""r8"">0</Current><DateUtc dt:dt=""string"">2015-04-15T20:06:23Z</DateUtc></FrequencyChange></FrequencyChanges></Clock>\n"	Arrow Flanker 2014-12187-1	60.017	1.0.0.100	1	1488228433	Professional	2.0.10.353	2.0.10.353	04-15-2015	4/15/2015 8:06:23 PM	16:06:23	2.0.10.248	3	1	1	1	NA	NA	NA	NA	NA	NA	NA	NA	NA	NA	NA	NA	NA	NA	NA	NA	NA	NA	NA	NA	NA	NA	NA	NA	BlockProc	BlockList	NA	28	{LEFTARROW}	NA	-100	1315	congruent	NA	NA	NA	NA	NA	NA	NA	NA	NA	NA	NA	NA	NA	NA	NA	NA	NA	NA	NA	NA	NA	NA	TrialProc	TrialList	0	21	336651	16	0	16	334301	0	1	{LEFTARROW}	-999999	0	335951	0	{LEFTARROW}	679	336630	NA	NA	left	lllll.bmp	354	0	NA	0	0	0	0	NA	0	0	0	NA	0	0	0	0	NA	0	0	1	1	28
Arrow Flanker 2014	12187	1	"<?xml version=""1.0""?>\n<Clock xmlns:dt=""urn:schemas-microsoft-com:datatypes""><Description dt:dt=""string"">E-Prime Primary Realtime Clock</Description><StartTime><Timestamp dt:dt=""int"">0</Timestamp><DateUtc dt:dt=""string"">2015-04-15T20:06:23Z</DateUtc></StartTime><FrequencyChanges><FrequencyChange><Frequency dt:dt=""r8"">2825625</Frequency><Timestamp dt:dt=""r8"">297840400673</Timestamp><Current dt:dt=""r8"">0</Current><DateUtc dt:dt=""string"">2015-04-15T20:06:23Z</DateUtc></FrequencyChange></FrequencyChanges></Clock>\n"	Arrow Flanker 2014-12187-1	60.017	1.0.0.100	1	1488228433	Professional	2.0.10.353	2.0.10.353	04-15-2015	4/15/2015 8:06:23 PM	16:06:23	2.0.10.248	3	1	1	1	NA	NA	NA	NA	NA	NA	NA	NA	NA	NA	NA	NA	NA	NA	NA	NA	NA	NA	NA	NA	NA	NA	NA	NA	BlockProc	BlockList	NA	29	{RIGHTARROW}	NA	-100	1041	incongruent	NA	NA	NA	NA	NA	NA	NA	NA	NA	NA	NA	NA	NA	NA	NA	NA	NA	NA	NA	NA	NA	NA	TrialProc	TrialList	0	12	338850	17	0	17	337184	0	1	{RIGHTARROW}	-999999	0	338217	0	{RIGHTARROW}	620	338837	NA	NA	right	llrll.bmp	354	0	NA	0	0	0	0	NA	0	0	0	NA	0	0	0	0	NA	0	0	4	1	29
Arrow Flanker 2014	12187	1	"<?xml version=""1.0""?>\n<Clock xmlns:dt=""urn:schemas-microsoft-com:datatypes""><Description dt:dt=""string"">E-Prime Primary Realtime Clock</Description><StartTime><Timestamp dt:dt=""int"">0</Timestamp><DateUtc dt:dt=""string"">2015-04-15T20:06:23Z</DateUtc></StartTime><FrequencyChanges><FrequencyChange><Frequency dt:dt=""r8"">2825625</Frequency><Timestamp dt:dt=""r8"">297840400673</Timestamp><Current dt:dt=""r8"">0</Current><DateUtc dt:dt=""string"">2015-04-15T20:06:23Z</DateUtc></FrequencyChange></FrequencyChanges></Clock>\n"	Arrow Flanker 2014-12187-1	60.017	1.0.0.100	1	1488228433	Professional	2.0.10.353	2.0.10.353	04-15-2015	4/15/2015 8:06:23 PM	16:06:23	2.0.10.248	3	1	1	1	NA	NA	NA	NA	NA	NA	NA	NA	NA	NA	NA	NA	NA	NA	NA	NA	NA	NA	NA	NA	NA	NA	NA	NA	BlockProc	BlockList	NA	30	{RIGHTARROW}	NA	-100	1406	congruent	NA	NA	NA	NA	NA	NA	NA	NA	NA	NA	NA	NA	NA	NA	NA	NA	NA	NA	NA	NA	NA	NA	TrialProc	TrialList	1	15	341349	17	0	16	339383	0	1	{RIGHTARROW}	-999999	0	340783	0	{RIGHTARROW}	550	341333	NA	NA	right	rrrrr.bmp	354	0	NA	0	0	0	0	NA	0	0	0	NA	0	0	0	0	NA	0	0	2	1	30
Arrow Flanker 2014	12187	1	"<?xml version=""1.0""?>\n<Clock xmlns:dt=""urn:schemas-microsoft-com:datatypes""><Description dt:dt=""string"">E-Prime Primary Realtime Clock</Description><StartTime><Timestamp dt:dt=""int"">0</Timestamp><DateUtc dt:dt=""string"">2015-04-15T20:06:23Z</DateUtc></StartTime><FrequencyChanges><FrequencyChange><Frequency dt:dt=""r8"">2825625</Frequency><Timestamp dt:dt=""r8"">297840400673</Timestamp><Current dt:dt=""r8"">0</Current><DateUtc dt:dt=""string"">2015-04-15T20:06:23Z</DateUtc></FrequencyChange></FrequencyChanges></Clock>\n"	Arrow Flanker 2014-12187-1	60.017	1.0.0.100	1	1488228433	Professional	2.0.10.353	2.0.10.353	04-15-2015	4/15/2015 8:06:23 PM	16:06:23	2.0.10.248	3	1	1	1	NA	NA	NA	NA	NA	NA	NA	NA	NA	NA	NA	NA	NA	NA	NA	NA	NA	NA	NA	NA	NA	NA	NA	NA	BlockProc	BlockList	NA	31	{LEFTARROW}	NA	-100	1294	neutral	NA	NA	NA	NA	NA	NA	NA	NA	NA	NA	NA	NA	NA	NA	NA	NA	NA	NA	NA	NA	NA	NA	TrialProc	TrialList	0	19	343832	17	0	17	341883	0	1	{LEFTARROW}	-999999	16	343282	0	{LEFTARROW}	531	343813	NA	NA	left	ooloo.bmp	354	0	NA	0	0	0	0	NA	0	0	0	NA	0	0	0	0	NA	0	0	5	1	31
Arrow Flanker 2014	12187	1	"<?xml version=""1.0""?>\n<Clock xmlns:dt=""urn:schemas-microsoft-com:datatypes""><Description dt:dt=""string"">E-Prime Primary Realtime Clock</Description><StartTime><Timestamp dt:dt=""int"">0</Timestamp><DateUtc dt:dt=""string"">2015-04-15T20:06:23Z</DateUtc></StartTime><FrequencyChanges><FrequencyChange><Frequency dt:dt=""r8"">2825625</Frequency><Timestamp dt:dt=""r8"">297840400673</Timestamp><Current dt:dt=""r8"">0</Current><DateUtc dt:dt=""string"">2015-04-15T20:06:23Z</DateUtc></FrequencyChange></FrequencyChanges></Clock>\n"	Arrow Flanker 2014-12187-1	60.017	1.0.0.100	1	1488228433	Professional	2.0.10.353	2.0.10.353	04-15-2015	4/15/2015 8:06:23 PM	16:06:23	2.0.10.248	3	1	1	1	NA	NA	NA	NA	NA	NA	NA	NA	NA	NA	NA	NA	NA	NA	NA	NA	NA	NA	NA	NA	NA	NA	NA	NA	BlockProc	BlockList	NA	32	{LEFTARROW}	NA	-100	1258	congruent	NA	NA	NA	NA	NA	NA	NA	NA	NA	NA	NA	NA	NA	NA	NA	NA	NA	NA	NA	NA	NA	NA	TrialProc	TrialList	0	14	346515	16	0	16	344365	0	1	{LEFTARROW}	-999999	0	345948	0	{LEFTARROW}	553	346501	NA	NA	left	lllll.bmp	354	0	NA	0	0	0	0	NA	0	0	0	NA	0	0	0	0	NA	0	0	1	1	32
Arrow Flanker 2014	12187	1	"<?xml version=""1.0""?>\n<Clock xmlns:dt=""urn:schemas-microsoft-com:datatypes""><Description dt:dt=""string"">E-Prime Primary Realtime Clock</Description><StartTime><Timestamp dt:dt=""int"">0</Timestamp><DateUtc dt:dt=""string"">2015-04-15T20:06:23Z</DateUtc></StartTime><FrequencyChanges><FrequencyChange><Frequency dt:dt=""r8"">2825625</Frequency><Timestamp dt:dt=""r8"">297840400673</Timestamp><Current dt:dt=""r8"">0</Current><DateUtc dt:dt=""string"">2015-04-15T20:06:23Z</DateUtc></FrequencyChange></FrequencyChanges></Clock>\n"	Arrow Flanker 2014-12187-1	60.017	1.0.0.100	1	1488228433	Professional	2.0.10.353	2.0.10.353	04-15-2015	4/15/2015 8:06:23 PM	16:06:23	2.0.10.248	3	1	1	1	NA	NA	NA	NA	NA	NA	NA	NA	NA	NA	NA	NA	NA	NA	NA	NA	NA	NA	NA	NA	NA	NA	NA	NA	BlockProc	BlockList	NA	33	{LEFTARROW}	NA	-100	1737	congruent	NA	NA	NA	NA	NA	NA	NA	NA	NA	NA	NA	NA	NA	NA	NA	NA	NA	NA	NA	NA	NA	NA	TrialProc	TrialList	0	8	349197	17	0	33	347064	0	1	{LEFTARROW}	-999999	0	348647	0	{LEFTARROW}	542	349189	NA	NA	left	lllll.bmp	354	0	NA	0	0	0	0	NA	0	0	0	NA	0	0	0	0	NA	0	0	1	1	33
Arrow Flanker 2014	12187	1	"<?xml version=""1.0""?>\n<Clock xmlns:dt=""urn:schemas-microsoft-com:datatypes""><Description dt:dt=""string"">E-Prime Primary Realtime Clock</Description><StartTime><Timestamp dt:dt=""int"">0</Timestamp><DateUtc dt:dt=""string"">2015-04-15T20:06:23Z</DateUtc></StartTime><FrequencyChanges><FrequencyChange><Frequency dt:dt=""r8"">2825625</Frequency><Timestamp dt:dt=""r8"">297840400673</Timestamp><Current dt:dt=""r8"">0</Current><DateUtc dt:dt=""string"">2015-04-15T20:06:23Z</DateUtc></FrequencyChange></FrequencyChanges></Clock>\n"	Arrow Flanker 2014-12187-1	60.017	1.0.0.100	1	1488228433	Professional	2.0.10.353	2.0.10.353	04-15-2015	4/15/2015 8:06:23 PM	16:06:23	2.0.10.248	3	1	1	1	NA	NA	NA	NA	NA	NA	NA	NA	NA	NA	NA	NA	NA	NA	NA	NA	NA	NA	NA	NA	NA	NA	NA	NA	BlockProc	BlockList	NA	34	{LEFTARROW}	NA	-100	1916	neutral	NA	NA	NA	NA	NA	NA	NA	NA	NA	NA	NA	NA	NA	NA	NA	NA	NA	NA	NA	NA	NA	NA	TrialProc	TrialList	0	12	351713	17	0	16	349730	0	1	{LEFTARROW}	-999999	16	351263	0	{LEFTARROW}	438	351701	NA	NA	left	ooloo.bmp	354	0	NA	0	0	0	0	NA	0	0	0	NA	0	0	0	0	NA	0	0	5	1	34
Arrow Flanker 2014	12187	1	"<?xml version=""1.0""?>\n<Clock xmlns:dt=""urn:schemas-microsoft-com:datatypes""><Description dt:dt=""string"">E-Prime Primary Realtime Clock</Description><StartTime><Timestamp dt:dt=""int"">0</Timestamp><DateUtc dt:dt=""string"">2015-04-15T20:06:23Z</DateUtc></StartTime><FrequencyChanges><FrequencyChange><Frequency dt:dt=""r8"">2825625</Frequency><Timestamp dt:dt=""r8"">297840400673</Timestamp><Current dt:dt=""r8"">0</Current><DateUtc dt:dt=""string"">2015-04-15T20:06:23Z</DateUtc></FrequencyChange></FrequencyChanges></Clock>\n"	Arrow Flanker 2014-12187-1	60.017	1.0.0.100	1	1488228433	Professional	2.0.10.353	2.0.10.353	04-15-2015	4/15/2015 8:06:23 PM	16:06:23	2.0.10.248	3	1	1	1	NA	NA	NA	NA	NA	NA	NA	NA	NA	NA	NA	NA	NA	NA	NA	NA	NA	NA	NA	NA	NA	NA	NA	NA	BlockProc	BlockList	NA	35	{RIGHTARROW}	NA	-100	1266	congruent	NA	NA	NA	NA	NA	NA	NA	NA	NA	NA	NA	NA	NA	NA	NA	NA	NA	NA	NA	NA	NA	NA	TrialProc	TrialList	0	9	354046	16	0	16	352246	0	1	{RIGHTARROW}	-999999	0	353479	0	{RIGHTARROW}	558	354037	NA	NA	right	rrrrr.bmp	354	0	NA	0	0	0	0	NA	0	0	0	NA	0	0	0	0	NA	0	0	2	1	35
Arrow Flanker 2014	12187	1	"<?xml version=""1.0""?>\n<Clock xmlns:dt=""urn:schemas-microsoft-com:datatypes""><Description dt:dt=""string"">E-Prime Primary Realtime Clock</Description><StartTime><Timestamp dt:dt=""int"">0</Timestamp><DateUtc dt:dt=""string"">2015-04-15T20:06:23Z</DateUtc></StartTime><FrequencyChanges><FrequencyChange><Frequency dt:dt=""r8"">2825625</Frequency><Timestamp dt:dt=""r8"">297840400673</Timestamp><Current dt:dt=""r8"">0</Current><DateUtc dt:dt=""string"">2015-04-15T20:06:23Z</DateUtc></FrequencyChange></FrequencyChanges></Clock>\n"	Arrow Flanker 2014-12187-1	60.017	1.0.0.100	1	1488228433	Professional	2.0.10.353	2.0.10.353	04-15-2015	4/15/2015 8:06:23 PM	16:06:23	2.0.10.248	3	1	1	1	NA	NA	NA	NA	NA	NA	NA	NA	NA	NA	NA	NA	NA	NA	NA	NA	NA	NA	NA	NA	NA	NA	NA	NA	BlockProc	BlockList	NA	36	{RIGHTARROW}	NA	-100	918	congruent	NA	NA	NA	NA	NA	NA	NA	NA	NA	NA	NA	NA	NA	NA	NA	NA	NA	NA	NA	NA	NA	NA	TrialProc	TrialList	0	20	356345	17	0	17	354579	0	1	{RIGHTARROW}	-999999	0	355862	0	{RIGHTARROW}	463	356325	NA	NA	right	rrrrr.bmp	354	0	NA	0	0	0	0	NA	0	0	0	NA	0	0	0	0	NA	0	0	2	1	36
Arrow Flanker 2014	12187	1	"<?xml version=""1.0""?>\n<Clock xmlns:dt=""urn:schemas-microsoft-com:datatypes""><Description dt:dt=""string"">E-Prime Primary Realtime Clock</Description><StartTime><Timestamp dt:dt=""int"">0</Timestamp><DateUtc dt:dt=""string"">2015-04-15T20:06:23Z</DateUtc></StartTime><FrequencyChanges><FrequencyChange><Frequency dt:dt=""r8"">2825625</Frequency><Timestamp dt:dt=""r8"">297840400673</Timestamp><Current dt:dt=""r8"">0</Current><DateUtc dt:dt=""string"">2015-04-15T20:06:23Z</DateUtc></FrequencyChange></FrequencyChanges></Clock>\n"	Arrow Flanker 2014-12187-1	60.017	1.0.0.100	1	1488228433	Professional	2.0.10.353	2.0.10.353	04-15-2015	4/15/2015 8:06:23 PM	16:06:23	2.0.10.248	3	1	1	1	NA	NA	NA	NA	NA	NA	NA	NA	NA	NA	NA	NA	NA	NA	NA	NA	NA	NA	NA	NA	NA	NA	NA	NA	BlockProc	BlockList	NA	37	{LEFTARROW}	NA	-100	1679	congruent	NA	NA	NA	NA	NA	NA	NA	NA	NA	NA	NA	NA	NA	NA	NA	NA	NA	NA	NA	NA	2	1	TrialProc	TrialList	0	20	359161	17	0	16	356878	0	1	{LEFTARROW}	-999999	0	358228	0	{LEFTARROW}	913	359141	NA	NA	left	lllll.bmp	354	0	NA	-999999	16	359694	0	1	2439	362133	0	NA	-999999	10	362143	0	1	2678	364821	1	1	37
Arrow Flanker 2014	12187	1	"<?xml version=""1.0""?>\n<Clock xmlns:dt=""urn:schemas-microsoft-com:datatypes""><Description dt:dt=""string"">E-Prime Primary Realtime Clock</Description><StartTime><Timestamp dt:dt=""int"">0</Timestamp><DateUtc dt:dt=""string"">2015-04-15T20:06:23Z</DateUtc></StartTime><FrequencyChanges><FrequencyChange><Frequency dt:dt=""r8"">2825625</Frequency><Timestamp dt:dt=""r8"">297840400673</Timestamp><Current dt:dt=""r8"">0</Current><DateUtc dt:dt=""string"">2015-04-15T20:06:23Z</DateUtc></FrequencyChange></FrequencyChanges></Clock>\n"	Arrow Flanker 2014-12187-1	60.017	1.0.0.100	1	1488228433	Professional	2.0.10.353	2.0.10.353	04-15-2015	4/15/2015 8:06:23 PM	16:06:23	2.0.10.248	3	1	1	1	NA	NA	NA	NA	NA	NA	NA	NA	NA	NA	NA	NA	NA	NA	NA	NA	NA	NA	NA	NA	NA	NA	NA	NA	BlockProc	BlockList	NA	38	{RIGHTARROW}	NA	-100	1255	incongruent	NA	NA	NA	NA	NA	NA	NA	NA	NA	NA	NA	NA	NA	NA	NA	NA	NA	NA	NA	NA	NA	NA	TrialProc	TrialList	0	19	369175	16	0	27	367375	0	1	{RIGHTARROW}	-999999	0	368558	0	{RIGHTARROW}	598	369156	NA	NA	right	llrll.bmp	354	0	NA	0	0	0	0	NA	0	0	0	NA	0	0	0	0	NA	0	0	4	1	38
Arrow Flanker 2014	12187	1	"<?xml version=""1.0""?>\n<Clock xmlns:dt=""urn:schemas-microsoft-com:datatypes""><Description dt:dt=""string"">E-Prime Primary Realtime Clock</Description><StartTime><Timestamp dt:dt=""int"">0</Timestamp><DateUtc dt:dt=""string"">2015-04-15T20:06:23Z</DateUtc></StartTime><FrequencyChanges><FrequencyChange><Frequency dt:dt=""r8"">2825625</Frequency><Timestamp dt:dt=""r8"">297840400673</Timestamp><Current dt:dt=""r8"">0</Current><DateUtc dt:dt=""string"">2015-04-15T20:06:23Z</DateUtc></FrequencyChange></FrequencyChanges></Clock>\n"	Arrow Flanker 2014-12187-1	60.017	1.0.0.100	1	1488228433	Professional	2.0.10.353	2.0.10.353	04-15-2015	4/15/2015 8:06:23 PM	16:06:23	2.0.10.248	3	1	1	1	NA	NA	NA	NA	NA	NA	NA	NA	NA	NA	NA	NA	NA	NA	NA	NA	NA	NA	NA	NA	NA	NA	NA	NA	BlockProc	BlockList	NA	39	{RIGHTARROW}	NA	-100	1940	incongruent	NA	NA	NA	NA	NA	NA	NA	NA	NA	NA	NA	NA	NA	NA	NA	NA	NA	NA	NA	NA	NA	NA	TrialProc	TrialList	1	9	371757	17	0	17	369708	0	1	{RIGHTARROW}	-999999	16	371174	0	{RIGHTARROW}	574	371748	NA	NA	right	llrll.bmp	354	0	NA	0	0	0	0	NA	0	0	0	NA	0	0	0	0	NA	0	0	4	1	39
Arrow Flanker 2014	12187	1	"<?xml version=""1.0""?>\n<Clock xmlns:dt=""urn:schemas-microsoft-com:datatypes""><Description dt:dt=""string"">E-Prime Primary Realtime Clock</Description><StartTime><Timestamp dt:dt=""int"">0</Timestamp><DateUtc dt:dt=""string"">2015-04-15T20:06:23Z</DateUtc></StartTime><FrequencyChanges><FrequencyChange><Frequency dt:dt=""r8"">2825625</Frequency><Timestamp dt:dt=""r8"">297840400673</Timestamp><Current dt:dt=""r8"">0</Current><DateUtc dt:dt=""string"">2015-04-15T20:06:23Z</DateUtc></FrequencyChange></FrequencyChanges></Clock>\n"	Arrow Flanker 2014-12187-1	60.017	1.0.0.100	1	1488228433	Professional	2.0.10.353	2.0.10.353	04-15-2015	4/15/2015 8:06:23 PM	16:06:23	2.0.10.248	3	1	1	1	NA	NA	NA	NA	NA	NA	NA	NA	NA	NA	NA	NA	NA	NA	NA	NA	NA	NA	NA	NA	NA	NA	NA	NA	BlockProc	BlockList	NA	40	{LEFTARROW}	NA	-100	592	incongruent	NA	NA	NA	NA	NA	NA	NA	NA	NA	NA	NA	NA	NA	NA	NA	NA	NA	NA	NA	NA	NA	NA	TrialProc	TrialList	0	8	373740	17	0	17	372291	0	1	{LEFTARROW}	-999999	0	373290	0	{LEFTARROW}	442	373732	NA	NA	left	rrlrr.bmp	354	0	NA	0	0	0	0	NA	0	0	0	NA	0	0	0	0	NA	0	0	3	1	40
Arrow Flanker 2014	12187	1	"<?xml version=""1.0""?>\n<Clock xmlns:dt=""urn:schemas-microsoft-com:datatypes""><Description dt:dt=""string"">E-Prime Primary Realtime Clock</Description><StartTime><Timestamp dt:dt=""int"">0</Timestamp><DateUtc dt:dt=""string"">2015-04-15T20:06:23Z</DateUtc></StartTime><FrequencyChanges><FrequencyChange><Frequency dt:dt=""r8"">2825625</Frequency><Timestamp dt:dt=""r8"">297840400673</Timestamp><Current dt:dt=""r8"">0</Current><DateUtc dt:dt=""string"">2015-04-15T20:06:23Z</DateUtc></FrequencyChange></FrequencyChanges></Clock>\n"	Arrow Flanker 2014-12187-1	60.017	1.0.0.100	1	1488228433	Professional	2.0.10.353	2.0.10.353	04-15-2015	4/15/2015 8:06:23 PM	16:06:23	2.0.10.248	3	1	1	1	NA	NA	NA	NA	NA	NA	NA	NA	NA	NA	NA	NA	NA	NA	NA	NA	NA	NA	NA	NA	NA	NA	NA	NA	BlockProc	BlockList	NA	41	{RIGHTARROW}	NA	-100	677	congruent	NA	NA	NA	NA	NA	NA	NA	NA	NA	NA	NA	NA	NA	NA	NA	NA	NA	NA	NA	NA	NA	NA	TrialProc	TrialList	0	12	375856	17	0	16	374273	0	1	{RIGHTARROW}	-999999	0	375390	0	{RIGHTARROW}	454	375844	NA	NA	right	rrrrr.bmp	354	0	NA	0	0	0	0	NA	0	0	0	NA	0	0	0	0	NA	0	0	2	1	41
Arrow Flanker 2014	12187	1	"<?xml version=""1.0""?>\n<Clock xmlns:dt=""urn:schemas-microsoft-com:datatypes""><Description dt:dt=""string"">E-Prime Primary Realtime Clock</Description><StartTime><Timestamp dt:dt=""int"">0</Timestamp><DateUtc dt:dt=""string"">2015-04-15T20:06:23Z</DateUtc></StartTime><FrequencyChanges><FrequencyChange><Frequency dt:dt=""r8"">2825625</Frequency><Timestamp dt:dt=""r8"">297840400673</Timestamp><Current dt:dt=""r8"">0</Current><DateUtc dt:dt=""string"">2015-04-15T20:06:23Z</DateUtc></FrequencyChange></FrequencyChanges></Clock>\n"	Arrow Flanker 2014-12187-1	60.017	1.0.0.100	1	1488228433	Professional	2.0.10.353	2.0.10.353	04-15-2015	4/15/2015 8:06:23 PM	16:06:23	2.0.10.248	3	1	1	1	NA	NA	NA	NA	NA	NA	NA	NA	NA	NA	NA	NA	NA	NA	NA	NA	NA	NA	NA	NA	NA	NA	NA	NA	BlockProc	BlockList	NA	42	{LEFTARROW}	NA	-100	1313	incongruent	NA	NA	NA	NA	NA	NA	NA	NA	NA	NA	NA	NA	NA	NA	NA	NA	NA	NA	NA	NA	NA	NA	TrialProc	TrialList	0	6	378522	17	0	16	376389	0	1	{LEFTARROW}	-999999	0	378056	0	{LEFTARROW}	460	378516	NA	NA	left	rrlrr.bmp	354	0	NA	0	0	0	0	NA	0	0	0	NA	0	0	0	0	NA	0	0	3	1	42
Arrow Flanker 2014	12187	1	"<?xml version=""1.0""?>\n<Clock xmlns:dt=""urn:schemas-microsoft-com:datatypes""><Description dt:dt=""string"">E-Prime Primary Realtime Clock</Description><StartTime><Timestamp dt:dt=""int"">0</Timestamp><DateUtc dt:dt=""string"">2015-04-15T20:06:23Z</DateUtc></StartTime><FrequencyChanges><FrequencyChange><Frequency dt:dt=""r8"">2825625</Frequency><Timestamp dt:dt=""r8"">297840400673</Timestamp><Current dt:dt=""r8"">0</Current><DateUtc dt:dt=""string"">2015-04-15T20:06:23Z</DateUtc></FrequencyChange></FrequencyChanges></Clock>\n"	Arrow Flanker 2014-12187-1	60.017	1.0.0.100	1	1488228433	Professional	2.0.10.353	2.0.10.353	04-15-2015	4/15/2015 8:06:23 PM	16:06:23	2.0.10.248	3	1	1	1	NA	NA	NA	NA	NA	NA	NA	NA	NA	NA	NA	NA	NA	NA	NA	NA	NA	NA	NA	NA	NA	NA	NA	NA	BlockProc	BlockList	NA	43	{LEFTARROW}	NA	-100	1584	neutral	NA	NA	NA	NA	NA	NA	NA	NA	NA	NA	NA	NA	NA	NA	NA	NA	NA	NA	NA	NA	NA	NA	TrialProc	TrialList	1	11	381071	17	0	16	379055	0	1	{LEFTARROW}	-999999	-1	380571	0	{LEFTARROW}	488	381059	NA	NA	left	ooloo.bmp	354	0	NA	0	0	0	0	NA	0	0	0	NA	0	0	0	0	NA	0	0	5	1	43
Arrow Flanker 2014	12187	1	"<?xml version=""1.0""?>\n<Clock xmlns:dt=""urn:schemas-microsoft-com:datatypes""><Description dt:dt=""string"">E-Prime Primary Realtime Clock</Description><StartTime><Timestamp dt:dt=""int"">0</Timestamp><DateUtc dt:dt=""string"">2015-04-15T20:06:23Z</DateUtc></StartTime><FrequencyChanges><FrequencyChange><Frequency dt:dt=""r8"">2825625</Frequency><Timestamp dt:dt=""r8"">297840400673</Timestamp><Current dt:dt=""r8"">0</Current><DateUtc dt:dt=""string"">2015-04-15T20:06:23Z</DateUtc></FrequencyChange></FrequencyChanges></Clock>\n"	Arrow Flanker 2014-12187-1	60.017	1.0.0.100	1	1488228433	Professional	2.0.10.353	2.0.10.353	04-15-2015	4/15/2015 8:06:23 PM	16:06:23	2.0.10.248	3	1	1	1	NA	NA	NA	NA	NA	NA	NA	NA	NA	NA	NA	NA	NA	NA	NA	NA	NA	NA	NA	NA	NA	NA	NA	NA	BlockProc	BlockList	NA	44	{LEFTARROW}	NA	-100	1184	incongruent	NA	NA	NA	NA	NA	NA	NA	NA	NA	NA	NA	NA	NA	NA	NA	NA	NA	NA	NA	NA	NA	NA	TrialProc	TrialList	0	18	383654	17	0	17	381605	0	1	{LEFTARROW}	-999999	0	383121	0	{LEFTARROW}	514	383635	NA	NA	left	rrlrr.bmp	354	0	NA	0	0	0	0	NA	0	0	0	NA	0	0	0	0	NA	0	0	3	1	44
Arrow Flanker 2014	12187	1	"<?xml version=""1.0""?>\n<Clock xmlns:dt=""urn:schemas-microsoft-com:datatypes""><Description dt:dt=""string"">E-Prime Primary Realtime Clock</Description><StartTime><Timestamp dt:dt=""int"">0</Timestamp><DateUtc dt:dt=""string"">2015-04-15T20:06:23Z</DateUtc></StartTime><FrequencyChanges><FrequencyChange><Frequency dt:dt=""r8"">2825625</Frequency><Timestamp dt:dt=""r8"">297840400673</Timestamp><Current dt:dt=""r8"">0</Current><DateUtc dt:dt=""string"">2015-04-15T20:06:23Z</DateUtc></FrequencyChange></FrequencyChanges></Clock>\n"	Arrow Flanker 2014-12187-1	60.017	1.0.0.100	1	1488228433	Professional	2.0.10.353	2.0.10.353	04-15-2015	4/15/2015 8:06:23 PM	16:06:23	2.0.10.248	3	1	1	1	NA	NA	NA	NA	NA	NA	NA	NA	NA	NA	NA	NA	NA	NA	NA	NA	NA	NA	NA	NA	NA	NA	NA	NA	BlockProc	BlockList	NA	45	{LEFTARROW}	NA	-100	2002	congruent	NA	NA	NA	NA	NA	NA	NA	NA	NA	NA	NA	NA	NA	NA	NA	NA	NA	NA	NA	NA	NA	NA	TrialProc	TrialList	0	19	386070	17	0	16	384187	0	1	{LEFTARROW}	-999999	16	385520	0	{LEFTARROW}	531	386051	NA	NA	left	lllll.bmp	354	0	NA	0	0	0	0	NA	0	0	0	NA	0	0	0	0	NA	0	0	1	1	45
Arrow Flanker 2014	12187	1	"<?xml version=""1.0""?>\n<Clock xmlns:dt=""urn:schemas-microsoft-com:datatypes""><Description dt:dt=""string"">E-Prime Primary Realtime Clock</Description><StartTime><Timestamp dt:dt=""int"">0</Timestamp><DateUtc dt:dt=""string"">2015-04-15T20:06:23Z</DateUtc></StartTime><FrequencyChanges><FrequencyChange><Frequency dt:dt=""r8"">2825625</Frequency><Timestamp dt:dt=""r8"">297840400673</Timestamp><Current dt:dt=""r8"">0</Current><DateUtc dt:dt=""string"">2015-04-15T20:06:23Z</DateUtc></FrequencyChange></FrequencyChanges></Clock>\n"	Arrow Flanker 2014-12187-1	60.017	1.0.0.100	1	1488228433	Professional	2.0.10.353	2.0.10.353	04-15-2015	4/15/2015 8:06:23 PM	16:06:23	2.0.10.248	3	1	1	1	NA	NA	NA	NA	NA	NA	NA	NA	NA	NA	NA	NA	NA	NA	NA	NA	NA	NA	NA	NA	NA	NA	NA	NA	BlockProc	BlockList	NA	46	{RIGHTARROW}	NA	-100	1951	neutral	NA	NA	NA	NA	NA	NA	NA	NA	NA	NA	NA	NA	NA	NA	NA	NA	NA	NA	NA	NA	NA	NA	TrialProc	TrialList	1	9	389052	17	0	16	386603	0	1	{RIGHTARROW}	-999999	0	388619	0	{RIGHTARROW}	424	389043	NA	NA	right	ooroo.bmp	354	0	NA	0	0	0	0	NA	0	0	0	NA	0	0	0	0	NA	0	0	6	1	46
Arrow Flanker 2014	12187	1	"<?xml version=""1.0""?>\n<Clock xmlns:dt=""urn:schemas-microsoft-com:datatypes""><Description dt:dt=""string"">E-Prime Primary Realtime Clock</Description><StartTime><Timestamp dt:dt=""int"">0</Timestamp><DateUtc dt:dt=""string"">2015-04-15T20:06:23Z</DateUtc></StartTime><FrequencyChanges><FrequencyChange><Frequency dt:dt=""r8"">2825625</Frequency><Timestamp dt:dt=""r8"">297840400673</Timestamp><Current dt:dt=""r8"">0</Current><DateUtc dt:dt=""string"">2015-04-15T20:06:23Z</DateUtc></FrequencyChange></FrequencyChanges></Clock>\n"	Arrow Flanker 2014-12187-1	60.017	1.0.0.100	1	1488228433	Professional	2.0.10.353	2.0.10.353	04-15-2015	4/15/2015 8:06:23 PM	16:06:23	2.0.10.248	3	1	1	1	NA	NA	NA	NA	NA	NA	NA	NA	NA	NA	NA	NA	NA	NA	NA	NA	NA	NA	NA	NA	NA	NA	NA	NA	BlockProc	BlockList	NA	47	{LEFTARROW}	NA	-100	1443	congruent	NA	NA	NA	NA	NA	NA	NA	NA	NA	NA	NA	NA	NA	NA	NA	NA	NA	NA	NA	NA	NA	NA	TrialProc	TrialList	1	17	391268	17	0	17	389586	0	1	{LEFTARROW}	-999999	0	390735	0	{LEFTARROW}	516	391251	NA	NA	left	lllll.bmp	354	0	NA	0	0	0	0	NA	0	0	0	NA	0	0	0	0	NA	0	0	1	1	47
Arrow Flanker 2014	12187	1	"<?xml version=""1.0""?>\n<Clock xmlns:dt=""urn:schemas-microsoft-com:datatypes""><Description dt:dt=""string"">E-Prime Primary Realtime Clock</Description><StartTime><Timestamp dt:dt=""int"">0</Timestamp><DateUtc dt:dt=""string"">2015-04-15T20:06:23Z</DateUtc></StartTime><FrequencyChanges><FrequencyChange><Frequency dt:dt=""r8"">2825625</Frequency><Timestamp dt:dt=""r8"">297840400673</Timestamp><Current dt:dt=""r8"">0</Current><DateUtc dt:dt=""string"">2015-04-15T20:06:23Z</DateUtc></FrequencyChange></FrequencyChanges></Clock>\n"	Arrow Flanker 2014-12187-1	60.017	1.0.0.100	1	1488228433	Professional	2.0.10.353	2.0.10.353	04-15-2015	4/15/2015 8:06:23 PM	16:06:23	2.0.10.248	3	1	1	1	NA	NA	NA	NA	NA	NA	NA	NA	NA	NA	NA	NA	NA	NA	NA	NA	NA	NA	NA	NA	NA	NA	NA	NA	BlockProc	BlockList	NA	48	{RIGHTARROW}	NA	-100	987	congruent	NA	NA	NA	NA	NA	NA	NA	NA	NA	NA	NA	NA	NA	NA	NA	NA	NA	NA	NA	NA	NA	NA	TrialProc	TrialList	1	19	393734	17	0	17	391802	0	1	{RIGHTARROW}	-999999	0	393268	0	{RIGHTARROW}	447	393715	NA	NA	right	rrrrr.bmp	354	0	NA	0	0	0	0	NA	0	0	0	NA	0	0	0	0	NA	0	0	2	1	48
Arrow Flanker 2014	12187	1	"<?xml version=""1.0""?>\n<Clock xmlns:dt=""urn:schemas-microsoft-com:datatypes""><Description dt:dt=""string"">E-Prime Primary Realtime Clock</Description><StartTime><Timestamp dt:dt=""int"">0</Timestamp><DateUtc dt:dt=""string"">2015-04-15T20:06:23Z</DateUtc></StartTime><FrequencyChanges><FrequencyChange><Frequency dt:dt=""r8"">2825625</Frequency><Timestamp dt:dt=""r8"">297840400673</Timestamp><Current dt:dt=""r8"">0</Current><DateUtc dt:dt=""string"">2015-04-15T20:06:23Z</DateUtc></FrequencyChange></FrequencyChanges></Clock>\n"	Arrow Flanker 2014-12187-1	60.017	1.0.0.100	1	1488228433	Professional	2.0.10.353	2.0.10.353	04-15-2015	4/15/2015 8:06:23 PM	16:06:23	2.0.10.248	3	1	1	1	NA	NA	NA	NA	NA	NA	NA	NA	NA	NA	NA	NA	NA	NA	NA	NA	NA	NA	NA	NA	NA	NA	NA	NA	BlockProc	BlockList	NA	49	{LEFTARROW}	NA	-100	1615	neutral	NA	NA	NA	NA	NA	NA	NA	NA	NA	NA	NA	NA	NA	NA	NA	NA	NA	NA	NA	NA	NA	NA	TrialProc	TrialList	0	16	396467	17	0	17	394268	0	1	{LEFTARROW}	-999999	0	396084	0	{LEFTARROW}	367	396451	NA	NA	left	ooloo.bmp	354	0	NA	0	0	0	0	NA	0	0	0	NA	0	0	0	0	NA	0	0	5	1	49
Arrow Flanker 2014	12187	1	"<?xml version=""1.0""?>\n<Clock xmlns:dt=""urn:schemas-microsoft-com:datatypes""><Description dt:dt=""string"">E-Prime Primary Realtime Clock</Description><StartTime><Timestamp dt:dt=""int"">0</Timestamp><DateUtc dt:dt=""string"">2015-04-15T20:06:23Z</DateUtc></StartTime><FrequencyChanges><FrequencyChange><Frequency dt:dt=""r8"">2825625</Frequency><Timestamp dt:dt=""r8"">297840400673</Timestamp><Current dt:dt=""r8"">0</Current><DateUtc dt:dt=""string"">2015-04-15T20:06:23Z</DateUtc></FrequencyChange></FrequencyChanges></Clock>\n"	Arrow Flanker 2014-12187-1	60.017	1.0.0.100	1	1488228433	Professional	2.0.10.353	2.0.10.353	04-15-2015	4/15/2015 8:06:23 PM	16:06:23	2.0.10.248	3	1	1	1	NA	NA	NA	NA	NA	NA	NA	NA	NA	NA	NA	NA	NA	NA	NA	NA	NA	NA	NA	NA	NA	NA	NA	NA	BlockProc	BlockList	NA	50	{RIGHTARROW}	NA	-100	1732	neutral	NA	NA	NA	NA	NA	NA	NA	NA	NA	NA	NA	NA	NA	NA	NA	NA	NA	NA	NA	NA	NA	NA	TrialProc	TrialList	1	17	398916	17	0	16	397000	0	1	{RIGHTARROW}	-999999	0	398500	0	{RIGHTARROW}	399	398899	NA	NA	right	ooroo.bmp	354	0	NA	0	0	0	0	NA	0	0	0	NA	0	0	0	0	NA	0	0	6	1	50
Arrow Flanker 2014	12187	1	"<?xml version=""1.0""?>\n<Clock xmlns:dt=""urn:schemas-microsoft-com:datatypes""><Description dt:dt=""string"">E-Prime Primary Realtime Clock</Description><StartTime><Timestamp dt:dt=""int"">0</Timestamp><DateUtc dt:dt=""string"">2015-04-15T20:06:23Z</DateUtc></StartTime><FrequencyChanges><FrequencyChange><Frequency dt:dt=""r8"">2825625</Frequency><Timestamp dt:dt=""r8"">297840400673</Timestamp><Current dt:dt=""r8"">0</Current><DateUtc dt:dt=""string"">2015-04-15T20:06:23Z</DateUtc></FrequencyChange></FrequencyChanges></Clock>\n"	Arrow Flanker 2014-12187-1	60.017	1.0.0.100	1	1488228433	Professional	2.0.10.353	2.0.10.353	04-15-2015	4/15/2015 8:06:23 PM	16:06:23	2.0.10.248	3	1	1	1	NA	NA	NA	NA	NA	NA	NA	NA	NA	NA	NA	NA	NA	NA	NA	NA	NA	NA	NA	NA	NA	NA	NA	NA	BlockProc	BlockList	NA	51	{RIGHTARROW}	NA	-100	614	neutral	NA	NA	NA	NA	NA	NA	NA	NA	NA	NA	NA	NA	NA	NA	NA	NA	NA	NA	NA	NA	NA	NA	TrialProc	TrialList	0	19	400966	16	0	16	399449	0	1	{RIGHTARROW}	-999999	0	400433	0	{RIGHTARROW}	513	400946	NA	NA	right	ooroo.bmp	354	0	NA	0	0	0	0	NA	0	0	0	NA	0	0	0	0	NA	0	0	6	1	51
Arrow Flanker 2014	12187	1	"<?xml version=""1.0""?>\n<Clock xmlns:dt=""urn:schemas-microsoft-com:datatypes""><Description dt:dt=""string"">E-Prime Primary Realtime Clock</Description><StartTime><Timestamp dt:dt=""int"">0</Timestamp><DateUtc dt:dt=""string"">2015-04-15T20:06:23Z</DateUtc></StartTime><FrequencyChanges><FrequencyChange><Frequency dt:dt=""r8"">2825625</Frequency><Timestamp dt:dt=""r8"">297840400673</Timestamp><Current dt:dt=""r8"">0</Current><DateUtc dt:dt=""string"">2015-04-15T20:06:23Z</DateUtc></FrequencyChange></FrequencyChanges></Clock>\n"	Arrow Flanker 2014-12187-1	60.017	1.0.0.100	1	1488228433	Professional	2.0.10.353	2.0.10.353	04-15-2015	4/15/2015 8:06:23 PM	16:06:23	2.0.10.248	3	1	1	1	NA	NA	NA	NA	NA	NA	NA	NA	NA	NA	NA	NA	NA	NA	NA	NA	NA	NA	NA	NA	NA	NA	NA	NA	BlockProc	BlockList	NA	52	{RIGHTARROW}	NA	-100	1629	congruent	NA	NA	NA	NA	NA	NA	NA	NA	NA	NA	NA	NA	NA	NA	NA	NA	NA	NA	NA	NA	NA	NA	TrialProc	TrialList	0	20	403015	17	0	17	401499	0	1	{RIGHTARROW}	-999999	0	402515	0	{RIGHTARROW}	479	402994	NA	NA	right	rrrrr.bmp	354	0	NA	0	0	0	0	NA	0	0	0	NA	0	0	0	0	NA	0	0	2	1	52
Arrow Flanker 2014	12187	1	"<?xml version=""1.0""?>\n<Clock xmlns:dt=""urn:schemas-microsoft-com:datatypes""><Description dt:dt=""string"">E-Prime Primary Realtime Clock</Description><StartTime><Timestamp dt:dt=""int"">0</Timestamp><DateUtc dt:dt=""string"">2015-04-15T20:06:23Z</DateUtc></StartTime><FrequencyChanges><FrequencyChange><Frequency dt:dt=""r8"">2825625</Frequency><Timestamp dt:dt=""r8"">297840400673</Timestamp><Current dt:dt=""r8"">0</Current><DateUtc dt:dt=""string"">2015-04-15T20:06:23Z</DateUtc></FrequencyChange></FrequencyChanges></Clock>\n"	Arrow Flanker 2014-12187-1	60.017	1.0.0.100	1	1488228433	Professional	2.0.10.353	2.0.10.353	04-15-2015	4/15/2015 8:06:23 PM	16:06:23	2.0.10.248	3	1	1	1	NA	NA	NA	NA	NA	NA	NA	NA	NA	NA	NA	NA	NA	NA	NA	NA	NA	NA	NA	NA	NA	NA	NA	NA	BlockProc	BlockList	NA	53	{RIGHTARROW}	NA	-100	1689	incongruent	NA	NA	NA	NA	NA	NA	NA	NA	NA	NA	NA	NA	NA	NA	NA	NA	NA	NA	NA	NA	NA	NA	TrialProc	TrialList	0	20	406198	16	0	16	403548	0	1	{RIGHTARROW}	-999999	0	405614	0	{RIGHTARROW}	564	406178	NA	NA	right	llrll.bmp	354	0	NA	0	0	0	0	NA	0	0	0	NA	0	0	0	0	NA	0	0	4	1	53
Arrow Flanker 2014	12187	1	"<?xml version=""1.0""?>\n<Clock xmlns:dt=""urn:schemas-microsoft-com:datatypes""><Description dt:dt=""string"">E-Prime Primary Realtime Clock</Description><StartTime><Timestamp dt:dt=""int"">0</Timestamp><DateUtc dt:dt=""string"">2015-04-15T20:06:23Z</DateUtc></StartTime><FrequencyChanges><FrequencyChange><Frequency dt:dt=""r8"">2825625</Frequency><Timestamp dt:dt=""r8"">297840400673</Timestamp><Current dt:dt=""r8"">0</Current><DateUtc dt:dt=""string"">2015-04-15T20:06:23Z</DateUtc></FrequencyChange></FrequencyChanges></Clock>\n"	Arrow Flanker 2014-12187-1	60.017	1.0.0.100	1	1488228433	Professional	2.0.10.353	2.0.10.353	04-15-2015	4/15/2015 8:06:23 PM	16:06:23	2.0.10.248	3	1	1	1	NA	NA	NA	NA	NA	NA	NA	NA	NA	NA	NA	NA	NA	NA	NA	NA	NA	NA	NA	NA	NA	NA	NA	NA	BlockProc	BlockList	NA	54	{RIGHTARROW}	NA	-100	719	congruent	NA	NA	NA	NA	NA	NA	NA	NA	NA	NA	NA	NA	NA	NA	NA	NA	NA	NA	NA	NA	2	1	TrialProc	TrialList	0	20	408630	17	0	17	406731	0	1	{RIGHTARROW}	-999999	0	407897	0	{RIGHTARROW}	713	408610	NA	NA	right	rrrrr.bmp	354	0	NA	-999999	16	409163	0	1	2015	411178	0	NA	-999999	17	411196	0	1	830	412026	2	1	54
Arrow Flanker 2014	12187	1	"<?xml version=""1.0""?>\n<Clock xmlns:dt=""urn:schemas-microsoft-com:datatypes""><Description dt:dt=""string"">E-Prime Primary Realtime Clock</Description><StartTime><Timestamp dt:dt=""int"">0</Timestamp><DateUtc dt:dt=""string"">2015-04-15T20:06:23Z</DateUtc></StartTime><FrequencyChanges><FrequencyChange><Frequency dt:dt=""r8"">2825625</Frequency><Timestamp dt:dt=""r8"">297840400673</Timestamp><Current dt:dt=""r8"">0</Current><DateUtc dt:dt=""string"">2015-04-15T20:06:23Z</DateUtc></FrequencyChange></FrequencyChanges></Clock>\n"	Arrow Flanker 2014-12187-1	60.017	1.0.0.100	1	1488228433	Professional	2.0.10.353	2.0.10.353	04-15-2015	4/15/2015 8:06:23 PM	16:06:23	2.0.10.248	3	1	1	1	NA	NA	NA	NA	NA	NA	NA	NA	NA	NA	NA	NA	NA	NA	NA	NA	NA	NA	NA	NA	NA	NA	NA	NA	BlockProc	BlockList	NA	55	{RIGHTARROW}	NA	-100	1199	incongruent	NA	NA	NA	NA	NA	NA	NA	NA	NA	NA	NA	NA	NA	NA	NA	NA	NA	NA	NA	NA	NA	NA	TrialProc	TrialList	0	22	414712	16	0	28	413262	0	1	{RIGHTARROW}	-999999	0	414179	0	{RIGHTARROW}	511	414690	NA	NA	right	llrll.bmp	354	0	NA	0	0	0	0	NA	0	0	0	NA	0	0	0	0	NA	0	0	4	1	55
Arrow Flanker 2014	12187	1	"<?xml version=""1.0""?>\n<Clock xmlns:dt=""urn:schemas-microsoft-com:datatypes""><Description dt:dt=""string"">E-Prime Primary Realtime Clock</Description><StartTime><Timestamp dt:dt=""int"">0</Timestamp><DateUtc dt:dt=""string"">2015-04-15T20:06:23Z</DateUtc></StartTime><FrequencyChanges><FrequencyChange><Frequency dt:dt=""r8"">2825625</Frequency><Timestamp dt:dt=""r8"">297840400673</Timestamp><Current dt:dt=""r8"">0</Current><DateUtc dt:dt=""string"">2015-04-15T20:06:23Z</DateUtc></FrequencyChange></FrequencyChanges></Clock>\n"	Arrow Flanker 2014-12187-1	60.017	1.0.0.100	1	1488228433	Professional	2.0.10.353	2.0.10.353	04-15-2015	4/15/2015 8:06:23 PM	16:06:23	2.0.10.248	3	1	1	1	NA	NA	NA	NA	NA	NA	NA	NA	NA	NA	NA	NA	NA	NA	NA	NA	NA	NA	NA	NA	NA	NA	NA	NA	BlockProc	BlockList	NA	56	{LEFTARROW}	NA	-100	2150	incongruent	NA	NA	NA	NA	NA	NA	NA	NA	NA	NA	NA	NA	NA	NA	NA	NA	NA	NA	NA	NA	NA	NA	TrialProc	TrialList	1	18	417444	17	0	17	415245	0	1	{LEFTARROW}	-999999	0	416928	0	{LEFTARROW}	498	417426	NA	NA	left	rrlrr.bmp	354	0	NA	0	0	0	0	NA	0	0	0	NA	0	0	0	0	NA	0	0	3	1	56
Arrow Flanker 2014	12187	1	"<?xml version=""1.0""?>\n<Clock xmlns:dt=""urn:schemas-microsoft-com:datatypes""><Description dt:dt=""string"">E-Prime Primary Realtime Clock</Description><StartTime><Timestamp dt:dt=""int"">0</Timestamp><DateUtc dt:dt=""string"">2015-04-15T20:06:23Z</DateUtc></StartTime><FrequencyChanges><FrequencyChange><Frequency dt:dt=""r8"">2825625</Frequency><Timestamp dt:dt=""r8"">297840400673</Timestamp><Current dt:dt=""r8"">0</Current><DateUtc dt:dt=""string"">2015-04-15T20:06:23Z</DateUtc></FrequencyChange></FrequencyChanges></Clock>\n"	Arrow Flanker 2014-12187-1	60.017	1.0.0.100	1	1488228433	Professional	2.0.10.353	2.0.10.353	04-15-2015	4/15/2015 8:06:23 PM	16:06:23	2.0.10.248	3	1	1	1	NA	NA	NA	NA	NA	NA	NA	NA	NA	NA	NA	NA	NA	NA	NA	NA	NA	NA	NA	NA	NA	NA	NA	NA	BlockProc	BlockList	NA	57	{LEFTARROW}	NA	-100	1331	incongruent	NA	NA	NA	NA	NA	NA	NA	NA	NA	NA	NA	NA	NA	NA	NA	NA	NA	NA	NA	NA	NA	NA	TrialProc	TrialList	1	8	420010	17	0	17	417978	0	1	{LEFTARROW}	-999999	0	419427	0	{LEFTARROW}	575	420002	NA	NA	left	rrlrr.bmp	354	0	NA	0	0	0	0	NA	0	0	0	NA	0	0	0	0	NA	0	0	3	1	57
Arrow Flanker 2014	12187	1	"<?xml version=""1.0""?>\n<Clock xmlns:dt=""urn:schemas-microsoft-com:datatypes""><Description dt:dt=""string"">E-Prime Primary Realtime Clock</Description><StartTime><Timestamp dt:dt=""int"">0</Timestamp><DateUtc dt:dt=""string"">2015-04-15T20:06:23Z</DateUtc></StartTime><FrequencyChanges><FrequencyChange><Frequency dt:dt=""r8"">2825625</Frequency><Timestamp dt:dt=""r8"">297840400673</Timestamp><Current dt:dt=""r8"">0</Current><DateUtc dt:dt=""string"">2015-04-15T20:06:23Z</DateUtc></FrequencyChange></FrequencyChanges></Clock>\n"	Arrow Flanker 2014-12187-1	60.017	1.0.0.100	1	1488228433	Professional	2.0.10.353	2.0.10.353	04-15-2015	4/15/2015 8:06:23 PM	16:06:23	2.0.10.248	3	1	1	1	NA	NA	NA	NA	NA	NA	NA	NA	NA	NA	NA	NA	NA	NA	NA	NA	NA	NA	NA	NA	NA	NA	NA	NA	BlockProc	BlockList	NA	58	{RIGHTARROW}	NA	-100	882	neutral	NA	NA	NA	NA	NA	NA	NA	NA	NA	NA	NA	NA	NA	NA	NA	NA	NA	NA	NA	NA	NA	NA	TrialProc	TrialList	0	10	422060	16	0	16	420543	0	1	{RIGHTARROW}	-999999	16	421493	0	{RIGHTARROW}	557	422050	NA	NA	right	ooroo.bmp	354	0	NA	0	0	0	0	NA	0	0	0	NA	0	0	0	0	NA	0	0	6	1	58
Arrow Flanker 2014	12187	1	"<?xml version=""1.0""?>\n<Clock xmlns:dt=""urn:schemas-microsoft-com:datatypes""><Description dt:dt=""string"">E-Prime Primary Realtime Clock</Description><StartTime><Timestamp dt:dt=""int"">0</Timestamp><DateUtc dt:dt=""string"">2015-04-15T20:06:23Z</DateUtc></StartTime><FrequencyChanges><FrequencyChange><Frequency dt:dt=""r8"">2825625</Frequency><Timestamp dt:dt=""r8"">297840400673</Timestamp><Current dt:dt=""r8"">0</Current><DateUtc dt:dt=""string"">2015-04-15T20:06:23Z</DateUtc></FrequencyChange></FrequencyChanges></Clock>\n"	Arrow Flanker 2014-12187-1	60.017	1.0.0.100	1	1488228433	Professional	2.0.10.353	2.0.10.353	04-15-2015	4/15/2015 8:06:23 PM	16:06:23	2.0.10.248	3	1	1	1	NA	NA	NA	NA	NA	NA	NA	NA	NA	NA	NA	NA	NA	NA	NA	NA	NA	NA	NA	NA	NA	NA	NA	NA	BlockProc	BlockList	NA	59	{LEFTARROW}	NA	-100	2186	incongruent	NA	NA	NA	NA	NA	NA	NA	NA	NA	NA	NA	NA	NA	NA	NA	NA	NA	NA	NA	NA	NA	NA	TrialProc	TrialList	1	12	424542	17	0	17	422593	0	1	{LEFTARROW}	-999999	0	424092	0	{LEFTARROW}	437	424529	NA	NA	left	rrlrr.bmp	354	0	NA	0	0	0	0	NA	0	0	0	NA	0	0	0	0	NA	0	0	3	1	59
Arrow Flanker 2014	12187	1	"<?xml version=""1.0""?>\n<Clock xmlns:dt=""urn:schemas-microsoft-com:datatypes""><Description dt:dt=""string"">E-Prime Primary Realtime Clock</Description><StartTime><Timestamp dt:dt=""int"">0</Timestamp><DateUtc dt:dt=""string"">2015-04-15T20:06:23Z</DateUtc></StartTime><FrequencyChanges><FrequencyChange><Frequency dt:dt=""r8"">2825625</Frequency><Timestamp dt:dt=""r8"">297840400673</Timestamp><Current dt:dt=""r8"">0</Current><DateUtc dt:dt=""string"">2015-04-15T20:06:23Z</DateUtc></FrequencyChange></FrequencyChanges></Clock>\n"	Arrow Flanker 2014-12187-1	60.017	1.0.0.100	1	1488228433	Professional	2.0.10.353	2.0.10.353	04-15-2015	4/15/2015 8:06:23 PM	16:06:23	2.0.10.248	3	1	1	1	NA	NA	NA	NA	NA	NA	NA	NA	NA	NA	NA	NA	NA	NA	NA	NA	NA	NA	NA	NA	NA	NA	NA	NA	BlockProc	BlockList	NA	60	{LEFTARROW}	NA	-100	2637	incongruent	NA	NA	NA	NA	NA	NA	NA	NA	NA	NA	NA	NA	NA	NA	NA	NA	NA	NA	NA	NA	NA	NA	TrialProc	TrialList	0	9	427658	17	0	17	425076	0	1	{LEFTARROW}	-999999	16	427158	0	{LEFTARROW}	491	427649	NA	NA	left	rrlrr.bmp	354	0	NA	0	0	0	0	NA	0	0	0	NA	0	0	0	0	NA	0	0	3	1	60
Arrow Flanker 2014	12187	1	"<?xml version=""1.0""?>\n<Clock xmlns:dt=""urn:schemas-microsoft-com:datatypes""><Description dt:dt=""string"">E-Prime Primary Realtime Clock</Description><StartTime><Timestamp dt:dt=""int"">0</Timestamp><DateUtc dt:dt=""string"">2015-04-15T20:06:23Z</DateUtc></StartTime><FrequencyChanges><FrequencyChange><Frequency dt:dt=""r8"">2825625</Frequency><Timestamp dt:dt=""r8"">297840400673</Timestamp><Current dt:dt=""r8"">0</Current><DateUtc dt:dt=""string"">2015-04-15T20:06:23Z</DateUtc></FrequencyChange></FrequencyChanges></Clock>\n"	Arrow Flanker 2014-12187-1	60.017	1.0.0.100	1	1488228433	Professional	2.0.10.353	2.0.10.353	04-15-2015	4/15/2015 8:06:23 PM	16:06:23	2.0.10.248	3	1	1	1	NA	NA	NA	NA	NA	NA	NA	NA	NA	NA	NA	NA	NA	NA	NA	NA	NA	NA	NA	NA	NA	NA	NA	NA	BlockProc	BlockList	NA	61	{LEFTARROW}	NA	-100	2180	neutral	NA	NA	NA	NA	NA	NA	NA	NA	NA	NA	NA	NA	NA	NA	NA	NA	NA	NA	NA	NA	NA	NA	TrialProc	TrialList	0	8	430441	16	0	16	428191	0	1	{LEFTARROW}	-999999	0	429924	0	{LEFTARROW}	509	430433	NA	NA	left	ooloo.bmp	354	0	NA	0	0	0	0	NA	0	0	0	NA	0	0	0	0	NA	0	0	5	1	61
Arrow Flanker 2014	12187	1	"<?xml version=""1.0""?>\n<Clock xmlns:dt=""urn:schemas-microsoft-com:datatypes""><Description dt:dt=""string"">E-Prime Primary Realtime Clock</Description><StartTime><Timestamp dt:dt=""int"">0</Timestamp><DateUtc dt:dt=""string"">2015-04-15T20:06:23Z</DateUtc></StartTime><FrequencyChanges><FrequencyChange><Frequency dt:dt=""r8"">2825625</Frequency><Timestamp dt:dt=""r8"">297840400673</Timestamp><Current dt:dt=""r8"">0</Current><DateUtc dt:dt=""string"">2015-04-15T20:06:23Z</DateUtc></FrequencyChange></FrequencyChanges></Clock>\n"	Arrow Flanker 2014-12187-1	60.017	1.0.0.100	1	1488228433	Professional	2.0.10.353	2.0.10.353	04-15-2015	4/15/2015 8:06:23 PM	16:06:23	2.0.10.248	3	1	1	1	NA	NA	NA	NA	NA	NA	NA	NA	NA	NA	NA	NA	NA	NA	NA	NA	NA	NA	NA	NA	NA	NA	NA	NA	BlockProc	BlockList	NA	62	{LEFTARROW}	NA	-100	1166	neutral	NA	NA	NA	NA	NA	NA	NA	NA	NA	NA	NA	NA	NA	NA	NA	NA	NA	NA	NA	NA	NA	NA	TrialProc	TrialList	1	12	432573	17	0	17	430974	0	1	{LEFTARROW}	-999999	0	432140	0	{LEFTARROW}	421	432561	NA	NA	left	ooloo.bmp	354	0	NA	0	0	0	0	NA	0	0	0	NA	0	0	0	0	NA	0	0	5	1	62
Arrow Flanker 2014	12187	1	"<?xml version=""1.0""?>\n<Clock xmlns:dt=""urn:schemas-microsoft-com:datatypes""><Description dt:dt=""string"">E-Prime Primary Realtime Clock</Description><StartTime><Timestamp dt:dt=""int"">0</Timestamp><DateUtc dt:dt=""string"">2015-04-15T20:06:23Z</DateUtc></StartTime><FrequencyChanges><FrequencyChange><Frequency dt:dt=""r8"">2825625</Frequency><Timestamp dt:dt=""r8"">297840400673</Timestamp><Current dt:dt=""r8"">0</Current><DateUtc dt:dt=""string"">2015-04-15T20:06:23Z</DateUtc></FrequencyChange></FrequencyChanges></Clock>\n"	Arrow Flanker 2014-12187-1	60.017	1.0.0.100	1	1488228433	Professional	2.0.10.353	2.0.10.353	04-15-2015	4/15/2015 8:06:23 PM	16:06:23	2.0.10.248	3	1	1	1	NA	NA	NA	NA	NA	NA	NA	NA	NA	NA	NA	NA	NA	NA	NA	NA	NA	NA	NA	NA	NA	NA	NA	NA	BlockProc	BlockList	NA	63	{RIGHTARROW}	NA	-100	2371	neutral	NA	NA	NA	NA	NA	NA	NA	NA	NA	NA	NA	NA	NA	NA	NA	NA	NA	NA	NA	NA	NA	NA	TrialProc	TrialList	0	15	435456	16	0	17	433107	0	1	{RIGHTARROW}	-999999	0	434906	0	{RIGHTARROW}	535	435441	NA	NA	right	ooroo.bmp	354	0	NA	0	0	0	0	NA	0	0	0	NA	0	0	0	0	NA	0	0	6	1	63
Arrow Flanker 2014	12187	1	"<?xml version=""1.0""?>\n<Clock xmlns:dt=""urn:schemas-microsoft-com:datatypes""><Description dt:dt=""string"">E-Prime Primary Realtime Clock</Description><StartTime><Timestamp dt:dt=""int"">0</Timestamp><DateUtc dt:dt=""string"">2015-04-15T20:06:23Z</DateUtc></StartTime><FrequencyChanges><FrequencyChange><Frequency dt:dt=""r8"">2825625</Frequency><Timestamp dt:dt=""r8"">297840400673</Timestamp><Current dt:dt=""r8"">0</Current><DateUtc dt:dt=""string"">2015-04-15T20:06:23Z</DateUtc></FrequencyChange></FrequencyChanges></Clock>\n"	Arrow Flanker 2014-12187-1	60.017	1.0.0.100	1	1488228433	Professional	2.0.10.353	2.0.10.353	04-15-2015	4/15/2015 8:06:23 PM	16:06:23	2.0.10.248	3	1	1	1	NA	NA	NA	NA	NA	NA	NA	NA	NA	NA	NA	NA	NA	NA	NA	NA	NA	NA	NA	NA	NA	NA	NA	NA	BlockProc	BlockList	NA	64	{LEFTARROW}	NA	-100	1009	congruent	NA	NA	NA	NA	NA	NA	NA	NA	NA	NA	NA	NA	NA	NA	NA	NA	NA	NA	NA	NA	NA	NA	TrialProc	TrialList	0	13	437822	16	0	17	435989	0	1	{LEFTARROW}	-999999	0	437389	0	{LEFTARROW}	420	437809	NA	NA	left	lllll.bmp	354	0	NA	0	0	0	0	NA	0	0	0	NA	0	0	0	0	NA	0	0	1	1	64
Arrow Flanker 2014	12187	1	"<?xml version=""1.0""?>\n<Clock xmlns:dt=""urn:schemas-microsoft-com:datatypes""><Description dt:dt=""string"">E-Prime Primary Realtime Clock</Description><StartTime><Timestamp dt:dt=""int"">0</Timestamp><DateUtc dt:dt=""string"">2015-04-15T20:06:23Z</DateUtc></StartTime><FrequencyChanges><FrequencyChange><Frequency dt:dt=""r8"">2825625</Frequency><Timestamp dt:dt=""r8"">297840400673</Timestamp><Current dt:dt=""r8"">0</Current><DateUtc dt:dt=""string"">2015-04-15T20:06:23Z</DateUtc></FrequencyChange></FrequencyChanges></Clock>\n"	Arrow Flanker 2014-12187-1	60.017	1.0.0.100	1	1488228433	Professional	2.0.10.353	2.0.10.353	04-15-2015	4/15/2015 8:06:23 PM	16:06:23	2.0.10.248	3	1	1	1	NA	NA	NA	NA	NA	NA	NA	NA	NA	NA	NA	NA	NA	NA	NA	NA	NA	NA	NA	NA	NA	NA	NA	NA	BlockProc	BlockList	NA	65	{RIGHTARROW}	NA	-100	606	incongruent	NA	NA	NA	NA	NA	NA	NA	NA	NA	NA	NA	NA	NA	NA	NA	NA	NA	NA	NA	NA	NA	NA	TrialProc	TrialList	0	17	439938	17	0	17	438355	0	1	{RIGHTARROW}	-999999	0	439388	0	{RIGHTARROW}	533	439921	NA	NA	right	llrll.bmp	354	0	NA	0	0	0	0	NA	0	0	0	NA	0	0	0	0	NA	0	0	4	1	65
Arrow Flanker 2014	12187	1	"<?xml version=""1.0""?>\n<Clock xmlns:dt=""urn:schemas-microsoft-com:datatypes""><Description dt:dt=""string"">E-Prime Primary Realtime Clock</Description><StartTime><Timestamp dt:dt=""int"">0</Timestamp><DateUtc dt:dt=""string"">2015-04-15T20:06:23Z</DateUtc></StartTime><FrequencyChanges><FrequencyChange><Frequency dt:dt=""r8"">2825625</Frequency><Timestamp dt:dt=""r8"">297840400673</Timestamp><Current dt:dt=""r8"">0</Current><DateUtc dt:dt=""string"">2015-04-15T20:06:23Z</DateUtc></FrequencyChange></FrequencyChanges></Clock>\n"	Arrow Flanker 2014-12187-1	60.017	1.0.0.100	1	1488228433	Professional	2.0.10.353	2.0.10.353	04-15-2015	4/15/2015 8:06:23 PM	16:06:23	2.0.10.248	3	1	1	1	NA	NA	NA	NA	NA	NA	NA	NA	NA	NA	NA	NA	NA	NA	NA	NA	NA	NA	NA	NA	NA	NA	NA	NA	BlockProc	BlockList	NA	66	{LEFTARROW}	NA	-100	1309	incongruent	NA	NA	NA	NA	NA	NA	NA	NA	NA	NA	NA	NA	NA	NA	NA	NA	NA	NA	NA	NA	NA	NA	TrialProc	TrialList	1	11	442620	17	0	16	440471	0	1	{LEFTARROW}	-999999	0	442121	0	{LEFTARROW}	488	442609	NA	NA	left	rrlrr.bmp	354	0	NA	0	0	0	0	NA	0	0	0	NA	0	0	0	0	NA	0	0	3	1	66
Arrow Flanker 2014	12187	1	"<?xml version=""1.0""?>\n<Clock xmlns:dt=""urn:schemas-microsoft-com:datatypes""><Description dt:dt=""string"">E-Prime Primary Realtime Clock</Description><StartTime><Timestamp dt:dt=""int"">0</Timestamp><DateUtc dt:dt=""string"">2015-04-15T20:06:23Z</DateUtc></StartTime><FrequencyChanges><FrequencyChange><Frequency dt:dt=""r8"">2825625</Frequency><Timestamp dt:dt=""r8"">297840400673</Timestamp><Current dt:dt=""r8"">0</Current><DateUtc dt:dt=""string"">2015-04-15T20:06:23Z</DateUtc></FrequencyChange></FrequencyChanges></Clock>\n"	Arrow Flanker 2014-12187-1	60.017	1.0.0.100	1	1488228433	Professional	2.0.10.353	2.0.10.353	04-15-2015	4/15/2015 8:06:23 PM	16:06:23	2.0.10.248	3	1	1	1	NA	NA	NA	NA	NA	NA	NA	NA	NA	NA	NA	NA	NA	NA	NA	NA	NA	NA	NA	NA	NA	NA	NA	NA	BlockProc	BlockList	NA	67	{LEFTARROW}	NA	-100	1562	congruent	NA	NA	NA	NA	NA	NA	NA	NA	NA	NA	NA	NA	NA	NA	NA	NA	NA	NA	NA	NA	NA	NA	TrialProc	TrialList	1	17	444786	17	0	17	443154	0	1	{LEFTARROW}	-999999	0	444253	0	{LEFTARROW}	515	444768	NA	NA	left	lllll.bmp	354	0	NA	0	0	0	0	NA	0	0	0	NA	0	0	0	0	NA	0	0	1	1	67
Arrow Flanker 2014	12187	1	"<?xml version=""1.0""?>\n<Clock xmlns:dt=""urn:schemas-microsoft-com:datatypes""><Description dt:dt=""string"">E-Prime Primary Realtime Clock</Description><StartTime><Timestamp dt:dt=""int"">0</Timestamp><DateUtc dt:dt=""string"">2015-04-15T20:06:23Z</DateUtc></StartTime><FrequencyChanges><FrequencyChange><Frequency dt:dt=""r8"">2825625</Frequency><Timestamp dt:dt=""r8"">297840400673</Timestamp><Current dt:dt=""r8"">0</Current><DateUtc dt:dt=""string"">2015-04-15T20:06:23Z</DateUtc></FrequencyChange></FrequencyChanges></Clock>\n"	Arrow Flanker 2014-12187-1	60.017	1.0.0.100	1	1488228433	Professional	2.0.10.353	2.0.10.353	04-15-2015	4/15/2015 8:06:23 PM	16:06:23	2.0.10.248	3	1	1	1	NA	NA	NA	NA	NA	NA	NA	NA	NA	NA	NA	NA	NA	NA	NA	NA	NA	NA	NA	NA	NA	NA	NA	NA	BlockProc	BlockList	NA	68	{RIGHTARROW}	NA	-100	1507	neutral	NA	NA	NA	NA	NA	NA	NA	NA	NA	NA	NA	NA	NA	NA	NA	NA	NA	NA	NA	NA	NA	NA	TrialProc	TrialList	0	6	447719	17	0	17	445320	0	1	{RIGHTARROW}	-999999	0	447236	0	{RIGHTARROW}	476	447712	NA	NA	right	ooroo.bmp	354	0	NA	0	0	0	0	NA	0	0	0	NA	0	0	0	0	NA	0	0	6	1	68
Arrow Flanker 2014	12187	1	"<?xml version=""1.0""?>\n<Clock xmlns:dt=""urn:schemas-microsoft-com:datatypes""><Description dt:dt=""string"">E-Prime Primary Realtime Clock</Description><StartTime><Timestamp dt:dt=""int"">0</Timestamp><DateUtc dt:dt=""string"">2015-04-15T20:06:23Z</DateUtc></StartTime><FrequencyChanges><FrequencyChange><Frequency dt:dt=""r8"">2825625</Frequency><Timestamp dt:dt=""r8"">297840400673</Timestamp><Current dt:dt=""r8"">0</Current><DateUtc dt:dt=""string"">2015-04-15T20:06:23Z</DateUtc></FrequencyChange></FrequencyChanges></Clock>\n"	Arrow Flanker 2014-12187-1	60.017	1.0.0.100	1	1488228433	Professional	2.0.10.353	2.0.10.353	04-15-2015	4/15/2015 8:06:23 PM	16:06:23	2.0.10.248	3	1	1	1	NA	NA	NA	NA	NA	NA	NA	NA	NA	NA	NA	NA	NA	NA	NA	NA	NA	NA	NA	NA	NA	NA	NA	NA	BlockProc	BlockList	NA	69	{LEFTARROW}	NA	-100	2093	congruent	NA	NA	NA	NA	NA	NA	NA	NA	NA	NA	NA	NA	NA	NA	NA	NA	NA	NA	NA	NA	NA	NA	TrialProc	TrialList	0	7	450535	16	0	16	448252	0	1	{LEFTARROW}	-999999	0	450068	0	{LEFTARROW}	460	450528	NA	NA	left	lllll.bmp	354	0	NA	0	0	0	0	NA	0	0	0	NA	0	0	0	0	NA	0	0	1	1	69
Arrow Flanker 2014	12187	1	"<?xml version=""1.0""?>\n<Clock xmlns:dt=""urn:schemas-microsoft-com:datatypes""><Description dt:dt=""string"">E-Prime Primary Realtime Clock</Description><StartTime><Timestamp dt:dt=""int"">0</Timestamp><DateUtc dt:dt=""string"">2015-04-15T20:06:23Z</DateUtc></StartTime><FrequencyChanges><FrequencyChange><Frequency dt:dt=""r8"">2825625</Frequency><Timestamp dt:dt=""r8"">297840400673</Timestamp><Current dt:dt=""r8"">0</Current><DateUtc dt:dt=""string"">2015-04-15T20:06:23Z</DateUtc></FrequencyChange></FrequencyChanges></Clock>\n"	Arrow Flanker 2014-12187-1	60.017	1.0.0.100	1	1488228433	Professional	2.0.10.353	2.0.10.353	04-15-2015	4/15/2015 8:06:23 PM	16:06:23	2.0.10.248	3	1	1	1	NA	NA	NA	NA	NA	NA	NA	NA	NA	NA	NA	NA	NA	NA	NA	NA	NA	NA	NA	NA	NA	NA	NA	NA	BlockProc	BlockList	NA	70	{RIGHTARROW}	NA	-100	2032	incongruent	NA	NA	NA	NA	NA	NA	NA	NA	NA	NA	NA	NA	NA	NA	NA	NA	NA	NA	NA	NA	3	1	TrialProc	TrialList	0	6	453734	17	0	17	451068	0	1	{RIGHTARROW}	-999999	0	453167	0	{RIGHTARROW}	561	453728	NA	NA	right	llrll.bmp	354	0	NA	-999999	16	454267	0	1	4021	458288	0	NA	-999999	11	458299	0	1	1573	459872	4	1	70
Arrow Flanker 2014	12187	1	"<?xml version=""1.0""?>\n<Clock xmlns:dt=""urn:schemas-microsoft-com:datatypes""><Description dt:dt=""string"">E-Prime Primary Realtime Clock</Description><StartTime><Timestamp dt:dt=""int"">0</Timestamp><DateUtc dt:dt=""string"">2015-04-15T20:06:23Z</DateUtc></StartTime><FrequencyChanges><FrequencyChange><Frequency dt:dt=""r8"">2825625</Frequency><Timestamp dt:dt=""r8"">297840400673</Timestamp><Current dt:dt=""r8"">0</Current><DateUtc dt:dt=""string"">2015-04-15T20:06:23Z</DateUtc></FrequencyChange></FrequencyChanges></Clock>\n"	Arrow Flanker 2014-12187-1	60.017	1.0.0.100	1	1488228433	Professional	2.0.10.353	2.0.10.353	04-15-2015	4/15/2015 8:06:23 PM	16:06:23	2.0.10.248	3	1	1	1	NA	NA	NA	NA	NA	NA	NA	NA	NA	NA	NA	NA	NA	NA	NA	NA	NA	NA	NA	NA	NA	NA	NA	NA	BlockProc	BlockList	NA	71	{LEFTARROW}	NA	-100	1743	congruent	NA	NA	NA	NA	NA	NA	NA	NA	NA	NA	NA	NA	NA	NA	NA	NA	NA	NA	NA	NA	NA	NA	TrialProc	TrialList	1	18	463714	17	0	27	461115	0	1	{LEFTARROW}	-999999	0	462931	0	{LEFTARROW}	764	463695	NA	NA	left	lllll.bmp	354	0	NA	0	0	0	0	NA	0	0	0	NA	0	0	0	0	NA	0	0	1	1	71
Arrow Flanker 2014	12187	1	"<?xml version=""1.0""?>\n<Clock xmlns:dt=""urn:schemas-microsoft-com:datatypes""><Description dt:dt=""string"">E-Prime Primary Realtime Clock</Description><StartTime><Timestamp dt:dt=""int"">0</Timestamp><DateUtc dt:dt=""string"">2015-04-15T20:06:23Z</DateUtc></StartTime><FrequencyChanges><FrequencyChange><Frequency dt:dt=""r8"">2825625</Frequency><Timestamp dt:dt=""r8"">297840400673</Timestamp><Current dt:dt=""r8"">0</Current><DateUtc dt:dt=""string"">2015-04-15T20:06:23Z</DateUtc></FrequencyChange></FrequencyChanges></Clock>\n"	Arrow Flanker 2014-12187-1	60.017	1.0.0.100	1	1488228433	Professional	2.0.10.353	2.0.10.353	04-15-2015	4/15/2015 8:06:23 PM	16:06:23	2.0.10.248	3	1	1	1	NA	NA	NA	NA	NA	NA	NA	NA	NA	NA	NA	NA	NA	NA	NA	NA	NA	NA	NA	NA	NA	NA	NA	NA	BlockProc	BlockList	NA	72	{LEFTARROW}	NA	-100	640	neutral	NA	NA	NA	NA	NA	NA	NA	NA	NA	NA	NA	NA	NA	NA	NA	NA	NA	NA	NA	NA	NA	NA	TrialProc	TrialList	1	16	465680	17	0	17	464248	0	1	{LEFTARROW}	-999999	0	465197	0	{LEFTARROW}	466	465663	NA	NA	left	ooloo.bmp	354	0	NA	0	0	0	0	NA	0	0	0	NA	0	0	0	0	NA	0	0	5	1	72
