ExperimentName	Subject	Session	Clock.Information	DataFile.Basename	Display.RefreshRate	ExperimentVersion	Group	RandomSeed	RuntimeCapabilities	RuntimeVersion	RuntimeVersionExpected	SessionDate	SessionStartDateTimeUtc	SessionTime	StudioVersion	Block	BlockList	BlockList.Cycle	BlockList.Sample	Both	CompletelyMW	CongMeanRT	CongTotal	Fragmented	GoodByeList	GoodByeList.Cycle	GoodByeList.Sample	IncongMeanRT	IncongTotal	MapBlockList	MapBlockList.Cycle	MapBlockList.Sample	Mindwandering	MostlyMW	MostlyOT	NeutralMeanRT	NeutralTotal	NumberProbes1	NumberProbes2	OnTask	PracBlockList	PracBlockList.Cycle	PracBlockList.Sample	Procedure[Block]	Running[Block]	Sequential	Trial	CorrectAnswer	CuePositionY	CuePositionY2	DurationOfFixation	FlankerType	MapTrialList	MapTrialList.Cycle	MapTrialList.Sample	PracSlideFixationStart.DurationError	PracSlideFixationStart.OnsetDelay	PracSlideFixationStart.OnsetTime	PracSlideFixationStart.OnsetToOnsetTime	PracSlideTarget.ACC	PracSlideTarget.CRESP	PracSlideTarget.DurationError	PracSlideTarget.OnsetDelay	PracSlideTarget.OnsetTime	PracSlideTarget.OnsetToOnsetTime	PracSlideTarget.RESP	PracSlideTarget.RT	PracSlideTarget.RTTime	PracSlideTarget.Tag	PracTrialList	PracTrialList.Cycle	PracTrialList.Sample	Probe1Resp	Probe2Resp	Procedure[Trial]	Running[Trial]	SlideFixationEnd.DurationError	SlideFixationEnd.OnsetDelay	SlideFixationEnd.OnsetTime	SlideFixationEnd.OnsetToOnsetTime	SlideFixationStart.DurationError	SlideFixationStart.OnsetDelay	SlideFixationStart.OnsetTime	SlideFixationStart.OnsetToOnsetTime	SlideTarget.ACC	SlideTarget.CRESP	SlideTarget.DurationError	SlideTarget.OnsetDelay	SlideTarget.OnsetTime	SlideTarget.OnsetToOnsetTime	SlideTarget.RESP	SlideTarget.RT	SlideTarget.RTTime	SlideTarget.Tag	TargerDirection	TargetDirection	TargetImage	TargetPosition	ThoughtProbe1.ACC	ThoughtProbe1.CRESP	ThoughtProbe1.DurationError	ThoughtProbe1.OnsetDelay	ThoughtProbe1.OnsetTime	ThoughtProbe1.OnsetToOnsetTime	ThoughtProbe1.RESP	ThoughtProbe1.RT	ThoughtProbe1.RTTime	ThoughtProbe2.ACC	ThoughtProbe2.CRESP	ThoughtProbe2.DurationError	ThoughtProbe2.OnsetDelay	ThoughtProbe2.OnsetTime	ThoughtProbe2.OnsetToOnsetTime	ThoughtProbe2.RESP	ThoughtProbe2.RT	ThoughtProbe2.RTTime	TrialList	TrialList.Cycle	TrialList.Sample
Arrow Flanker 2014	12183	1	"<?xml version=""1.0""?>\n<Clock xmlns:dt=""urn:schemas-microsoft-com:datatypes""><Description dt:dt=""string"">E-Prime Primary Realtime Clock</Description><StartTime><Timestamp dt:dt=""int"">0</Timestamp><DateUtc dt:dt=""string"">2015-04-14T20:52:40Z</DateUtc></StartTime><FrequencyChanges><FrequencyChange><Frequency dt:dt=""r8"">2825654</Frequency><Timestamp dt:dt=""r8"">3218775145837</Timestamp><Current dt:dt=""r8"">0</Current><DateUtc dt:dt=""string"">2015-04-14T20:52:40Z</DateUtc></FrequencyChange></FrequencyChanges></Clock>\n"	Arrow Flanker 2014-12183-1	60.018	1.0.0.100	1	1845212477	Professional	2.0.10.353	2.0.10.353	04-14-2015	4/14/2015 8:52:41 PM	16:52:41	2.0.10.248	1	NA	NA	NA	NA	NA	NA	NA	NA	NA	NA	NA	NA	NA	1	1	1	NA	NA	NA	NA	NA	NA	NA	NA	NA	NA	NA	MapBlockProc	MapBlockList	NA	1	{RIGHTARROW}	-100	NA	1489	NA	2	1	1	0	20	150396	1499	0	{RIGHTARROW}	0	0	152395	1700	NA	0	0	NA	NA	NA	NA	NA	NA	MapTrialProc	MapTrialList	NA	NA	NA	NA	NA	NA	NA	NA	NA	NA	NA	NA	NA	NA	NA	NA	NA	NA	right	NA	R.bmp	354	NA	NA	NA	NA	NA	NA	NA	NA	NA	NA	NA	NA	NA	NA	NA	NA	NA	NA	NA	NA	NA
Arrow Flanker 2014	12183	1	"<?xml version=""1.0""?>\n<Clock xmlns:dt=""urn:schemas-microsoft-com:datatypes""><Description dt:dt=""string"">E-Prime Primary Realtime Clock</Description><StartTime><Timestamp dt:dt=""int"">0</Timestamp><DateUtc dt:dt=""string"">2015-04-14T20:52:40Z</DateUtc></StartTime><FrequencyChanges><FrequencyChange><Frequency dt:dt=""r8"">2825654</Frequency><Timestamp dt:dt=""r8"">3218775145837</Timestamp><Current dt:dt=""r8"">0</Current><DateUtc dt:dt=""string"">2015-04-14T20:52:40Z</DateUtc></FrequencyChange></FrequencyChanges></Clock>\n"	Arrow Flanker 2014-12183-1	60.018	1.0.0.100	1	1845212477	Professional	2.0.10.353	2.0.10.353	04-14-2015	4/14/2015 8:52:41 PM	16:52:41	2.0.10.248	1	NA	NA	NA	NA	NA	NA	NA	NA	NA	NA	NA	NA	NA	1	1	1	NA	NA	NA	NA	NA	NA	NA	NA	NA	NA	NA	MapBlockProc	MapBlockList	NA	2	{LEFTARROW}	-100	NA	453	NA	1	1	2	0	16	155611	466	0	{LEFTARROW}	0	0	156577	1700	NA	0	0	NA	NA	NA	NA	NA	NA	MapTrialProc	MapTrialList	NA	NA	NA	NA	NA	NA	NA	NA	NA	NA	NA	NA	NA	NA	NA	NA	NA	NA	left	NA	L.bmp	354	NA	NA	NA	NA	NA	NA	NA	NA	NA	NA	NA	NA	NA	NA	NA	NA	NA	NA	NA	NA	NA
Arrow Flanker 2014	12183	1	"<?xml version=""1.0""?>\n<Clock xmlns:dt=""urn:schemas-microsoft-com:datatypes""><Description dt:dt=""string"">E-Prime Primary Realtime Clock</Description><StartTime><Timestamp dt:dt=""int"">0</Timestamp><DateUtc dt:dt=""string"">2015-04-14T20:52:40Z</DateUtc></StartTime><FrequencyChanges><FrequencyChange><Frequency dt:dt=""r8"">2825654</Frequency><Timestamp dt:dt=""r8"">3218775145837</Timestamp><Current dt:dt=""r8"">0</Current><DateUtc dt:dt=""string"">2015-04-14T20:52:40Z</DateUtc></FrequencyChange></FrequencyChanges></Clock>\n"	Arrow Flanker 2014-12183-1	60.018	1.0.0.100	1	1845212477	Professional	2.0.10.353	2.0.10.353	04-14-2015	4/14/2015 8:52:41 PM	16:52:41	2.0.10.248	1	NA	NA	NA	NA	NA	NA	NA	NA	NA	NA	NA	NA	NA	1	1	1	NA	NA	NA	NA	NA	NA	NA	NA	NA	NA	NA	MapBlockProc	MapBlockList	NA	3	{RIGHTARROW}	-100	NA	732	NA	2	1	3	0	16	159793	733	0	{RIGHTARROW}	0	0	161026	1700	NA	0	0	NA	NA	NA	NA	NA	NA	MapTrialProc	MapTrialList	NA	NA	NA	NA	NA	NA	NA	NA	NA	NA	NA	NA	NA	NA	NA	NA	NA	NA	right	NA	R.bmp	354	NA	NA	NA	NA	NA	NA	NA	NA	NA	NA	NA	NA	NA	NA	NA	NA	NA	NA	NA	NA	NA
Arrow Flanker 2014	12183	1	"<?xml version=""1.0""?>\n<Clock xmlns:dt=""urn:schemas-microsoft-com:datatypes""><Description dt:dt=""string"">E-Prime Primary Realtime Clock</Description><StartTime><Timestamp dt:dt=""int"">0</Timestamp><DateUtc dt:dt=""string"">2015-04-14T20:52:40Z</DateUtc></StartTime><FrequencyChanges><FrequencyChange><Frequency dt:dt=""r8"">2825654</Frequency><Timestamp dt:dt=""r8"">3218775145837</Timestamp><Current dt:dt=""r8"">0</Current><DateUtc dt:dt=""string"">2015-04-14T20:52:40Z</DateUtc></FrequencyChange></FrequencyChanges></Clock>\n"	Arrow Flanker 2014-12183-1	60.018	1.0.0.100	1	1845212477	Professional	2.0.10.353	2.0.10.353	04-14-2015	4/14/2015 8:52:41 PM	16:52:41	2.0.10.248	1	NA	NA	NA	NA	NA	NA	NA	NA	NA	NA	NA	NA	NA	1	1	1	NA	NA	NA	NA	NA	NA	NA	NA	NA	NA	NA	MapBlockProc	MapBlockList	NA	4	{RIGHTARROW}	-100	NA	803	NA	2	1	4	0	16	164242	816	0	{RIGHTARROW}	0	0	165558	1716	NA	0	0	NA	NA	NA	NA	NA	NA	MapTrialProc	MapTrialList	NA	NA	NA	NA	NA	NA	NA	NA	NA	NA	NA	NA	NA	NA	NA	NA	NA	NA	right	NA	R.bmp	354	NA	NA	NA	NA	NA	NA	NA	NA	NA	NA	NA	NA	NA	NA	NA	NA	NA	NA	NA	NA	NA
Arrow Flanker 2014	12183	1	"<?xml version=""1.0""?>\n<Clock xmlns:dt=""urn:schemas-microsoft-com:datatypes""><Description dt:dt=""string"">E-Prime Primary Realtime Clock</Description><StartTime><Timestamp dt:dt=""int"">0</Timestamp><DateUtc dt:dt=""string"">2015-04-14T20:52:40Z</DateUtc></StartTime><FrequencyChanges><FrequencyChange><Frequency dt:dt=""r8"">2825654</Frequency><Timestamp dt:dt=""r8"">3218775145837</Timestamp><Current dt:dt=""r8"">0</Current><DateUtc dt:dt=""string"">2015-04-14T20:52:40Z</DateUtc></FrequencyChange></FrequencyChanges></Clock>\n"	Arrow Flanker 2014-12183-1	60.018	1.0.0.100	1	1845212477	Professional	2.0.10.353	2.0.10.353	04-14-2015	4/14/2015 8:52:41 PM	16:52:41	2.0.10.248	1	NA	NA	NA	NA	NA	NA	NA	NA	NA	NA	NA	NA	NA	1	1	1	NA	NA	NA	NA	NA	NA	NA	NA	NA	NA	NA	MapBlockProc	MapBlockList	NA	5	{RIGHTARROW}	-100	NA	879	NA	2	1	5	0	16	168790	883	0	{RIGHTARROW}	0	0	170173	1700	NA	0	0	NA	NA	NA	NA	NA	NA	MapTrialProc	MapTrialList	NA	NA	NA	NA	NA	NA	NA	NA	NA	NA	NA	NA	NA	NA	NA	NA	NA	NA	right	NA	R.bmp	354	NA	NA	NA	NA	NA	NA	NA	NA	NA	NA	NA	NA	NA	NA	NA	NA	NA	NA	NA	NA	NA
Arrow Flanker 2014	12183	1	"<?xml version=""1.0""?>\n<Clock xmlns:dt=""urn:schemas-microsoft-com:datatypes""><Description dt:dt=""string"">E-Prime Primary Realtime Clock</Description><StartTime><Timestamp dt:dt=""int"">0</Timestamp><DateUtc dt:dt=""string"">2015-04-14T20:52:40Z</DateUtc></StartTime><FrequencyChanges><FrequencyChange><Frequency dt:dt=""r8"">2825654</Frequency><Timestamp dt:dt=""r8"">3218775145837</Timestamp><Current dt:dt=""r8"">0</Current><DateUtc dt:dt=""string"">2015-04-14T20:52:40Z</DateUtc></FrequencyChange></FrequencyChanges></Clock>\n"	Arrow Flanker 2014-12183-1	60.018	1.0.0.100	1	1845212477	Professional	2.0.10.353	2.0.10.353	04-14-2015	4/14/2015 8:52:41 PM	16:52:41	2.0.10.248	1	NA	NA	NA	NA	NA	NA	NA	NA	NA	NA	NA	NA	NA	1	1	1	NA	NA	NA	NA	NA	NA	NA	NA	NA	NA	NA	MapBlockProc	MapBlockList	NA	6	{LEFTARROW}	-100	NA	1087	NA	1	1	6	0	16	173389	1100	1	{LEFTARROW}	-999999	0	174989	0	{LEFTARROW}	393	175382	NA	NA	NA	NA	NA	NA	MapTrialProc	MapTrialList	NA	NA	NA	NA	NA	NA	NA	NA	NA	NA	NA	NA	NA	NA	NA	NA	NA	NA	left	NA	L.bmp	354	NA	NA	NA	NA	NA	NA	NA	NA	NA	NA	NA	NA	NA	NA	NA	NA	NA	NA	NA	NA	NA
Arrow Flanker 2014	12183	1	"<?xml version=""1.0""?>\n<Clock xmlns:dt=""urn:schemas-microsoft-com:datatypes""><Description dt:dt=""string"">E-Prime Primary Realtime Clock</Description><StartTime><Timestamp dt:dt=""int"">0</Timestamp><DateUtc dt:dt=""string"">2015-04-14T20:52:40Z</DateUtc></StartTime><FrequencyChanges><FrequencyChange><Frequency dt:dt=""r8"">2825654</Frequency><Timestamp dt:dt=""r8"">3218775145837</Timestamp><Current dt:dt=""r8"">0</Current><DateUtc dt:dt=""string"">2015-04-14T20:52:40Z</DateUtc></FrequencyChange></FrequencyChanges></Clock>\n"	Arrow Flanker 2014-12183-1	60.018	1.0.0.100	1	1845212477	Professional	2.0.10.353	2.0.10.353	04-14-2015	4/14/2015 8:52:41 PM	16:52:41	2.0.10.248	1	NA	NA	NA	NA	NA	NA	NA	NA	NA	NA	NA	NA	NA	1	1	1	NA	NA	NA	NA	NA	NA	NA	NA	NA	NA	NA	MapBlockProc	MapBlockList	NA	7	{LEFTARROW}	-100	NA	1398	NA	1	1	7	0	16	176921	1400	1	{LEFTARROW}	-999999	0	178821	0	{LEFTARROW}	465	179286	NA	NA	NA	NA	NA	NA	MapTrialProc	MapTrialList	NA	NA	NA	NA	NA	NA	NA	NA	NA	NA	NA	NA	NA	NA	NA	NA	NA	NA	left	NA	L.bmp	354	NA	NA	NA	NA	NA	NA	NA	NA	NA	NA	NA	NA	NA	NA	NA	NA	NA	NA	NA	NA	NA
Arrow Flanker 2014	12183	1	"<?xml version=""1.0""?>\n<Clock xmlns:dt=""urn:schemas-microsoft-com:datatypes""><Description dt:dt=""string"">E-Prime Primary Realtime Clock</Description><StartTime><Timestamp dt:dt=""int"">0</Timestamp><DateUtc dt:dt=""string"">2015-04-14T20:52:40Z</DateUtc></StartTime><FrequencyChanges><FrequencyChange><Frequency dt:dt=""r8"">2825654</Frequency><Timestamp dt:dt=""r8"">3218775145837</Timestamp><Current dt:dt=""r8"">0</Current><DateUtc dt:dt=""string"">2015-04-14T20:52:40Z</DateUtc></FrequencyChange></FrequencyChanges></Clock>\n"	Arrow Flanker 2014-12183-1	60.018	1.0.0.100	1	1845212477	Professional	2.0.10.353	2.0.10.353	04-14-2015	4/14/2015 8:52:41 PM	16:52:41	2.0.10.248	1	NA	NA	NA	NA	NA	NA	NA	NA	NA	NA	NA	NA	NA	1	1	1	NA	NA	NA	NA	NA	NA	NA	NA	NA	NA	NA	MapBlockProc	MapBlockList	NA	8	{LEFTARROW}	-100	NA	1597	NA	1	1	8	0	16	180820	1600	1	{LEFTARROW}	-999999	0	182920	0	{LEFTARROW}	766	183686	NA	NA	NA	NA	NA	NA	MapTrialProc	MapTrialList	NA	NA	NA	NA	NA	NA	NA	NA	NA	NA	NA	NA	NA	NA	NA	NA	NA	NA	left	NA	L.bmp	354	NA	NA	NA	NA	NA	NA	NA	NA	NA	NA	NA	NA	NA	NA	NA	NA	NA	NA	NA	NA	NA
Arrow Flanker 2014	12183	1	"<?xml version=""1.0""?>\n<Clock xmlns:dt=""urn:schemas-microsoft-com:datatypes""><Description dt:dt=""string"">E-Prime Primary Realtime Clock</Description><StartTime><Timestamp dt:dt=""int"">0</Timestamp><DateUtc dt:dt=""string"">2015-04-14T20:52:40Z</DateUtc></StartTime><FrequencyChanges><FrequencyChange><Frequency dt:dt=""r8"">2825654</Frequency><Timestamp dt:dt=""r8"">3218775145837</Timestamp><Current dt:dt=""r8"">0</Current><DateUtc dt:dt=""string"">2015-04-14T20:52:40Z</DateUtc></FrequencyChange></FrequencyChanges></Clock>\n"	Arrow Flanker 2014-12183-1	60.018	1.0.0.100	1	1845212477	Professional	2.0.10.353	2.0.10.353	04-14-2015	4/14/2015 8:52:41 PM	16:52:41	2.0.10.248	1	NA	NA	NA	NA	NA	NA	NA	NA	NA	NA	NA	NA	NA	1	1	1	NA	NA	NA	NA	NA	NA	NA	NA	NA	NA	NA	MapBlockProc	MapBlockList	NA	9	{LEFTARROW}	-100	NA	703	NA	1	1	9	0	16	185219	716	1	{LEFTARROW}	-999999	0	186435	0	{LEFTARROW}	467	186902	NA	NA	NA	NA	NA	NA	MapTrialProc	MapTrialList	NA	NA	NA	NA	NA	NA	NA	NA	NA	NA	NA	NA	NA	NA	NA	NA	NA	NA	left	NA	L.bmp	354	NA	NA	NA	NA	NA	NA	NA	NA	NA	NA	NA	NA	NA	NA	NA	NA	NA	NA	NA	NA	NA
Arrow Flanker 2014	12183	1	"<?xml version=""1.0""?>\n<Clock xmlns:dt=""urn:schemas-microsoft-com:datatypes""><Description dt:dt=""string"">E-Prime Primary Realtime Clock</Description><StartTime><Timestamp dt:dt=""int"">0</Timestamp><DateUtc dt:dt=""string"">2015-04-14T20:52:40Z</DateUtc></StartTime><FrequencyChanges><FrequencyChange><Frequency dt:dt=""r8"">2825654</Frequency><Timestamp dt:dt=""r8"">3218775145837</Timestamp><Current dt:dt=""r8"">0</Current><DateUtc dt:dt=""string"">2015-04-14T20:52:40Z</DateUtc></FrequencyChange></FrequencyChanges></Clock>\n"	Arrow Flanker 2014-12183-1	60.018	1.0.0.100	1	1845212477	Professional	2.0.10.353	2.0.10.353	04-14-2015	4/14/2015 8:52:41 PM	16:52:41	2.0.10.248	1	NA	NA	NA	NA	NA	NA	NA	NA	NA	NA	NA	NA	NA	1	1	1	NA	NA	NA	NA	NA	NA	NA	NA	NA	NA	NA	MapBlockProc	MapBlockList	NA	10	{RIGHTARROW}	-100	NA	1243	NA	2	1	10	0	17	188435	1249	1	{RIGHTARROW}	-999999	0	190184	0	{RIGHTARROW}	349	190533	NA	NA	NA	NA	NA	NA	MapTrialProc	MapTrialList	NA	NA	NA	NA	NA	NA	NA	NA	NA	NA	NA	NA	NA	NA	NA	NA	NA	NA	right	NA	R.bmp	354	NA	NA	NA	NA	NA	NA	NA	NA	NA	NA	NA	NA	NA	NA	NA	NA	NA	NA	NA	NA	NA
Arrow Flanker 2014	12183	1	"<?xml version=""1.0""?>\n<Clock xmlns:dt=""urn:schemas-microsoft-com:datatypes""><Description dt:dt=""string"">E-Prime Primary Realtime Clock</Description><StartTime><Timestamp dt:dt=""int"">0</Timestamp><DateUtc dt:dt=""string"">2015-04-14T20:52:40Z</DateUtc></StartTime><FrequencyChanges><FrequencyChange><Frequency dt:dt=""r8"">2825654</Frequency><Timestamp dt:dt=""r8"">3218775145837</Timestamp><Current dt:dt=""r8"">0</Current><DateUtc dt:dt=""string"">2015-04-14T20:52:40Z</DateUtc></FrequencyChange></FrequencyChanges></Clock>\n"	Arrow Flanker 2014-12183-1	60.018	1.0.0.100	1	1845212477	Professional	2.0.10.353	2.0.10.353	04-14-2015	4/14/2015 8:52:41 PM	16:52:41	2.0.10.248	2	NA	NA	NA	NA	NA	NA	NA	NA	NA	NA	NA	NA	NA	NA	NA	NA	NA	NA	NA	NA	NA	NA	NA	NA	1	1	1	PracBlockProc	PracBlockList	NA	1	{LEFTARROW}	-100	NA	493	incongruent	NA	NA	NA	0	10	203263	500	0	{LEFTARROW}	-999999	0	204263	0	{RIGHTARROW}	1117	205380	NA	2	1	1	NA	NA	PracTrialProc	PracTrialList	NA	NA	NA	NA	NA	NA	NA	NA	NA	NA	NA	NA	NA	NA	NA	NA	NA	NA	left	NA	rrlrr.bmp	354	NA	NA	NA	NA	NA	NA	NA	NA	NA	NA	NA	NA	NA	NA	NA	NA	NA	NA	NA	NA	NA
Arrow Flanker 2014	12183	1	"<?xml version=""1.0""?>\n<Clock xmlns:dt=""urn:schemas-microsoft-com:datatypes""><Description dt:dt=""string"">E-Prime Primary Realtime Clock</Description><StartTime><Timestamp dt:dt=""int"">0</Timestamp><DateUtc dt:dt=""string"">2015-04-14T20:52:40Z</DateUtc></StartTime><FrequencyChanges><FrequencyChange><Frequency dt:dt=""r8"">2825654</Frequency><Timestamp dt:dt=""r8"">3218775145837</Timestamp><Current dt:dt=""r8"">0</Current><DateUtc dt:dt=""string"">2015-04-14T20:52:40Z</DateUtc></FrequencyChange></FrequencyChanges></Clock>\n"	Arrow Flanker 2014-12183-1	60.018	1.0.0.100	1	1845212477	Professional	2.0.10.353	2.0.10.353	04-14-2015	4/14/2015 8:52:41 PM	16:52:41	2.0.10.248	2	NA	NA	NA	NA	NA	NA	NA	NA	NA	NA	NA	NA	NA	NA	NA	NA	NA	NA	NA	NA	NA	NA	NA	NA	1	1	1	PracBlockProc	PracBlockList	NA	2	{LEFTARROW}	-100	NA	504	congruent	NA	NA	NA	0	16	206912	517	1	{LEFTARROW}	-999999	0	207929	0	{LEFTARROW}	667	208596	NA	1	1	2	NA	NA	PracTrialProc	PracTrialList	NA	NA	NA	NA	NA	NA	NA	NA	NA	NA	NA	NA	NA	NA	NA	NA	NA	NA	left	NA	lllll.bmp	354	NA	NA	NA	NA	NA	NA	NA	NA	NA	NA	NA	NA	NA	NA	NA	NA	NA	NA	NA	NA	NA
Arrow Flanker 2014	12183	1	"<?xml version=""1.0""?>\n<Clock xmlns:dt=""urn:schemas-microsoft-com:datatypes""><Description dt:dt=""string"">E-Prime Primary Realtime Clock</Description><StartTime><Timestamp dt:dt=""int"">0</Timestamp><DateUtc dt:dt=""string"">2015-04-14T20:52:40Z</DateUtc></StartTime><FrequencyChanges><FrequencyChange><Frequency dt:dt=""r8"">2825654</Frequency><Timestamp dt:dt=""r8"">3218775145837</Timestamp><Current dt:dt=""r8"">0</Current><DateUtc dt:dt=""string"">2015-04-14T20:52:40Z</DateUtc></FrequencyChange></FrequencyChanges></Clock>\n"	Arrow Flanker 2014-12183-1	60.018	1.0.0.100	1	1845212477	Professional	2.0.10.353	2.0.10.353	04-14-2015	4/14/2015 8:52:41 PM	16:52:41	2.0.10.248	2	NA	NA	NA	NA	NA	NA	NA	NA	NA	NA	NA	NA	NA	NA	NA	NA	NA	NA	NA	NA	NA	NA	NA	NA	1	1	1	PracBlockProc	PracBlockList	NA	3	{RIGHTARROW}	-100	NA	916	neutral	NA	NA	NA	0	16	210128	916	0	{RIGHTARROW}	0	16	211561	1699	NA	0	0	NA	6	1	3	NA	NA	PracTrialProc	PracTrialList	NA	NA	NA	NA	NA	NA	NA	NA	NA	NA	NA	NA	NA	NA	NA	NA	NA	NA	right	NA	ooroo.bmp	354	NA	NA	NA	NA	NA	NA	NA	NA	NA	NA	NA	NA	NA	NA	NA	NA	NA	NA	NA	NA	NA
Arrow Flanker 2014	12183	1	"<?xml version=""1.0""?>\n<Clock xmlns:dt=""urn:schemas-microsoft-com:datatypes""><Description dt:dt=""string"">E-Prime Primary Realtime Clock</Description><StartTime><Timestamp dt:dt=""int"">0</Timestamp><DateUtc dt:dt=""string"">2015-04-14T20:52:40Z</DateUtc></StartTime><FrequencyChanges><FrequencyChange><Frequency dt:dt=""r8"">2825654</Frequency><Timestamp dt:dt=""r8"">3218775145837</Timestamp><Current dt:dt=""r8"">0</Current><DateUtc dt:dt=""string"">2015-04-14T20:52:40Z</DateUtc></FrequencyChange></FrequencyChanges></Clock>\n"	Arrow Flanker 2014-12183-1	60.018	1.0.0.100	1	1845212477	Professional	2.0.10.353	2.0.10.353	04-14-2015	4/14/2015 8:52:41 PM	16:52:41	2.0.10.248	2	NA	NA	NA	NA	NA	NA	NA	NA	NA	NA	NA	NA	NA	NA	NA	NA	NA	NA	NA	NA	NA	NA	NA	NA	1	1	1	PracBlockProc	PracBlockList	NA	4	{LEFTARROW}	-100	NA	797	neutral	NA	NA	NA	0	17	214777	800	0	{LEFTARROW}	0	0	216076	1700	NA	0	0	NA	3	1	4	NA	NA	PracTrialProc	PracTrialList	NA	NA	NA	NA	NA	NA	NA	NA	NA	NA	NA	NA	NA	NA	NA	NA	NA	NA	left	NA	ooloo.bmp	354	NA	NA	NA	NA	NA	NA	NA	NA	NA	NA	NA	NA	NA	NA	NA	NA	NA	NA	NA	NA	NA
Arrow Flanker 2014	12183	1	"<?xml version=""1.0""?>\n<Clock xmlns:dt=""urn:schemas-microsoft-com:datatypes""><Description dt:dt=""string"">E-Prime Primary Realtime Clock</Description><StartTime><Timestamp dt:dt=""int"">0</Timestamp><DateUtc dt:dt=""string"">2015-04-14T20:52:40Z</DateUtc></StartTime><FrequencyChanges><FrequencyChange><Frequency dt:dt=""r8"">2825654</Frequency><Timestamp dt:dt=""r8"">3218775145837</Timestamp><Current dt:dt=""r8"">0</Current><DateUtc dt:dt=""string"">2015-04-14T20:52:40Z</DateUtc></FrequencyChange></FrequencyChanges></Clock>\n"	Arrow Flanker 2014-12183-1	60.018	1.0.0.100	1	1845212477	Professional	2.0.10.353	2.0.10.353	04-14-2015	4/14/2015 8:52:41 PM	16:52:41	2.0.10.248	2	NA	NA	NA	NA	NA	NA	NA	NA	NA	NA	NA	NA	NA	NA	NA	NA	NA	NA	NA	NA	NA	NA	NA	NA	1	1	1	PracBlockProc	PracBlockList	NA	5	{RIGHTARROW}	-100	NA	973	congruent	NA	NA	NA	0	16	219292	983	1	{RIGHTARROW}	-999999	0	220775	0	{RIGHTARROW}	733	221508	NA	4	1	5	NA	NA	PracTrialProc	PracTrialList	NA	NA	NA	NA	NA	NA	NA	NA	NA	NA	NA	NA	NA	NA	NA	NA	NA	NA	right	NA	rrrrr.bmp	354	NA	NA	NA	NA	NA	NA	NA	NA	NA	NA	NA	NA	NA	NA	NA	NA	NA	NA	NA	NA	NA
Arrow Flanker 2014	12183	1	"<?xml version=""1.0""?>\n<Clock xmlns:dt=""urn:schemas-microsoft-com:datatypes""><Description dt:dt=""string"">E-Prime Primary Realtime Clock</Description><StartTime><Timestamp dt:dt=""int"">0</Timestamp><DateUtc dt:dt=""string"">2015-04-14T20:52:40Z</DateUtc></StartTime><FrequencyChanges><FrequencyChange><Frequency dt:dt=""r8"">2825654</Frequency><Timestamp dt:dt=""r8"">3218775145837</Timestamp><Current dt:dt=""r8"">0</Current><DateUtc dt:dt=""string"">2015-04-14T20:52:40Z</DateUtc></FrequencyChange></FrequencyChanges></Clock>\n"	Arrow Flanker 2014-12183-1	60.018	1.0.0.100	1	1845212477	Professional	2.0.10.353	2.0.10.353	04-14-2015	4/14/2015 8:52:41 PM	16:52:41	2.0.10.248	2	NA	NA	NA	NA	NA	NA	NA	NA	NA	NA	NA	NA	NA	NA	NA	NA	NA	NA	NA	NA	NA	NA	NA	NA	1	1	1	PracBlockProc	PracBlockList	NA	6	{RIGHTARROW}	-100	NA	1323	incongruent	NA	NA	NA	0	16	223041	1333	0	{RIGHTARROW}	-999999	0	224874	0	{LEFTARROW}	569	225443	NA	5	1	6	NA	NA	PracTrialProc	PracTrialList	NA	NA	NA	NA	NA	NA	NA	NA	NA	NA	NA	NA	NA	NA	NA	NA	NA	NA	right	NA	llrll.bmp	354	NA	NA	NA	NA	NA	NA	NA	NA	NA	NA	NA	NA	NA	NA	NA	NA	NA	NA	NA	NA	NA
Arrow Flanker 2014	12183	1	"<?xml version=""1.0""?>\n<Clock xmlns:dt=""urn:schemas-microsoft-com:datatypes""><Description dt:dt=""string"">E-Prime Primary Realtime Clock</Description><StartTime><Timestamp dt:dt=""int"">0</Timestamp><DateUtc dt:dt=""string"">2015-04-14T20:52:40Z</DateUtc></StartTime><FrequencyChanges><FrequencyChange><Frequency dt:dt=""r8"">2825654</Frequency><Timestamp dt:dt=""r8"">3218775145837</Timestamp><Current dt:dt=""r8"">0</Current><DateUtc dt:dt=""string"">2015-04-14T20:52:40Z</DateUtc></FrequencyChange></FrequencyChanges></Clock>\n"	Arrow Flanker 2014-12183-1	60.018	1.0.0.100	1	1845212477	Professional	2.0.10.353	2.0.10.353	04-14-2015	4/14/2015 8:52:41 PM	16:52:41	2.0.10.248	3	NA	NA	NA	NA	NA	NA	NA	NA	NA	NA	NA	NA	NA	NA	NA	NA	NA	NA	NA	NA	NA	NA	NA	NA	1	2	2	PracBlockProc	PracBlockList	NA	1	{RIGHTARROW}	-100	NA	1576	congruent	NA	NA	NA	0	6	230073	1582	1	{RIGHTARROW}	-999999	0	232155	0	{RIGHTARROW}	696	232851	NA	4	2	7	NA	NA	PracTrialProc	PracTrialList	NA	NA	NA	NA	NA	NA	NA	NA	NA	NA	NA	NA	NA	NA	NA	NA	NA	NA	right	NA	rrrrr.bmp	354	NA	NA	NA	NA	NA	NA	NA	NA	NA	NA	NA	NA	NA	NA	NA	NA	NA	NA	NA	NA	NA
Arrow Flanker 2014	12183	1	"<?xml version=""1.0""?>\n<Clock xmlns:dt=""urn:schemas-microsoft-com:datatypes""><Description dt:dt=""string"">E-Prime Primary Realtime Clock</Description><StartTime><Timestamp dt:dt=""int"">0</Timestamp><DateUtc dt:dt=""string"">2015-04-14T20:52:40Z</DateUtc></StartTime><FrequencyChanges><FrequencyChange><Frequency dt:dt=""r8"">2825654</Frequency><Timestamp dt:dt=""r8"">3218775145837</Timestamp><Current dt:dt=""r8"">0</Current><DateUtc dt:dt=""string"">2015-04-14T20:52:40Z</DateUtc></FrequencyChange></FrequencyChanges></Clock>\n"	Arrow Flanker 2014-12183-1	60.018	1.0.0.100	1	1845212477	Professional	2.0.10.353	2.0.10.353	04-14-2015	4/14/2015 8:52:41 PM	16:52:41	2.0.10.248	3	NA	NA	NA	NA	NA	NA	NA	NA	NA	NA	NA	NA	NA	NA	NA	NA	NA	NA	NA	NA	NA	NA	NA	NA	1	2	2	PracBlockProc	PracBlockList	NA	2	{LEFTARROW}	-100	NA	1167	neutral	NA	NA	NA	0	17	234388	1183	0	{LEFTARROW}	-999999	0	236087	0	{RIGHTARROW}	780	236867	NA	3	2	8	NA	NA	PracTrialProc	PracTrialList	NA	NA	NA	NA	NA	NA	NA	NA	NA	NA	NA	NA	NA	NA	NA	NA	NA	NA	left	NA	ooloo.bmp	354	NA	NA	NA	NA	NA	NA	NA	NA	NA	NA	NA	NA	NA	NA	NA	NA	NA	NA	NA	NA	NA
Arrow Flanker 2014	12183	1	"<?xml version=""1.0""?>\n<Clock xmlns:dt=""urn:schemas-microsoft-com:datatypes""><Description dt:dt=""string"">E-Prime Primary Realtime Clock</Description><StartTime><Timestamp dt:dt=""int"">0</Timestamp><DateUtc dt:dt=""string"">2015-04-14T20:52:40Z</DateUtc></StartTime><FrequencyChanges><FrequencyChange><Frequency dt:dt=""r8"">2825654</Frequency><Timestamp dt:dt=""r8"">3218775145837</Timestamp><Current dt:dt=""r8"">0</Current><DateUtc dt:dt=""string"">2015-04-14T20:52:40Z</DateUtc></FrequencyChange></FrequencyChanges></Clock>\n"	Arrow Flanker 2014-12183-1	60.018	1.0.0.100	1	1845212477	Professional	2.0.10.353	2.0.10.353	04-14-2015	4/14/2015 8:52:41 PM	16:52:41	2.0.10.248	3	NA	NA	NA	NA	NA	NA	NA	NA	NA	NA	NA	NA	NA	NA	NA	NA	NA	NA	NA	NA	NA	NA	NA	NA	1	2	2	PracBlockProc	PracBlockList	NA	3	{RIGHTARROW}	-100	NA	809	neutral	NA	NA	NA	0	16	238403	817	1	{RIGHTARROW}	-999999	16	239736	0	{RIGHTARROW}	762	240498	NA	6	2	9	NA	NA	PracTrialProc	PracTrialList	NA	NA	NA	NA	NA	NA	NA	NA	NA	NA	NA	NA	NA	NA	NA	NA	NA	NA	right	NA	ooroo.bmp	354	NA	NA	NA	NA	NA	NA	NA	NA	NA	NA	NA	NA	NA	NA	NA	NA	NA	NA	NA	NA	NA
Arrow Flanker 2014	12183	1	"<?xml version=""1.0""?>\n<Clock xmlns:dt=""urn:schemas-microsoft-com:datatypes""><Description dt:dt=""string"">E-Prime Primary Realtime Clock</Description><StartTime><Timestamp dt:dt=""int"">0</Timestamp><DateUtc dt:dt=""string"">2015-04-14T20:52:40Z</DateUtc></StartTime><FrequencyChanges><FrequencyChange><Frequency dt:dt=""r8"">2825654</Frequency><Timestamp dt:dt=""r8"">3218775145837</Timestamp><Current dt:dt=""r8"">0</Current><DateUtc dt:dt=""string"">2015-04-14T20:52:40Z</DateUtc></FrequencyChange></FrequencyChanges></Clock>\n"	Arrow Flanker 2014-12183-1	60.018	1.0.0.100	1	1845212477	Professional	2.0.10.353	2.0.10.353	04-14-2015	4/14/2015 8:52:41 PM	16:52:41	2.0.10.248	3	NA	NA	NA	NA	NA	NA	NA	NA	NA	NA	NA	NA	NA	NA	NA	NA	NA	NA	NA	NA	NA	NA	NA	NA	1	2	2	PracBlockProc	PracBlockList	NA	4	{LEFTARROW}	-100	NA	834	congruent	NA	NA	NA	0	16	242035	850	1	{LEFTARROW}	-999999	0	243385	0	{LEFTARROW}	617	244002	NA	1	2	10	NA	NA	PracTrialProc	PracTrialList	NA	NA	NA	NA	NA	NA	NA	NA	NA	NA	NA	NA	NA	NA	NA	NA	NA	NA	left	NA	lllll.bmp	354	NA	NA	NA	NA	NA	NA	NA	NA	NA	NA	NA	NA	NA	NA	NA	NA	NA	NA	NA	NA	NA
Arrow Flanker 2014	12183	1	"<?xml version=""1.0""?>\n<Clock xmlns:dt=""urn:schemas-microsoft-com:datatypes""><Description dt:dt=""string"">E-Prime Primary Realtime Clock</Description><StartTime><Timestamp dt:dt=""int"">0</Timestamp><DateUtc dt:dt=""string"">2015-04-14T20:52:40Z</DateUtc></StartTime><FrequencyChanges><FrequencyChange><Frequency dt:dt=""r8"">2825654</Frequency><Timestamp dt:dt=""r8"">3218775145837</Timestamp><Current dt:dt=""r8"">0</Current><DateUtc dt:dt=""string"">2015-04-14T20:52:40Z</DateUtc></FrequencyChange></FrequencyChanges></Clock>\n"	Arrow Flanker 2014-12183-1	60.018	1.0.0.100	1	1845212477	Professional	2.0.10.353	2.0.10.353	04-14-2015	4/14/2015 8:52:41 PM	16:52:41	2.0.10.248	3	NA	NA	NA	NA	NA	NA	NA	NA	NA	NA	NA	NA	NA	NA	NA	NA	NA	NA	NA	NA	NA	NA	NA	NA	1	2	2	PracBlockProc	PracBlockList	NA	5	{LEFTARROW}	-100	NA	509	incongruent	NA	NA	NA	0	16	245534	517	0	{LEFTARROW}	-999999	0	246551	0	{RIGHTARROW}	779	247330	NA	2	2	11	NA	NA	PracTrialProc	PracTrialList	NA	NA	NA	NA	NA	NA	NA	NA	NA	NA	NA	NA	NA	NA	NA	NA	NA	NA	left	NA	rrlrr.bmp	354	NA	NA	NA	NA	NA	NA	NA	NA	NA	NA	NA	NA	NA	NA	NA	NA	NA	NA	NA	NA	NA
Arrow Flanker 2014	12183	1	"<?xml version=""1.0""?>\n<Clock xmlns:dt=""urn:schemas-microsoft-com:datatypes""><Description dt:dt=""string"">E-Prime Primary Realtime Clock</Description><StartTime><Timestamp dt:dt=""int"">0</Timestamp><DateUtc dt:dt=""string"">2015-04-14T20:52:40Z</DateUtc></StartTime><FrequencyChanges><FrequencyChange><Frequency dt:dt=""r8"">2825654</Frequency><Timestamp dt:dt=""r8"">3218775145837</Timestamp><Current dt:dt=""r8"">0</Current><DateUtc dt:dt=""string"">2015-04-14T20:52:40Z</DateUtc></FrequencyChange></FrequencyChanges></Clock>\n"	Arrow Flanker 2014-12183-1	60.018	1.0.0.100	1	1845212477	Professional	2.0.10.353	2.0.10.353	04-14-2015	4/14/2015 8:52:41 PM	16:52:41	2.0.10.248	3	NA	NA	NA	NA	NA	NA	NA	NA	NA	NA	NA	NA	NA	NA	NA	NA	NA	NA	NA	NA	NA	NA	NA	NA	1	2	2	PracBlockProc	PracBlockList	NA	6	{RIGHTARROW}	-100	NA	1050	incongruent	NA	NA	NA	0	17	248867	1066	0	{RIGHTARROW}	-999999	0	250433	0	{LEFTARROW}	1361	251794	NA	5	2	12	NA	NA	PracTrialProc	PracTrialList	NA	NA	NA	NA	NA	NA	NA	NA	NA	NA	NA	NA	NA	NA	NA	NA	NA	NA	right	NA	llrll.bmp	354	NA	NA	NA	NA	NA	NA	NA	NA	NA	NA	NA	NA	NA	NA	NA	NA	NA	NA	NA	NA	NA
Arrow Flanker 2014	12183	1	"<?xml version=""1.0""?>\n<Clock xmlns:dt=""urn:schemas-microsoft-com:datatypes""><Description dt:dt=""string"">E-Prime Primary Realtime Clock</Description><StartTime><Timestamp dt:dt=""int"">0</Timestamp><DateUtc dt:dt=""string"">2015-04-14T20:52:40Z</DateUtc></StartTime><FrequencyChanges><FrequencyChange><Frequency dt:dt=""r8"">2825654</Frequency><Timestamp dt:dt=""r8"">3218775145837</Timestamp><Current dt:dt=""r8"">0</Current><DateUtc dt:dt=""string"">2015-04-14T20:52:40Z</DateUtc></FrequencyChange></FrequencyChanges></Clock>\n"	Arrow Flanker 2014-12183-1	60.018	1.0.0.100	1	1845212477	Professional	2.0.10.353	2.0.10.353	04-14-2015	4/14/2015 8:52:41 PM	16:52:41	2.0.10.248	4	NA	NA	NA	NA	NA	NA	NA	NA	NA	NA	NA	NA	NA	NA	NA	NA	NA	NA	NA	NA	NA	NA	NA	NA	1	3	3	PracBlockProc	PracBlockList	NA	1	{LEFTARROW}	-100	NA	1600	congruent	NA	NA	NA	0	11	255981	1600	1	{LEFTARROW}	-999999	0	258081	0	{LEFTARROW}	816	258897	NA	1	3	13	NA	NA	PracTrialProc	PracTrialList	NA	NA	NA	NA	NA	NA	NA	NA	NA	NA	NA	NA	NA	NA	NA	NA	NA	NA	left	NA	lllll.bmp	354	NA	NA	NA	NA	NA	NA	NA	NA	NA	NA	NA	NA	NA	NA	NA	NA	NA	NA	NA	NA	NA
Arrow Flanker 2014	12183	1	"<?xml version=""1.0""?>\n<Clock xmlns:dt=""urn:schemas-microsoft-com:datatypes""><Description dt:dt=""string"">E-Prime Primary Realtime Clock</Description><StartTime><Timestamp dt:dt=""int"">0</Timestamp><DateUtc dt:dt=""string"">2015-04-14T20:52:40Z</DateUtc></StartTime><FrequencyChanges><FrequencyChange><Frequency dt:dt=""r8"">2825654</Frequency><Timestamp dt:dt=""r8"">3218775145837</Timestamp><Current dt:dt=""r8"">0</Current><DateUtc dt:dt=""string"">2015-04-14T20:52:40Z</DateUtc></FrequencyChange></FrequencyChanges></Clock>\n"	Arrow Flanker 2014-12183-1	60.018	1.0.0.100	1	1845212477	Professional	2.0.10.353	2.0.10.353	04-14-2015	4/14/2015 8:52:41 PM	16:52:41	2.0.10.248	4	NA	NA	NA	NA	NA	NA	NA	NA	NA	NA	NA	NA	NA	NA	NA	NA	NA	NA	NA	NA	NA	NA	NA	NA	1	3	3	PracBlockProc	PracBlockList	NA	2	{LEFTARROW}	-100	NA	537	incongruent	NA	NA	NA	0	16	260430	550	1	{LEFTARROW}	-999999	0	261480	0	{LEFTARROW}	1305	262785	NA	2	3	14	NA	NA	PracTrialProc	PracTrialList	NA	NA	NA	NA	NA	NA	NA	NA	NA	NA	NA	NA	NA	NA	NA	NA	NA	NA	left	NA	rrlrr.bmp	354	NA	NA	NA	NA	NA	NA	NA	NA	NA	NA	NA	NA	NA	NA	NA	NA	NA	NA	NA	NA	NA
Arrow Flanker 2014	12183	1	"<?xml version=""1.0""?>\n<Clock xmlns:dt=""urn:schemas-microsoft-com:datatypes""><Description dt:dt=""string"">E-Prime Primary Realtime Clock</Description><StartTime><Timestamp dt:dt=""int"">0</Timestamp><DateUtc dt:dt=""string"">2015-04-14T20:52:40Z</DateUtc></StartTime><FrequencyChanges><FrequencyChange><Frequency dt:dt=""r8"">2825654</Frequency><Timestamp dt:dt=""r8"">3218775145837</Timestamp><Current dt:dt=""r8"">0</Current><DateUtc dt:dt=""string"">2015-04-14T20:52:40Z</DateUtc></FrequencyChange></FrequencyChanges></Clock>\n"	Arrow Flanker 2014-12183-1	60.018	1.0.0.100	1	1845212477	Professional	2.0.10.353	2.0.10.353	04-14-2015	4/14/2015 8:52:41 PM	16:52:41	2.0.10.248	4	NA	NA	NA	NA	NA	NA	NA	NA	NA	NA	NA	NA	NA	NA	NA	NA	NA	NA	NA	NA	NA	NA	NA	NA	1	3	3	PracBlockProc	PracBlockList	NA	3	{LEFTARROW}	-100	NA	1327	neutral	NA	NA	NA	0	16	264312	1333	1	{LEFTARROW}	-999999	0	266145	0	{LEFTARROW}	816	266961	NA	3	3	15	NA	NA	PracTrialProc	PracTrialList	NA	NA	NA	NA	NA	NA	NA	NA	NA	NA	NA	NA	NA	NA	NA	NA	NA	NA	left	NA	ooloo.bmp	354	NA	NA	NA	NA	NA	NA	NA	NA	NA	NA	NA	NA	NA	NA	NA	NA	NA	NA	NA	NA	NA
Arrow Flanker 2014	12183	1	"<?xml version=""1.0""?>\n<Clock xmlns:dt=""urn:schemas-microsoft-com:datatypes""><Description dt:dt=""string"">E-Prime Primary Realtime Clock</Description><StartTime><Timestamp dt:dt=""int"">0</Timestamp><DateUtc dt:dt=""string"">2015-04-14T20:52:40Z</DateUtc></StartTime><FrequencyChanges><FrequencyChange><Frequency dt:dt=""r8"">2825654</Frequency><Timestamp dt:dt=""r8"">3218775145837</Timestamp><Current dt:dt=""r8"">0</Current><DateUtc dt:dt=""string"">2015-04-14T20:52:40Z</DateUtc></FrequencyChange></FrequencyChanges></Clock>\n"	Arrow Flanker 2014-12183-1	60.018	1.0.0.100	1	1845212477	Professional	2.0.10.353	2.0.10.353	04-14-2015	4/14/2015 8:52:41 PM	16:52:41	2.0.10.248	4	NA	NA	NA	NA	NA	NA	NA	NA	NA	NA	NA	NA	NA	NA	NA	NA	NA	NA	NA	NA	NA	NA	NA	NA	1	3	3	PracBlockProc	PracBlockList	NA	4	{RIGHTARROW}	-100	NA	1263	neutral	NA	NA	NA	0	16	268494	0	1	{RIGHTARROW}	-999999	0	270260	0	{RIGHTARROW}	893	271153	NA	6	3	16	NA	NA	PracTrialProc	PracTrialList	NA	NA	NA	NA	NA	NA	NA	NA	NA	NA	NA	NA	NA	NA	NA	NA	NA	NA	right	NA	ooroo.bmp	354	NA	NA	NA	NA	NA	NA	NA	NA	NA	NA	NA	NA	NA	NA	NA	NA	NA	NA	NA	NA	NA
Arrow Flanker 2014	12183	1	"<?xml version=""1.0""?>\n<Clock xmlns:dt=""urn:schemas-microsoft-com:datatypes""><Description dt:dt=""string"">E-Prime Primary Realtime Clock</Description><StartTime><Timestamp dt:dt=""int"">0</Timestamp><DateUtc dt:dt=""string"">2015-04-14T20:52:40Z</DateUtc></StartTime><FrequencyChanges><FrequencyChange><Frequency dt:dt=""r8"">2825654</Frequency><Timestamp dt:dt=""r8"">3218775145837</Timestamp><Current dt:dt=""r8"">0</Current><DateUtc dt:dt=""string"">2015-04-14T20:52:40Z</DateUtc></FrequencyChange></FrequencyChanges></Clock>\n"	Arrow Flanker 2014-12183-1	60.018	1.0.0.100	1	1845212477	Professional	2.0.10.353	2.0.10.353	04-14-2015	4/14/2015 8:52:41 PM	16:52:41	2.0.10.248	4	NA	NA	NA	NA	NA	NA	NA	NA	NA	NA	NA	NA	NA	NA	NA	NA	NA	NA	NA	NA	NA	NA	NA	NA	1	3	3	PracBlockProc	PracBlockList	NA	5	{RIGHTARROW}	-100	NA	786	incongruent	NA	NA	NA	0	16	272693	0	0	{RIGHTARROW}	-999999	0	273993	0	{LEFTARROW}	968	274961	NA	5	3	17	NA	NA	PracTrialProc	PracTrialList	NA	NA	NA	NA	NA	NA	NA	NA	NA	NA	NA	NA	NA	NA	NA	NA	NA	NA	right	NA	llrll.bmp	354	NA	NA	NA	NA	NA	NA	NA	NA	NA	NA	NA	NA	NA	NA	NA	NA	NA	NA	NA	NA	NA
Arrow Flanker 2014	12183	1	"<?xml version=""1.0""?>\n<Clock xmlns:dt=""urn:schemas-microsoft-com:datatypes""><Description dt:dt=""string"">E-Prime Primary Realtime Clock</Description><StartTime><Timestamp dt:dt=""int"">0</Timestamp><DateUtc dt:dt=""string"">2015-04-14T20:52:40Z</DateUtc></StartTime><FrequencyChanges><FrequencyChange><Frequency dt:dt=""r8"">2825654</Frequency><Timestamp dt:dt=""r8"">3218775145837</Timestamp><Current dt:dt=""r8"">0</Current><DateUtc dt:dt=""string"">2015-04-14T20:52:40Z</DateUtc></FrequencyChange></FrequencyChanges></Clock>\n"	Arrow Flanker 2014-12183-1	60.018	1.0.0.100	1	1845212477	Professional	2.0.10.353	2.0.10.353	04-14-2015	4/14/2015 8:52:41 PM	16:52:41	2.0.10.248	4	NA	NA	NA	NA	NA	NA	NA	NA	NA	NA	NA	NA	NA	NA	NA	NA	NA	NA	NA	NA	NA	NA	NA	NA	1	3	3	PracBlockProc	PracBlockList	NA	6	{RIGHTARROW}	-100	NA	1516	congruent	NA	NA	NA	0	16	276492	0	1	{RIGHTARROW}	-999999	0	278508	0	{RIGHTARROW}	708	279216	NA	4	3	18	NA	NA	PracTrialProc	PracTrialList	NA	NA	NA	NA	NA	NA	NA	NA	NA	NA	NA	NA	NA	NA	NA	NA	NA	NA	right	NA	rrrrr.bmp	354	NA	NA	NA	NA	NA	NA	NA	NA	NA	NA	NA	NA	NA	NA	NA	NA	NA	NA	NA	NA	NA
Arrow Flanker 2014	12183	1	"<?xml version=""1.0""?>\n<Clock xmlns:dt=""urn:schemas-microsoft-com:datatypes""><Description dt:dt=""string"">E-Prime Primary Realtime Clock</Description><StartTime><Timestamp dt:dt=""int"">0</Timestamp><DateUtc dt:dt=""string"">2015-04-14T20:52:40Z</DateUtc></StartTime><FrequencyChanges><FrequencyChange><Frequency dt:dt=""r8"">2825654</Frequency><Timestamp dt:dt=""r8"">3218775145837</Timestamp><Current dt:dt=""r8"">0</Current><DateUtc dt:dt=""string"">2015-04-14T20:52:40Z</DateUtc></FrequencyChange></FrequencyChanges></Clock>\n"	Arrow Flanker 2014-12183-1	60.018	1.0.0.100	1	1845212477	Professional	2.0.10.353	2.0.10.353	04-14-2015	4/14/2015 8:52:41 PM	16:52:41	2.0.10.248	5	NA	NA	NA	NA	NA	NA	NA	NA	NA	NA	NA	NA	NA	NA	NA	NA	NA	NA	NA	NA	NA	NA	NA	NA	1	4	4	PracBlockProc	PracBlockList	NA	1	{LEFTARROW}	-100	NA	649	incongruent	NA	NA	NA	0	8	282040	0	1	{LEFTARROW}	-999999	0	283190	0	{LEFTARROW}	954	284144	NA	2	4	19	NA	NA	PracTrialProc	PracTrialList	NA	NA	NA	NA	NA	NA	NA	NA	NA	NA	NA	NA	NA	NA	NA	NA	NA	NA	left	NA	rrlrr.bmp	354	NA	NA	NA	NA	NA	NA	NA	NA	NA	NA	NA	NA	NA	NA	NA	NA	NA	NA	NA	NA	NA
Arrow Flanker 2014	12183	1	"<?xml version=""1.0""?>\n<Clock xmlns:dt=""urn:schemas-microsoft-com:datatypes""><Description dt:dt=""string"">E-Prime Primary Realtime Clock</Description><StartTime><Timestamp dt:dt=""int"">0</Timestamp><DateUtc dt:dt=""string"">2015-04-14T20:52:40Z</DateUtc></StartTime><FrequencyChanges><FrequencyChange><Frequency dt:dt=""r8"">2825654</Frequency><Timestamp dt:dt=""r8"">3218775145837</Timestamp><Current dt:dt=""r8"">0</Current><DateUtc dt:dt=""string"">2015-04-14T20:52:40Z</DateUtc></FrequencyChange></FrequencyChanges></Clock>\n"	Arrow Flanker 2014-12183-1	60.018	1.0.0.100	1	1845212477	Professional	2.0.10.353	2.0.10.353	04-14-2015	4/14/2015 8:52:41 PM	16:52:41	2.0.10.248	5	NA	NA	NA	NA	NA	NA	NA	NA	NA	NA	NA	NA	NA	NA	NA	NA	NA	NA	NA	NA	NA	NA	NA	NA	1	4	4	PracBlockProc	PracBlockList	NA	2	{LEFTARROW}	-100	NA	852	congruent	NA	NA	NA	0	16	285672	0	1	{LEFTARROW}	-999999	0	287039	0	{LEFTARROW}	753	287792	NA	1	4	20	NA	NA	PracTrialProc	PracTrialList	NA	NA	NA	NA	NA	NA	NA	NA	NA	NA	NA	NA	NA	NA	NA	NA	NA	NA	left	NA	lllll.bmp	354	NA	NA	NA	NA	NA	NA	NA	NA	NA	NA	NA	NA	NA	NA	NA	NA	NA	NA	NA	NA	NA
Arrow Flanker 2014	12183	1	"<?xml version=""1.0""?>\n<Clock xmlns:dt=""urn:schemas-microsoft-com:datatypes""><Description dt:dt=""string"">E-Prime Primary Realtime Clock</Description><StartTime><Timestamp dt:dt=""int"">0</Timestamp><DateUtc dt:dt=""string"">2015-04-14T20:52:40Z</DateUtc></StartTime><FrequencyChanges><FrequencyChange><Frequency dt:dt=""r8"">2825654</Frequency><Timestamp dt:dt=""r8"">3218775145837</Timestamp><Current dt:dt=""r8"">0</Current><DateUtc dt:dt=""string"">2015-04-14T20:52:40Z</DateUtc></FrequencyChange></FrequencyChanges></Clock>\n"	Arrow Flanker 2014-12183-1	60.018	1.0.0.100	1	1845212477	Professional	2.0.10.353	2.0.10.353	04-14-2015	4/14/2015 8:52:41 PM	16:52:41	2.0.10.248	5	NA	NA	NA	NA	NA	NA	NA	NA	NA	NA	NA	NA	NA	NA	NA	NA	NA	NA	NA	NA	NA	NA	NA	NA	1	4	4	PracBlockProc	PracBlockList	NA	3	{RIGHTARROW}	-100	NA	1292	neutral	NA	NA	NA	0	16	289321	0	1	{RIGHTARROW}	-999999	0	291121	0	{RIGHTARROW}	974	292095	NA	6	4	21	NA	NA	PracTrialProc	PracTrialList	NA	NA	NA	NA	NA	NA	NA	NA	NA	NA	NA	NA	NA	NA	NA	NA	NA	NA	right	NA	ooroo.bmp	354	NA	NA	NA	NA	NA	NA	NA	NA	NA	NA	NA	NA	NA	NA	NA	NA	NA	NA	NA	NA	NA
Arrow Flanker 2014	12183	1	"<?xml version=""1.0""?>\n<Clock xmlns:dt=""urn:schemas-microsoft-com:datatypes""><Description dt:dt=""string"">E-Prime Primary Realtime Clock</Description><StartTime><Timestamp dt:dt=""int"">0</Timestamp><DateUtc dt:dt=""string"">2015-04-14T20:52:40Z</DateUtc></StartTime><FrequencyChanges><FrequencyChange><Frequency dt:dt=""r8"">2825654</Frequency><Timestamp dt:dt=""r8"">3218775145837</Timestamp><Current dt:dt=""r8"">0</Current><DateUtc dt:dt=""string"">2015-04-14T20:52:40Z</DateUtc></FrequencyChange></FrequencyChanges></Clock>\n"	Arrow Flanker 2014-12183-1	60.018	1.0.0.100	1	1845212477	Professional	2.0.10.353	2.0.10.353	04-14-2015	4/14/2015 8:52:41 PM	16:52:41	2.0.10.248	5	NA	NA	NA	NA	NA	NA	NA	NA	NA	NA	NA	NA	NA	NA	NA	NA	NA	NA	NA	NA	NA	NA	NA	NA	1	4	4	PracBlockProc	PracBlockList	NA	4	{RIGHTARROW}	-100	NA	497	incongruent	NA	NA	NA	0	16	293637	0	1	{RIGHTARROW}	-999999	-1	294636	0	{RIGHTARROW}	1171	295807	NA	5	4	22	NA	NA	PracTrialProc	PracTrialList	NA	NA	NA	NA	NA	NA	NA	NA	NA	NA	NA	NA	NA	NA	NA	NA	NA	NA	right	NA	llrll.bmp	354	NA	NA	NA	NA	NA	NA	NA	NA	NA	NA	NA	NA	NA	NA	NA	NA	NA	NA	NA	NA	NA
Arrow Flanker 2014	12183	1	"<?xml version=""1.0""?>\n<Clock xmlns:dt=""urn:schemas-microsoft-com:datatypes""><Description dt:dt=""string"">E-Prime Primary Realtime Clock</Description><StartTime><Timestamp dt:dt=""int"">0</Timestamp><DateUtc dt:dt=""string"">2015-04-14T20:52:40Z</DateUtc></StartTime><FrequencyChanges><FrequencyChange><Frequency dt:dt=""r8"">2825654</Frequency><Timestamp dt:dt=""r8"">3218775145837</Timestamp><Current dt:dt=""r8"">0</Current><DateUtc dt:dt=""string"">2015-04-14T20:52:40Z</DateUtc></FrequencyChange></FrequencyChanges></Clock>\n"	Arrow Flanker 2014-12183-1	60.018	1.0.0.100	1	1845212477	Professional	2.0.10.353	2.0.10.353	04-14-2015	4/14/2015 8:52:41 PM	16:52:41	2.0.10.248	5	NA	NA	NA	NA	NA	NA	NA	NA	NA	NA	NA	NA	NA	NA	NA	NA	NA	NA	NA	NA	NA	NA	NA	NA	1	4	4	PracBlockProc	PracBlockList	NA	5	{LEFTARROW}	-100	NA	1323	neutral	NA	NA	NA	0	16	297336	1333	1	{LEFTARROW}	-999999	0	299169	0	{LEFTARROW}	654	299823	NA	3	4	23	NA	NA	PracTrialProc	PracTrialList	NA	NA	NA	NA	NA	NA	NA	NA	NA	NA	NA	NA	NA	NA	NA	NA	NA	NA	left	NA	ooloo.bmp	354	NA	NA	NA	NA	NA	NA	NA	NA	NA	NA	NA	NA	NA	NA	NA	NA	NA	NA	NA	NA	NA
Arrow Flanker 2014	12183	1	"<?xml version=""1.0""?>\n<Clock xmlns:dt=""urn:schemas-microsoft-com:datatypes""><Description dt:dt=""string"">E-Prime Primary Realtime Clock</Description><StartTime><Timestamp dt:dt=""int"">0</Timestamp><DateUtc dt:dt=""string"">2015-04-14T20:52:40Z</DateUtc></StartTime><FrequencyChanges><FrequencyChange><Frequency dt:dt=""r8"">2825654</Frequency><Timestamp dt:dt=""r8"">3218775145837</Timestamp><Current dt:dt=""r8"">0</Current><DateUtc dt:dt=""string"">2015-04-14T20:52:40Z</DateUtc></FrequencyChange></FrequencyChanges></Clock>\n"	Arrow Flanker 2014-12183-1	60.018	1.0.0.100	1	1845212477	Professional	2.0.10.353	2.0.10.353	04-14-2015	4/14/2015 8:52:41 PM	16:52:41	2.0.10.248	5	NA	NA	NA	NA	NA	NA	NA	NA	NA	NA	NA	NA	NA	NA	NA	NA	NA	NA	NA	NA	NA	NA	NA	NA	1	4	4	PracBlockProc	PracBlockList	NA	6	{RIGHTARROW}	-100	NA	1482	congruent	NA	NA	NA	0	16	301351	0	1	{RIGHTARROW}	-999999	0	303334	0	{RIGHTARROW}	889	304223	NA	4	4	24	NA	NA	PracTrialProc	PracTrialList	NA	NA	NA	NA	NA	NA	NA	NA	NA	NA	NA	NA	NA	NA	NA	NA	NA	NA	right	NA	rrrrr.bmp	354	NA	NA	NA	NA	NA	NA	NA	NA	NA	NA	NA	NA	NA	NA	NA	NA	NA	NA	NA	NA	NA
Arrow Flanker 2014	12183	1	"<?xml version=""1.0""?>\n<Clock xmlns:dt=""urn:schemas-microsoft-com:datatypes""><Description dt:dt=""string"">E-Prime Primary Realtime Clock</Description><StartTime><Timestamp dt:dt=""int"">0</Timestamp><DateUtc dt:dt=""string"">2015-04-14T20:52:40Z</DateUtc></StartTime><FrequencyChanges><FrequencyChange><Frequency dt:dt=""r8"">2825654</Frequency><Timestamp dt:dt=""r8"">3218775145837</Timestamp><Current dt:dt=""r8"">0</Current><DateUtc dt:dt=""string"">2015-04-14T20:52:40Z</DateUtc></FrequencyChange></FrequencyChanges></Clock>\n"	Arrow Flanker 2014-12183-1	60.018	1.0.0.100	1	1845212477	Professional	2.0.10.353	2.0.10.353	04-14-2015	4/14/2015 8:52:41 PM	16:52:41	2.0.10.248	6	1	1	1	NA	NA	NA	NA	NA	NA	NA	NA	NA	NA	NA	NA	NA	NA	NA	NA	NA	NA	NA	NA	NA	NA	NA	NA	BlockProc	BlockList	NA	1	{LEFTARROW}	NA	-100	2212	neutral	NA	NA	NA	NA	NA	NA	NA	NA	NA	NA	NA	NA	NA	NA	NA	NA	NA	NA	NA	NA	NA	NA	TrialProc	TrialList	1	10	311881	17	0	16	309066	1266	1	{LEFTARROW}	-999999	0	310832	0	{LEFTARROW}	1038	311870	NA	NA	left	ooloo.bmp	354	0	NA	0	0	0	0	NA	0	0	0	NA	0	0	0	0	NA	0	0	5	1	1
Arrow Flanker 2014	12183	1	"<?xml version=""1.0""?>\n<Clock xmlns:dt=""urn:schemas-microsoft-com:datatypes""><Description dt:dt=""string"">E-Prime Primary Realtime Clock</Description><StartTime><Timestamp dt:dt=""int"">0</Timestamp><DateUtc dt:dt=""string"">2015-04-14T20:52:40Z</DateUtc></StartTime><FrequencyChanges><FrequencyChange><Frequency dt:dt=""r8"">2825654</Frequency><Timestamp dt:dt=""r8"">3218775145837</Timestamp><Current dt:dt=""r8"">0</Current><DateUtc dt:dt=""string"">2015-04-14T20:52:40Z</DateUtc></FrequencyChange></FrequencyChanges></Clock>\n"	Arrow Flanker 2014-12183-1	60.018	1.0.0.100	1	1845212477	Professional	2.0.10.353	2.0.10.353	04-14-2015	4/14/2015 8:52:41 PM	16:52:41	2.0.10.248	6	1	1	1	NA	NA	NA	NA	NA	NA	NA	NA	NA	NA	NA	NA	NA	NA	NA	NA	NA	NA	NA	NA	NA	NA	NA	NA	BlockProc	BlockList	NA	2	{RIGHTARROW}	NA	-100	2388	incongruent	NA	NA	NA	NA	NA	NA	NA	NA	NA	NA	NA	NA	NA	NA	NA	NA	NA	NA	NA	NA	NA	NA	TrialProc	TrialList	1	10	315480	17	0	16	312414	1267	1	{RIGHTARROW}	-999999	0	314181	0	{RIGHTARROW}	1289	315470	NA	NA	right	llrll.bmp	354	0	NA	0	0	0	0	NA	0	0	0	NA	0	0	0	0	NA	0	0	4	1	2
Arrow Flanker 2014	12183	1	"<?xml version=""1.0""?>\n<Clock xmlns:dt=""urn:schemas-microsoft-com:datatypes""><Description dt:dt=""string"">E-Prime Primary Realtime Clock</Description><StartTime><Timestamp dt:dt=""int"">0</Timestamp><DateUtc dt:dt=""string"">2015-04-14T20:52:40Z</DateUtc></StartTime><FrequencyChanges><FrequencyChange><Frequency dt:dt=""r8"">2825654</Frequency><Timestamp dt:dt=""r8"">3218775145837</Timestamp><Current dt:dt=""r8"">0</Current><DateUtc dt:dt=""string"">2015-04-14T20:52:40Z</DateUtc></FrequencyChange></FrequencyChanges></Clock>\n"	Arrow Flanker 2014-12183-1	60.018	1.0.0.100	1	1845212477	Professional	2.0.10.353	2.0.10.353	04-14-2015	4/14/2015 8:52:41 PM	16:52:41	2.0.10.248	6	1	1	1	NA	NA	NA	NA	NA	NA	NA	NA	NA	NA	NA	NA	NA	NA	NA	NA	NA	NA	NA	NA	NA	NA	NA	NA	BlockProc	BlockList	NA	3	{LEFTARROW}	NA	-100	1174	neutral	NA	NA	NA	NA	NA	NA	NA	NA	NA	NA	NA	NA	NA	NA	NA	NA	NA	NA	NA	NA	NA	NA	TrialProc	TrialList	1	5	317763	17	0	16	316013	684	1	{LEFTARROW}	-999999	16	317213	0	{LEFTARROW}	545	317758	NA	NA	left	ooloo.bmp	354	0	NA	0	0	0	0	NA	0	0	0	NA	0	0	0	0	NA	0	0	5	1	3
Arrow Flanker 2014	12183	1	"<?xml version=""1.0""?>\n<Clock xmlns:dt=""urn:schemas-microsoft-com:datatypes""><Description dt:dt=""string"">E-Prime Primary Realtime Clock</Description><StartTime><Timestamp dt:dt=""int"">0</Timestamp><DateUtc dt:dt=""string"">2015-04-14T20:52:40Z</DateUtc></StartTime><FrequencyChanges><FrequencyChange><Frequency dt:dt=""r8"">2825654</Frequency><Timestamp dt:dt=""r8"">3218775145837</Timestamp><Current dt:dt=""r8"">0</Current><DateUtc dt:dt=""string"">2015-04-14T20:52:40Z</DateUtc></FrequencyChange></FrequencyChanges></Clock>\n"	Arrow Flanker 2014-12183-1	60.018	1.0.0.100	1	1845212477	Professional	2.0.10.353	2.0.10.353	04-14-2015	4/14/2015 8:52:41 PM	16:52:41	2.0.10.248	6	1	1	1	NA	NA	NA	NA	NA	NA	NA	NA	NA	NA	NA	NA	NA	NA	NA	NA	NA	NA	NA	NA	NA	NA	NA	NA	BlockProc	BlockList	NA	4	{LEFTARROW}	NA	-100	1266	congruent	NA	NA	NA	NA	NA	NA	NA	NA	NA	NA	NA	NA	NA	NA	NA	NA	NA	NA	NA	NA	NA	NA	TrialProc	TrialList	1	7	320645	17	0	16	318296	834	1	{LEFTARROW}	-999999	0	319629	0	{LEFTARROW}	1009	320638	NA	NA	left	lllll.bmp	354	0	NA	0	0	0	0	NA	0	0	0	NA	0	0	0	0	NA	0	0	1	1	4
Arrow Flanker 2014	12183	1	"<?xml version=""1.0""?>\n<Clock xmlns:dt=""urn:schemas-microsoft-com:datatypes""><Description dt:dt=""string"">E-Prime Primary Realtime Clock</Description><StartTime><Timestamp dt:dt=""int"">0</Timestamp><DateUtc dt:dt=""string"">2015-04-14T20:52:40Z</DateUtc></StartTime><FrequencyChanges><FrequencyChange><Frequency dt:dt=""r8"">2825654</Frequency><Timestamp dt:dt=""r8"">3218775145837</Timestamp><Current dt:dt=""r8"">0</Current><DateUtc dt:dt=""string"">2015-04-14T20:52:40Z</DateUtc></FrequencyChange></FrequencyChanges></Clock>\n"	Arrow Flanker 2014-12183-1	60.018	1.0.0.100	1	1845212477	Professional	2.0.10.353	2.0.10.353	04-14-2015	4/14/2015 8:52:41 PM	16:52:41	2.0.10.248	6	1	1	1	NA	NA	NA	NA	NA	NA	NA	NA	NA	NA	NA	NA	NA	NA	NA	NA	NA	NA	NA	NA	NA	NA	NA	NA	BlockProc	BlockList	NA	5	{RIGHTARROW}	NA	-100	1642	congruent	NA	NA	NA	NA	NA	NA	NA	NA	NA	NA	NA	NA	NA	NA	NA	NA	NA	NA	NA	NA	NA	NA	TrialProc	TrialList	0	11	323545	16	0	17	321179	1183	1	{RIGHTARROW}	-999999	0	322862	0	{RIGHTARROW}	672	323534	NA	NA	right	rrrrr.bmp	354	0	NA	0	0	0	0	NA	0	0	0	NA	0	0	0	0	NA	0	0	2	1	5
Arrow Flanker 2014	12183	1	"<?xml version=""1.0""?>\n<Clock xmlns:dt=""urn:schemas-microsoft-com:datatypes""><Description dt:dt=""string"">E-Prime Primary Realtime Clock</Description><StartTime><Timestamp dt:dt=""int"">0</Timestamp><DateUtc dt:dt=""string"">2015-04-14T20:52:40Z</DateUtc></StartTime><FrequencyChanges><FrequencyChange><Frequency dt:dt=""r8"">2825654</Frequency><Timestamp dt:dt=""r8"">3218775145837</Timestamp><Current dt:dt=""r8"">0</Current><DateUtc dt:dt=""string"">2015-04-14T20:52:40Z</DateUtc></FrequencyChange></FrequencyChanges></Clock>\n"	Arrow Flanker 2014-12183-1	60.018	1.0.0.100	1	1845212477	Professional	2.0.10.353	2.0.10.353	04-14-2015	4/14/2015 8:52:41 PM	16:52:41	2.0.10.248	6	1	1	1	NA	NA	NA	NA	NA	NA	NA	NA	NA	NA	NA	NA	NA	NA	NA	NA	NA	NA	NA	NA	NA	NA	NA	NA	BlockProc	BlockList	NA	6	{LEFTARROW}	NA	-100	1413	congruent	NA	NA	NA	NA	NA	NA	NA	NA	NA	NA	NA	NA	NA	NA	NA	NA	NA	NA	NA	NA	NA	NA	TrialProc	TrialList	0	7	326277	17	0	17	324078	983	1	{LEFTARROW}	-999999	0	325561	0	{LEFTARROW}	709	326270	NA	NA	left	lllll.bmp	354	0	NA	0	0	0	0	NA	0	0	0	NA	0	0	0	0	NA	0	0	1	1	6
Arrow Flanker 2014	12183	1	"<?xml version=""1.0""?>\n<Clock xmlns:dt=""urn:schemas-microsoft-com:datatypes""><Description dt:dt=""string"">E-Prime Primary Realtime Clock</Description><StartTime><Timestamp dt:dt=""int"">0</Timestamp><DateUtc dt:dt=""string"">2015-04-14T20:52:40Z</DateUtc></StartTime><FrequencyChanges><FrequencyChange><Frequency dt:dt=""r8"">2825654</Frequency><Timestamp dt:dt=""r8"">3218775145837</Timestamp><Current dt:dt=""r8"">0</Current><DateUtc dt:dt=""string"">2015-04-14T20:52:40Z</DateUtc></FrequencyChange></FrequencyChanges></Clock>\n"	Arrow Flanker 2014-12183-1	60.018	1.0.0.100	1	1845212477	Professional	2.0.10.353	2.0.10.353	04-14-2015	4/14/2015 8:52:41 PM	16:52:41	2.0.10.248	6	1	1	1	NA	NA	NA	NA	NA	NA	NA	NA	NA	NA	NA	NA	NA	NA	NA	NA	NA	NA	NA	NA	NA	NA	NA	NA	BlockProc	BlockList	NA	7	{RIGHTARROW}	NA	-100	1415	incongruent	NA	NA	NA	NA	NA	NA	NA	NA	NA	NA	NA	NA	NA	NA	NA	NA	NA	NA	NA	NA	NA	NA	TrialProc	TrialList	1	12	328426	17	0	16	326810	467	1	{RIGHTARROW}	-999999	0	327777	0	{RIGHTARROW}	636	328413	NA	NA	right	llrll.bmp	354	0	NA	0	0	0	0	NA	0	0	0	NA	0	0	0	0	NA	0	0	4	1	7
Arrow Flanker 2014	12183	1	"<?xml version=""1.0""?>\n<Clock xmlns:dt=""urn:schemas-microsoft-com:datatypes""><Description dt:dt=""string"">E-Prime Primary Realtime Clock</Description><StartTime><Timestamp dt:dt=""int"">0</Timestamp><DateUtc dt:dt=""string"">2015-04-14T20:52:40Z</DateUtc></StartTime><FrequencyChanges><FrequencyChange><Frequency dt:dt=""r8"">2825654</Frequency><Timestamp dt:dt=""r8"">3218775145837</Timestamp><Current dt:dt=""r8"">0</Current><DateUtc dt:dt=""string"">2015-04-14T20:52:40Z</DateUtc></FrequencyChange></FrequencyChanges></Clock>\n"	Arrow Flanker 2014-12183-1	60.018	1.0.0.100	1	1845212477	Professional	2.0.10.353	2.0.10.353	04-14-2015	4/14/2015 8:52:41 PM	16:52:41	2.0.10.248	6	1	1	1	NA	NA	NA	NA	NA	NA	NA	NA	NA	NA	NA	NA	NA	NA	NA	NA	NA	NA	NA	NA	NA	NA	NA	NA	BlockProc	BlockList	NA	8	{RIGHTARROW}	NA	-100	539	neutral	NA	NA	NA	NA	NA	NA	NA	NA	NA	NA	NA	NA	NA	NA	NA	NA	NA	NA	NA	NA	NA	NA	TrialProc	TrialList	0	19	330576	17	0	17	328960	516	1	{RIGHTARROW}	-999999	0	329976	0	{RIGHTARROW}	581	330557	NA	NA	right	ooroo.bmp	354	0	NA	0	0	0	0	NA	0	0	0	NA	0	0	0	0	NA	0	0	6	1	8
Arrow Flanker 2014	12183	1	"<?xml version=""1.0""?>\n<Clock xmlns:dt=""urn:schemas-microsoft-com:datatypes""><Description dt:dt=""string"">E-Prime Primary Realtime Clock</Description><StartTime><Timestamp dt:dt=""int"">0</Timestamp><DateUtc dt:dt=""string"">2015-04-14T20:52:40Z</DateUtc></StartTime><FrequencyChanges><FrequencyChange><Frequency dt:dt=""r8"">2825654</Frequency><Timestamp dt:dt=""r8"">3218775145837</Timestamp><Current dt:dt=""r8"">0</Current><DateUtc dt:dt=""string"">2015-04-14T20:52:40Z</DateUtc></FrequencyChange></FrequencyChanges></Clock>\n"	Arrow Flanker 2014-12183-1	60.018	1.0.0.100	1	1845212477	Professional	2.0.10.353	2.0.10.353	04-14-2015	4/14/2015 8:52:41 PM	16:52:41	2.0.10.248	6	1	1	1	NA	NA	NA	NA	NA	NA	NA	NA	NA	NA	NA	NA	NA	NA	NA	NA	NA	NA	NA	NA	NA	NA	NA	NA	BlockProc	BlockList	NA	9	{LEFTARROW}	NA	-100	1892	congruent	NA	NA	NA	NA	NA	NA	NA	NA	NA	NA	NA	NA	NA	NA	NA	NA	NA	NA	NA	NA	NA	NA	TrialProc	TrialList	1	13	333258	17	0	16	331109	866	1	{LEFTARROW}	-999999	0	332475	0	{LEFTARROW}	770	333245	NA	NA	left	lllll.bmp	354	0	NA	0	0	0	0	NA	0	0	0	NA	0	0	0	0	NA	0	0	1	1	9
Arrow Flanker 2014	12183	1	"<?xml version=""1.0""?>\n<Clock xmlns:dt=""urn:schemas-microsoft-com:datatypes""><Description dt:dt=""string"">E-Prime Primary Realtime Clock</Description><StartTime><Timestamp dt:dt=""int"">0</Timestamp><DateUtc dt:dt=""string"">2015-04-14T20:52:40Z</DateUtc></StartTime><FrequencyChanges><FrequencyChange><Frequency dt:dt=""r8"">2825654</Frequency><Timestamp dt:dt=""r8"">3218775145837</Timestamp><Current dt:dt=""r8"">0</Current><DateUtc dt:dt=""string"">2015-04-14T20:52:40Z</DateUtc></FrequencyChange></FrequencyChanges></Clock>\n"	Arrow Flanker 2014-12183-1	60.018	1.0.0.100	1	1845212477	Professional	2.0.10.353	2.0.10.353	04-14-2015	4/14/2015 8:52:41 PM	16:52:41	2.0.10.248	6	1	1	1	NA	NA	NA	NA	NA	NA	NA	NA	NA	NA	NA	NA	NA	NA	NA	NA	NA	NA	NA	NA	NA	NA	NA	NA	BlockProc	BlockList	NA	10	{RIGHTARROW}	NA	-100	890	incongruent	NA	NA	NA	NA	NA	NA	NA	NA	NA	NA	NA	NA	NA	NA	NA	NA	NA	NA	NA	NA	NA	NA	TrialProc	TrialList	0	18	335791	17	0	17	333792	783	1	{RIGHTARROW}	-999999	-1	335074	0	{RIGHTARROW}	699	335773	NA	NA	right	llrll.bmp	354	0	NA	0	0	0	0	NA	0	0	0	NA	0	0	0	0	NA	0	0	4	1	10
Arrow Flanker 2014	12183	1	"<?xml version=""1.0""?>\n<Clock xmlns:dt=""urn:schemas-microsoft-com:datatypes""><Description dt:dt=""string"">E-Prime Primary Realtime Clock</Description><StartTime><Timestamp dt:dt=""int"">0</Timestamp><DateUtc dt:dt=""string"">2015-04-14T20:52:40Z</DateUtc></StartTime><FrequencyChanges><FrequencyChange><Frequency dt:dt=""r8"">2825654</Frequency><Timestamp dt:dt=""r8"">3218775145837</Timestamp><Current dt:dt=""r8"">0</Current><DateUtc dt:dt=""string"">2015-04-14T20:52:40Z</DateUtc></FrequencyChange></FrequencyChanges></Clock>\n"	Arrow Flanker 2014-12183-1	60.018	1.0.0.100	1	1845212477	Professional	2.0.10.353	2.0.10.353	04-14-2015	4/14/2015 8:52:41 PM	16:52:41	2.0.10.248	6	1	1	1	NA	NA	NA	NA	NA	NA	NA	NA	NA	NA	NA	NA	NA	NA	NA	NA	NA	NA	NA	NA	NA	NA	NA	NA	BlockProc	BlockList	NA	11	{LEFTARROW}	NA	-100	1595	incongruent	NA	NA	NA	NA	NA	NA	NA	NA	NA	NA	NA	NA	NA	NA	NA	NA	NA	NA	NA	NA	NA	NA	TrialProc	TrialList	0	8	338357	16	0	16	336324	717	1	{LEFTARROW}	-999999	16	337557	0	{LEFTARROW}	792	338349	NA	NA	left	rrlrr.bmp	354	0	NA	0	0	0	0	NA	0	0	0	NA	0	0	0	0	NA	0	0	3	1	11
Arrow Flanker 2014	12183	1	"<?xml version=""1.0""?>\n<Clock xmlns:dt=""urn:schemas-microsoft-com:datatypes""><Description dt:dt=""string"">E-Prime Primary Realtime Clock</Description><StartTime><Timestamp dt:dt=""int"">0</Timestamp><DateUtc dt:dt=""string"">2015-04-14T20:52:40Z</DateUtc></StartTime><FrequencyChanges><FrequencyChange><Frequency dt:dt=""r8"">2825654</Frequency><Timestamp dt:dt=""r8"">3218775145837</Timestamp><Current dt:dt=""r8"">0</Current><DateUtc dt:dt=""string"">2015-04-14T20:52:40Z</DateUtc></FrequencyChange></FrequencyChanges></Clock>\n"	Arrow Flanker 2014-12183-1	60.018	1.0.0.100	1	1845212477	Professional	2.0.10.353	2.0.10.353	04-14-2015	4/14/2015 8:52:41 PM	16:52:41	2.0.10.248	6	1	1	1	NA	NA	NA	NA	NA	NA	NA	NA	NA	NA	NA	NA	NA	NA	NA	NA	NA	NA	NA	NA	NA	NA	NA	NA	BlockProc	BlockList	NA	12	{RIGHTARROW}	NA	-100	1829	neutral	NA	NA	NA	NA	NA	NA	NA	NA	NA	NA	NA	NA	NA	NA	NA	NA	NA	NA	NA	NA	NA	NA	TrialProc	TrialList	0	17	341406	17	0	17	338890	1483	1	{RIGHTARROW}	-999999	0	340873	0	{RIGHTARROW}	516	341389	NA	NA	right	ooroo.bmp	354	0	NA	0	0	0	0	NA	0	0	0	NA	0	0	0	0	NA	0	0	6	1	12
Arrow Flanker 2014	12183	1	"<?xml version=""1.0""?>\n<Clock xmlns:dt=""urn:schemas-microsoft-com:datatypes""><Description dt:dt=""string"">E-Prime Primary Realtime Clock</Description><StartTime><Timestamp dt:dt=""int"">0</Timestamp><DateUtc dt:dt=""string"">2015-04-14T20:52:40Z</DateUtc></StartTime><FrequencyChanges><FrequencyChange><Frequency dt:dt=""r8"">2825654</Frequency><Timestamp dt:dt=""r8"">3218775145837</Timestamp><Current dt:dt=""r8"">0</Current><DateUtc dt:dt=""string"">2015-04-14T20:52:40Z</DateUtc></FrequencyChange></FrequencyChanges></Clock>\n"	Arrow Flanker 2014-12183-1	60.018	1.0.0.100	1	1845212477	Professional	2.0.10.353	2.0.10.353	04-14-2015	4/14/2015 8:52:41 PM	16:52:41	2.0.10.248	6	1	1	1	NA	NA	NA	NA	NA	NA	NA	NA	NA	NA	NA	NA	NA	NA	NA	NA	NA	NA	NA	NA	NA	NA	NA	NA	BlockProc	BlockList	NA	13	{RIGHTARROW}	NA	-100	1560	neutral	NA	NA	NA	NA	NA	NA	NA	NA	NA	NA	NA	NA	NA	NA	NA	NA	NA	NA	NA	NA	NA	NA	TrialProc	TrialList	0	9	343622	17	0	16	341939	583	1	{RIGHTARROW}	-999999	0	343022	0	{RIGHTARROW}	591	343613	NA	NA	right	ooroo.bmp	354	0	NA	0	0	0	0	NA	0	0	0	NA	0	0	0	0	NA	0	0	6	1	13
Arrow Flanker 2014	12183	1	"<?xml version=""1.0""?>\n<Clock xmlns:dt=""urn:schemas-microsoft-com:datatypes""><Description dt:dt=""string"">E-Prime Primary Realtime Clock</Description><StartTime><Timestamp dt:dt=""int"">0</Timestamp><DateUtc dt:dt=""string"">2015-04-14T20:52:40Z</DateUtc></StartTime><FrequencyChanges><FrequencyChange><Frequency dt:dt=""r8"">2825654</Frequency><Timestamp dt:dt=""r8"">3218775145837</Timestamp><Current dt:dt=""r8"">0</Current><DateUtc dt:dt=""string"">2015-04-14T20:52:40Z</DateUtc></FrequencyChange></FrequencyChanges></Clock>\n"	Arrow Flanker 2014-12183-1	60.018	1.0.0.100	1	1845212477	Professional	2.0.10.353	2.0.10.353	04-14-2015	4/14/2015 8:52:41 PM	16:52:41	2.0.10.248	6	1	1	1	NA	NA	NA	NA	NA	NA	NA	NA	NA	NA	NA	NA	NA	NA	NA	NA	NA	NA	NA	NA	NA	NA	NA	NA	BlockProc	BlockList	NA	14	{RIGHTARROW}	NA	-100	1454	incongruent	NA	NA	NA	NA	NA	NA	NA	NA	NA	NA	NA	NA	NA	NA	NA	NA	NA	NA	NA	NA	NA	NA	TrialProc	TrialList	0	8	347221	17	0	16	344155	1350	1	{RIGHTARROW}	-999999	0	346005	0	{RIGHTARROW}	1207	347212	NA	NA	right	llrll.bmp	354	0	NA	0	0	0	0	NA	0	0	0	NA	0	0	0	0	NA	0	0	4	1	14
Arrow Flanker 2014	12183	1	"<?xml version=""1.0""?>\n<Clock xmlns:dt=""urn:schemas-microsoft-com:datatypes""><Description dt:dt=""string"">E-Prime Primary Realtime Clock</Description><StartTime><Timestamp dt:dt=""int"">0</Timestamp><DateUtc dt:dt=""string"">2015-04-14T20:52:40Z</DateUtc></StartTime><FrequencyChanges><FrequencyChange><Frequency dt:dt=""r8"">2825654</Frequency><Timestamp dt:dt=""r8"">3218775145837</Timestamp><Current dt:dt=""r8"">0</Current><DateUtc dt:dt=""string"">2015-04-14T20:52:40Z</DateUtc></FrequencyChange></FrequencyChanges></Clock>\n"	Arrow Flanker 2014-12183-1	60.018	1.0.0.100	1	1845212477	Professional	2.0.10.353	2.0.10.353	04-14-2015	4/14/2015 8:52:41 PM	16:52:41	2.0.10.248	6	1	1	1	NA	NA	NA	NA	NA	NA	NA	NA	NA	NA	NA	NA	NA	NA	NA	NA	NA	NA	NA	NA	NA	NA	NA	NA	BlockProc	BlockList	NA	15	{RIGHTARROW}	NA	-100	2398	neutral	NA	NA	NA	NA	NA	NA	NA	NA	NA	NA	NA	NA	NA	NA	NA	NA	NA	NA	NA	NA	NA	NA	TrialProc	TrialList	0	20	350320	17	0	16	347754	1450	1	{RIGHTARROW}	-999999	-1	349703	0	{RIGHTARROW}	597	350300	NA	NA	right	ooroo.bmp	354	0	NA	0	0	0	0	NA	0	0	0	NA	0	0	0	0	NA	0	0	6	1	15
Arrow Flanker 2014	12183	1	"<?xml version=""1.0""?>\n<Clock xmlns:dt=""urn:schemas-microsoft-com:datatypes""><Description dt:dt=""string"">E-Prime Primary Realtime Clock</Description><StartTime><Timestamp dt:dt=""int"">0</Timestamp><DateUtc dt:dt=""string"">2015-04-14T20:52:40Z</DateUtc></StartTime><FrequencyChanges><FrequencyChange><Frequency dt:dt=""r8"">2825654</Frequency><Timestamp dt:dt=""r8"">3218775145837</Timestamp><Current dt:dt=""r8"">0</Current><DateUtc dt:dt=""string"">2015-04-14T20:52:40Z</DateUtc></FrequencyChange></FrequencyChanges></Clock>\n"	Arrow Flanker 2014-12183-1	60.018	1.0.0.100	1	1845212477	Professional	2.0.10.353	2.0.10.353	04-14-2015	4/14/2015 8:52:41 PM	16:52:41	2.0.10.248	6	1	1	1	NA	NA	NA	NA	NA	NA	NA	NA	NA	NA	NA	NA	NA	NA	NA	NA	NA	NA	NA	NA	NA	NA	NA	NA	BlockProc	BlockList	NA	16	{RIGHTARROW}	NA	-100	2163	congruent	NA	NA	NA	NA	NA	NA	NA	NA	NA	NA	NA	NA	NA	NA	NA	NA	NA	NA	NA	NA	NA	NA	TrialProc	TrialList	0	11	353319	17	0	16	350853	1300	1	{RIGHTARROW}	-999999	0	352653	0	{RIGHTARROW}	655	353308	NA	NA	right	rrrrr.bmp	354	0	NA	0	0	0	0	NA	0	0	0	NA	0	0	0	0	NA	0	0	2	1	16
Arrow Flanker 2014	12183	1	"<?xml version=""1.0""?>\n<Clock xmlns:dt=""urn:schemas-microsoft-com:datatypes""><Description dt:dt=""string"">E-Prime Primary Realtime Clock</Description><StartTime><Timestamp dt:dt=""int"">0</Timestamp><DateUtc dt:dt=""string"">2015-04-14T20:52:40Z</DateUtc></StartTime><FrequencyChanges><FrequencyChange><Frequency dt:dt=""r8"">2825654</Frequency><Timestamp dt:dt=""r8"">3218775145837</Timestamp><Current dt:dt=""r8"">0</Current><DateUtc dt:dt=""string"">2015-04-14T20:52:40Z</DateUtc></FrequencyChange></FrequencyChanges></Clock>\n"	Arrow Flanker 2014-12183-1	60.018	1.0.0.100	1	1845212477	Professional	2.0.10.353	2.0.10.353	04-14-2015	4/14/2015 8:52:41 PM	16:52:41	2.0.10.248	6	1	1	1	NA	NA	NA	NA	NA	NA	NA	NA	NA	NA	NA	NA	NA	NA	NA	NA	NA	NA	NA	NA	NA	NA	NA	NA	BlockProc	BlockList	NA	17	{LEFTARROW}	NA	-100	1195	congruent	NA	NA	NA	NA	NA	NA	NA	NA	NA	NA	NA	NA	NA	NA	NA	NA	NA	NA	NA	NA	NA	NA	TrialProc	TrialList	0	7	356035	17	0	16	353852	1100	1	{LEFTARROW}	-999999	0	355452	0	{LEFTARROW}	576	356028	NA	NA	left	lllll.bmp	354	0	NA	0	0	0	0	NA	0	0	0	NA	0	0	0	0	NA	0	0	1	1	17
Arrow Flanker 2014	12183	1	"<?xml version=""1.0""?>\n<Clock xmlns:dt=""urn:schemas-microsoft-com:datatypes""><Description dt:dt=""string"">E-Prime Primary Realtime Clock</Description><StartTime><Timestamp dt:dt=""int"">0</Timestamp><DateUtc dt:dt=""string"">2015-04-14T20:52:40Z</DateUtc></StartTime><FrequencyChanges><FrequencyChange><Frequency dt:dt=""r8"">2825654</Frequency><Timestamp dt:dt=""r8"">3218775145837</Timestamp><Current dt:dt=""r8"">0</Current><DateUtc dt:dt=""string"">2015-04-14T20:52:40Z</DateUtc></FrequencyChange></FrequencyChanges></Clock>\n"	Arrow Flanker 2014-12183-1	60.018	1.0.0.100	1	1845212477	Professional	2.0.10.353	2.0.10.353	04-14-2015	4/14/2015 8:52:41 PM	16:52:41	2.0.10.248	6	1	1	1	NA	NA	NA	NA	NA	NA	NA	NA	NA	NA	NA	NA	NA	NA	NA	NA	NA	NA	NA	NA	NA	NA	NA	NA	BlockProc	BlockList	NA	18	{RIGHTARROW}	NA	-100	1776	congruent	NA	NA	NA	NA	NA	NA	NA	NA	NA	NA	NA	NA	NA	NA	NA	NA	NA	NA	NA	NA	NA	NA	TrialProc	TrialList	1	14	358634	17	0	16	356568	700	1	{RIGHTARROW}	-999999	0	357768	0	{RIGHTARROW}	852	358620	NA	NA	right	rrrrr.bmp	354	0	NA	0	0	0	0	NA	0	0	0	NA	0	0	0	0	NA	0	0	2	1	18
Arrow Flanker 2014	12183	1	"<?xml version=""1.0""?>\n<Clock xmlns:dt=""urn:schemas-microsoft-com:datatypes""><Description dt:dt=""string"">E-Prime Primary Realtime Clock</Description><StartTime><Timestamp dt:dt=""int"">0</Timestamp><DateUtc dt:dt=""string"">2015-04-14T20:52:40Z</DateUtc></StartTime><FrequencyChanges><FrequencyChange><Frequency dt:dt=""r8"">2825654</Frequency><Timestamp dt:dt=""r8"">3218775145837</Timestamp><Current dt:dt=""r8"">0</Current><DateUtc dt:dt=""string"">2015-04-14T20:52:40Z</DateUtc></FrequencyChange></FrequencyChanges></Clock>\n"	Arrow Flanker 2014-12183-1	60.018	1.0.0.100	1	1845212477	Professional	2.0.10.353	2.0.10.353	04-14-2015	4/14/2015 8:52:41 PM	16:52:41	2.0.10.248	6	1	1	1	NA	NA	NA	NA	NA	NA	NA	NA	NA	NA	NA	NA	NA	NA	NA	NA	NA	NA	NA	NA	NA	NA	NA	NA	BlockProc	BlockList	NA	19	{RIGHTARROW}	NA	-100	638	incongruent	NA	NA	NA	NA	NA	NA	NA	NA	NA	NA	NA	NA	NA	NA	NA	NA	NA	NA	NA	NA	NA	NA	TrialProc	TrialList	0	21	361217	16	0	16	359167	567	1	{RIGHTARROW}	-999999	0	360234	0	{RIGHTARROW}	962	361196	NA	NA	right	llrll.bmp	354	0	NA	0	0	0	0	NA	0	0	0	NA	0	0	0	0	NA	0	0	4	1	19
Arrow Flanker 2014	12183	1	"<?xml version=""1.0""?>\n<Clock xmlns:dt=""urn:schemas-microsoft-com:datatypes""><Description dt:dt=""string"">E-Prime Primary Realtime Clock</Description><StartTime><Timestamp dt:dt=""int"">0</Timestamp><DateUtc dt:dt=""string"">2015-04-14T20:52:40Z</DateUtc></StartTime><FrequencyChanges><FrequencyChange><Frequency dt:dt=""r8"">2825654</Frequency><Timestamp dt:dt=""r8"">3218775145837</Timestamp><Current dt:dt=""r8"">0</Current><DateUtc dt:dt=""string"">2015-04-14T20:52:40Z</DateUtc></FrequencyChange></FrequencyChanges></Clock>\n"	Arrow Flanker 2014-12183-1	60.018	1.0.0.100	1	1845212477	Professional	2.0.10.353	2.0.10.353	04-14-2015	4/14/2015 8:52:41 PM	16:52:41	2.0.10.248	6	1	1	1	NA	NA	NA	NA	NA	NA	NA	NA	NA	NA	NA	NA	NA	NA	NA	NA	NA	NA	NA	NA	NA	NA	NA	NA	BlockProc	BlockList	NA	20	{RIGHTARROW}	NA	-100	1200	congruent	NA	NA	NA	NA	NA	NA	NA	NA	NA	NA	NA	NA	NA	NA	NA	NA	NA	NA	NA	NA	NA	NA	TrialProc	TrialList	0	17	363916	17	0	17	361750	700	1	{RIGHTARROW}	-999999	0	362950	0	{RIGHTARROW}	949	363899	NA	NA	right	rrrrr.bmp	354	0	NA	0	0	0	0	NA	0	0	0	NA	0	0	0	0	NA	0	0	2	1	20
Arrow Flanker 2014	12183	1	"<?xml version=""1.0""?>\n<Clock xmlns:dt=""urn:schemas-microsoft-com:datatypes""><Description dt:dt=""string"">E-Prime Primary Realtime Clock</Description><StartTime><Timestamp dt:dt=""int"">0</Timestamp><DateUtc dt:dt=""string"">2015-04-14T20:52:40Z</DateUtc></StartTime><FrequencyChanges><FrequencyChange><Frequency dt:dt=""r8"">2825654</Frequency><Timestamp dt:dt=""r8"">3218775145837</Timestamp><Current dt:dt=""r8"">0</Current><DateUtc dt:dt=""string"">2015-04-14T20:52:40Z</DateUtc></FrequencyChange></FrequencyChanges></Clock>\n"	Arrow Flanker 2014-12183-1	60.018	1.0.0.100	1	1845212477	Professional	2.0.10.353	2.0.10.353	04-14-2015	4/14/2015 8:52:41 PM	16:52:41	2.0.10.248	6	1	1	1	NA	NA	NA	NA	NA	NA	NA	NA	NA	NA	NA	NA	NA	NA	NA	NA	NA	NA	NA	NA	NA	NA	NA	NA	BlockProc	BlockList	NA	21	{LEFTARROW}	NA	-100	2202	congruent	NA	NA	NA	NA	NA	NA	NA	NA	NA	NA	NA	NA	NA	NA	NA	NA	NA	NA	NA	NA	NA	NA	TrialProc	TrialList	0	18	367165	17	0	16	364449	1533	1	{LEFTARROW}	-999999	0	366482	0	{LEFTARROW}	665	367147	NA	NA	left	lllll.bmp	354	0	NA	0	0	0	0	NA	0	0	0	NA	0	0	0	0	NA	0	0	1	1	21
Arrow Flanker 2014	12183	1	"<?xml version=""1.0""?>\n<Clock xmlns:dt=""urn:schemas-microsoft-com:datatypes""><Description dt:dt=""string"">E-Prime Primary Realtime Clock</Description><StartTime><Timestamp dt:dt=""int"">0</Timestamp><DateUtc dt:dt=""string"">2015-04-14T20:52:40Z</DateUtc></StartTime><FrequencyChanges><FrequencyChange><Frequency dt:dt=""r8"">2825654</Frequency><Timestamp dt:dt=""r8"">3218775145837</Timestamp><Current dt:dt=""r8"">0</Current><DateUtc dt:dt=""string"">2015-04-14T20:52:40Z</DateUtc></FrequencyChange></FrequencyChanges></Clock>\n"	Arrow Flanker 2014-12183-1	60.018	1.0.0.100	1	1845212477	Professional	2.0.10.353	2.0.10.353	04-14-2015	4/14/2015 8:52:41 PM	16:52:41	2.0.10.248	6	1	1	1	NA	NA	NA	NA	NA	NA	NA	NA	NA	NA	NA	NA	NA	NA	NA	NA	NA	NA	NA	NA	NA	NA	NA	NA	BlockProc	BlockList	NA	22	{LEFTARROW}	NA	-100	1535	congruent	NA	NA	NA	NA	NA	NA	NA	NA	NA	NA	NA	NA	NA	NA	NA	NA	NA	NA	NA	NA	2	2	TrialProc	TrialList	0	19	369598	16	0	16	367698	617	1	{LEFTARROW}	-999999	0	368815	0	{LEFTARROW}	764	369579	NA	NA	left	lllll.bmp	354	0	NA	-999999	17	370131	0	1	11932	382063	0	NA	-999999	14	382077	0	1	11945	394022	1	1	22
Arrow Flanker 2014	12183	1	"<?xml version=""1.0""?>\n<Clock xmlns:dt=""urn:schemas-microsoft-com:datatypes""><Description dt:dt=""string"">E-Prime Primary Realtime Clock</Description><StartTime><Timestamp dt:dt=""int"">0</Timestamp><DateUtc dt:dt=""string"">2015-04-14T20:52:40Z</DateUtc></StartTime><FrequencyChanges><FrequencyChange><Frequency dt:dt=""r8"">2825654</Frequency><Timestamp dt:dt=""r8"">3218775145837</Timestamp><Current dt:dt=""r8"">0</Current><DateUtc dt:dt=""string"">2015-04-14T20:52:40Z</DateUtc></FrequencyChange></FrequencyChanges></Clock>\n"	Arrow Flanker 2014-12183-1	60.018	1.0.0.100	1	1845212477	Professional	2.0.10.353	2.0.10.353	04-14-2015	4/14/2015 8:52:41 PM	16:52:41	2.0.10.248	6	1	1	1	NA	NA	NA	NA	NA	NA	NA	NA	NA	NA	NA	NA	NA	NA	NA	NA	NA	NA	NA	NA	NA	NA	NA	NA	BlockProc	BlockList	NA	23	{LEFTARROW}	NA	-100	743	congruent	NA	NA	NA	NA	NA	NA	NA	NA	NA	NA	NA	NA	NA	NA	NA	NA	NA	NA	NA	NA	NA	NA	TrialProc	TrialList	0	16	398239	17	0	17	395723	600	0	{LEFTARROW}	0	0	396823	1416	NA	0	0	NA	NA	left	lllll.bmp	354	0	NA	0	0	0	0	NA	0	0	0	NA	0	0	0	0	NA	0	0	1	1	23
Arrow Flanker 2014	12183	1	"<?xml version=""1.0""?>\n<Clock xmlns:dt=""urn:schemas-microsoft-com:datatypes""><Description dt:dt=""string"">E-Prime Primary Realtime Clock</Description><StartTime><Timestamp dt:dt=""int"">0</Timestamp><DateUtc dt:dt=""string"">2015-04-14T20:52:40Z</DateUtc></StartTime><FrequencyChanges><FrequencyChange><Frequency dt:dt=""r8"">2825654</Frequency><Timestamp dt:dt=""r8"">3218775145837</Timestamp><Current dt:dt=""r8"">0</Current><DateUtc dt:dt=""string"">2015-04-14T20:52:40Z</DateUtc></FrequencyChange></FrequencyChanges></Clock>\n"	Arrow Flanker 2014-12183-1	60.018	1.0.0.100	1	1845212477	Professional	2.0.10.353	2.0.10.353	04-14-2015	4/14/2015 8:52:41 PM	16:52:41	2.0.10.248	6	1	1	1	NA	NA	NA	NA	NA	NA	NA	NA	NA	NA	NA	NA	NA	NA	NA	NA	NA	NA	NA	NA	NA	NA	NA	NA	BlockProc	BlockList	NA	24	{RIGHTARROW}	NA	-100	1753	incongruent	NA	NA	NA	NA	NA	NA	NA	NA	NA	NA	NA	NA	NA	NA	NA	NA	NA	NA	NA	NA	NA	NA	TrialProc	TrialList	1	13	401238	17	0	16	398772	1300	1	{RIGHTARROW}	-999999	0	400572	0	{RIGHTARROW}	653	401225	NA	NA	right	llrll.bmp	354	0	NA	0	0	0	0	NA	0	0	0	NA	0	0	0	0	NA	0	0	4	1	24
Arrow Flanker 2014	12183	1	"<?xml version=""1.0""?>\n<Clock xmlns:dt=""urn:schemas-microsoft-com:datatypes""><Description dt:dt=""string"">E-Prime Primary Realtime Clock</Description><StartTime><Timestamp dt:dt=""int"">0</Timestamp><DateUtc dt:dt=""string"">2015-04-14T20:52:40Z</DateUtc></StartTime><FrequencyChanges><FrequencyChange><Frequency dt:dt=""r8"">2825654</Frequency><Timestamp dt:dt=""r8"">3218775145837</Timestamp><Current dt:dt=""r8"">0</Current><DateUtc dt:dt=""string"">2015-04-14T20:52:40Z</DateUtc></FrequencyChange></FrequencyChanges></Clock>\n"	Arrow Flanker 2014-12183-1	60.018	1.0.0.100	1	1845212477	Professional	2.0.10.353	2.0.10.353	04-14-2015	4/14/2015 8:52:41 PM	16:52:41	2.0.10.248	6	1	1	1	NA	NA	NA	NA	NA	NA	NA	NA	NA	NA	NA	NA	NA	NA	NA	NA	NA	NA	NA	NA	NA	NA	NA	NA	BlockProc	BlockList	NA	25	{RIGHTARROW}	NA	-100	2445	congruent	NA	NA	NA	NA	NA	NA	NA	NA	NA	NA	NA	NA	NA	NA	NA	NA	NA	NA	NA	NA	NA	NA	TrialProc	TrialList	0	16	404121	16	0	17	401772	1250	1	{RIGHTARROW}	-999999	0	403538	0	{RIGHTARROW}	567	404105	NA	NA	right	rrrrr.bmp	354	0	NA	0	0	0	0	NA	0	0	0	NA	0	0	0	0	NA	0	0	2	1	25
Arrow Flanker 2014	12183	1	"<?xml version=""1.0""?>\n<Clock xmlns:dt=""urn:schemas-microsoft-com:datatypes""><Description dt:dt=""string"">E-Prime Primary Realtime Clock</Description><StartTime><Timestamp dt:dt=""int"">0</Timestamp><DateUtc dt:dt=""string"">2015-04-14T20:52:40Z</DateUtc></StartTime><FrequencyChanges><FrequencyChange><Frequency dt:dt=""r8"">2825654</Frequency><Timestamp dt:dt=""r8"">3218775145837</Timestamp><Current dt:dt=""r8"">0</Current><DateUtc dt:dt=""string"">2015-04-14T20:52:40Z</DateUtc></FrequencyChange></FrequencyChanges></Clock>\n"	Arrow Flanker 2014-12183-1	60.018	1.0.0.100	1	1845212477	Professional	2.0.10.353	2.0.10.353	04-14-2015	4/14/2015 8:52:41 PM	16:52:41	2.0.10.248	6	1	1	1	NA	NA	NA	NA	NA	NA	NA	NA	NA	NA	NA	NA	NA	NA	NA	NA	NA	NA	NA	NA	NA	NA	NA	NA	BlockProc	BlockList	NA	26	{RIGHTARROW}	NA	-100	2260	congruent	NA	NA	NA	NA	NA	NA	NA	NA	NA	NA	NA	NA	NA	NA	NA	NA	NA	NA	NA	NA	NA	NA	TrialProc	TrialList	1	20	407053	17	0	17	404654	0	1	{RIGHTARROW}	-999999	16	406420	0	{RIGHTARROW}	613	407033	NA	NA	right	rrrrr.bmp	354	0	NA	0	0	0	0	NA	0	0	0	NA	0	0	0	0	NA	0	0	2	1	26
Arrow Flanker 2014	12183	1	"<?xml version=""1.0""?>\n<Clock xmlns:dt=""urn:schemas-microsoft-com:datatypes""><Description dt:dt=""string"">E-Prime Primary Realtime Clock</Description><StartTime><Timestamp dt:dt=""int"">0</Timestamp><DateUtc dt:dt=""string"">2015-04-14T20:52:40Z</DateUtc></StartTime><FrequencyChanges><FrequencyChange><Frequency dt:dt=""r8"">2825654</Frequency><Timestamp dt:dt=""r8"">3218775145837</Timestamp><Current dt:dt=""r8"">0</Current><DateUtc dt:dt=""string"">2015-04-14T20:52:40Z</DateUtc></FrequencyChange></FrequencyChanges></Clock>\n"	Arrow Flanker 2014-12183-1	60.018	1.0.0.100	1	1845212477	Professional	2.0.10.353	2.0.10.353	04-14-2015	4/14/2015 8:52:41 PM	16:52:41	2.0.10.248	6	1	1	1	NA	NA	NA	NA	NA	NA	NA	NA	NA	NA	NA	NA	NA	NA	NA	NA	NA	NA	NA	NA	NA	NA	NA	NA	BlockProc	BlockList	NA	27	{LEFTARROW}	NA	-100	1026	neutral	NA	NA	NA	NA	NA	NA	NA	NA	NA	NA	NA	NA	NA	NA	NA	NA	NA	NA	NA	NA	NA	NA	TrialProc	TrialList	0	10	409203	16	0	16	407586	0	1	{LEFTARROW}	-999999	0	408603	0	{LEFTARROW}	590	409193	NA	NA	left	ooloo.bmp	354	0	NA	0	0	0	0	NA	0	0	0	NA	0	0	0	0	NA	0	0	5	1	27
Arrow Flanker 2014	12183	1	"<?xml version=""1.0""?>\n<Clock xmlns:dt=""urn:schemas-microsoft-com:datatypes""><Description dt:dt=""string"">E-Prime Primary Realtime Clock</Description><StartTime><Timestamp dt:dt=""int"">0</Timestamp><DateUtc dt:dt=""string"">2015-04-14T20:52:40Z</DateUtc></StartTime><FrequencyChanges><FrequencyChange><Frequency dt:dt=""r8"">2825654</Frequency><Timestamp dt:dt=""r8"">3218775145837</Timestamp><Current dt:dt=""r8"">0</Current><DateUtc dt:dt=""string"">2015-04-14T20:52:40Z</DateUtc></FrequencyChange></FrequencyChanges></Clock>\n"	Arrow Flanker 2014-12183-1	60.018	1.0.0.100	1	1845212477	Professional	2.0.10.353	2.0.10.353	04-14-2015	4/14/2015 8:52:41 PM	16:52:41	2.0.10.248	6	1	1	1	NA	NA	NA	NA	NA	NA	NA	NA	NA	NA	NA	NA	NA	NA	NA	NA	NA	NA	NA	NA	NA	NA	NA	NA	BlockProc	BlockList	NA	28	{RIGHTARROW}	NA	-100	1458	congruent	NA	NA	NA	NA	NA	NA	NA	NA	NA	NA	NA	NA	NA	NA	NA	NA	NA	NA	NA	NA	NA	NA	TrialProc	TrialList	1	19	411868	17	0	17	409736	0	1	{RIGHTARROW}	-999999	0	411369	0	{RIGHTARROW}	480	411849	NA	NA	right	rrrrr.bmp	354	0	NA	0	0	0	0	NA	0	0	0	NA	0	0	0	0	NA	0	0	2	1	28
Arrow Flanker 2014	12183	1	"<?xml version=""1.0""?>\n<Clock xmlns:dt=""urn:schemas-microsoft-com:datatypes""><Description dt:dt=""string"">E-Prime Primary Realtime Clock</Description><StartTime><Timestamp dt:dt=""int"">0</Timestamp><DateUtc dt:dt=""string"">2015-04-14T20:52:40Z</DateUtc></StartTime><FrequencyChanges><FrequencyChange><Frequency dt:dt=""r8"">2825654</Frequency><Timestamp dt:dt=""r8"">3218775145837</Timestamp><Current dt:dt=""r8"">0</Current><DateUtc dt:dt=""string"">2015-04-14T20:52:40Z</DateUtc></FrequencyChange></FrequencyChanges></Clock>\n"	Arrow Flanker 2014-12183-1	60.018	1.0.0.100	1	1845212477	Professional	2.0.10.353	2.0.10.353	04-14-2015	4/14/2015 8:52:41 PM	16:52:41	2.0.10.248	6	1	1	1	NA	NA	NA	NA	NA	NA	NA	NA	NA	NA	NA	NA	NA	NA	NA	NA	NA	NA	NA	NA	NA	NA	NA	NA	BlockProc	BlockList	NA	29	{LEFTARROW}	NA	-100	1447	incongruent	NA	NA	NA	NA	NA	NA	NA	NA	NA	NA	NA	NA	NA	NA	NA	NA	NA	NA	NA	NA	NA	NA	TrialProc	TrialList	1	19	414684	17	0	17	412402	0	1	{LEFTARROW}	-999999	0	413918	0	{LEFTARROW}	746	414664	NA	NA	left	rrlrr.bmp	354	0	NA	0	0	0	0	NA	0	0	0	NA	0	0	0	0	NA	0	0	3	1	29
Arrow Flanker 2014	12183	1	"<?xml version=""1.0""?>\n<Clock xmlns:dt=""urn:schemas-microsoft-com:datatypes""><Description dt:dt=""string"">E-Prime Primary Realtime Clock</Description><StartTime><Timestamp dt:dt=""int"">0</Timestamp><DateUtc dt:dt=""string"">2015-04-14T20:52:40Z</DateUtc></StartTime><FrequencyChanges><FrequencyChange><Frequency dt:dt=""r8"">2825654</Frequency><Timestamp dt:dt=""r8"">3218775145837</Timestamp><Current dt:dt=""r8"">0</Current><DateUtc dt:dt=""string"">2015-04-14T20:52:40Z</DateUtc></FrequencyChange></FrequencyChanges></Clock>\n"	Arrow Flanker 2014-12183-1	60.018	1.0.0.100	1	1845212477	Professional	2.0.10.353	2.0.10.353	04-14-2015	4/14/2015 8:52:41 PM	16:52:41	2.0.10.248	6	1	1	1	NA	NA	NA	NA	NA	NA	NA	NA	NA	NA	NA	NA	NA	NA	NA	NA	NA	NA	NA	NA	NA	NA	NA	NA	BlockProc	BlockList	NA	30	{RIGHTARROW}	NA	-100	1962	congruent	NA	NA	NA	NA	NA	NA	NA	NA	NA	NA	NA	NA	NA	NA	NA	NA	NA	NA	NA	NA	NA	NA	TrialProc	TrialList	0	10	417267	17	0	17	415218	0	1	{RIGHTARROW}	-999999	0	416817	0	{RIGHTARROW}	439	417256	NA	NA	right	rrrrr.bmp	354	0	NA	0	0	0	0	NA	0	0	0	NA	0	0	0	0	NA	0	0	2	1	30
Arrow Flanker 2014	12183	1	"<?xml version=""1.0""?>\n<Clock xmlns:dt=""urn:schemas-microsoft-com:datatypes""><Description dt:dt=""string"">E-Prime Primary Realtime Clock</Description><StartTime><Timestamp dt:dt=""int"">0</Timestamp><DateUtc dt:dt=""string"">2015-04-14T20:52:40Z</DateUtc></StartTime><FrequencyChanges><FrequencyChange><Frequency dt:dt=""r8"">2825654</Frequency><Timestamp dt:dt=""r8"">3218775145837</Timestamp><Current dt:dt=""r8"">0</Current><DateUtc dt:dt=""string"">2015-04-14T20:52:40Z</DateUtc></FrequencyChange></FrequencyChanges></Clock>\n"	Arrow Flanker 2014-12183-1	60.018	1.0.0.100	1	1845212477	Professional	2.0.10.353	2.0.10.353	04-14-2015	4/14/2015 8:52:41 PM	16:52:41	2.0.10.248	6	1	1	1	NA	NA	NA	NA	NA	NA	NA	NA	NA	NA	NA	NA	NA	NA	NA	NA	NA	NA	NA	NA	NA	NA	NA	NA	BlockProc	BlockList	NA	31	{LEFTARROW}	NA	-100	2226	neutral	NA	NA	NA	NA	NA	NA	NA	NA	NA	NA	NA	NA	NA	NA	NA	NA	NA	NA	NA	NA	NA	NA	TrialProc	TrialList	1	19	420299	17	0	16	417800	0	1	{LEFTARROW}	-999999	0	419883	0	{LEFTARROW}	397	420280	NA	NA	left	ooloo.bmp	354	0	NA	0	0	0	0	NA	0	0	0	NA	0	0	0	0	NA	0	0	5	1	31
Arrow Flanker 2014	12183	1	"<?xml version=""1.0""?>\n<Clock xmlns:dt=""urn:schemas-microsoft-com:datatypes""><Description dt:dt=""string"">E-Prime Primary Realtime Clock</Description><StartTime><Timestamp dt:dt=""int"">0</Timestamp><DateUtc dt:dt=""string"">2015-04-14T20:52:40Z</DateUtc></StartTime><FrequencyChanges><FrequencyChange><Frequency dt:dt=""r8"">2825654</Frequency><Timestamp dt:dt=""r8"">3218775145837</Timestamp><Current dt:dt=""r8"">0</Current><DateUtc dt:dt=""string"">2015-04-14T20:52:40Z</DateUtc></FrequencyChange></FrequencyChanges></Clock>\n"	Arrow Flanker 2014-12183-1	60.018	1.0.0.100	1	1845212477	Professional	2.0.10.353	2.0.10.353	04-14-2015	4/14/2015 8:52:41 PM	16:52:41	2.0.10.248	6	1	1	1	NA	NA	NA	NA	NA	NA	NA	NA	NA	NA	NA	NA	NA	NA	NA	NA	NA	NA	NA	NA	NA	NA	NA	NA	BlockProc	BlockList	NA	32	{LEFTARROW}	NA	-100	1566	neutral	NA	NA	NA	NA	NA	NA	NA	NA	NA	NA	NA	NA	NA	NA	NA	NA	NA	NA	NA	NA	NA	NA	TrialProc	TrialList	0	16	423432	16	0	17	420833	0	1	{LEFTARROW}	-999999	0	422899	0	{LEFTARROW}	517	423416	NA	NA	left	ooloo.bmp	354	0	NA	0	0	0	0	NA	0	0	0	NA	0	0	0	0	NA	0	0	5	1	32
Arrow Flanker 2014	12183	1	"<?xml version=""1.0""?>\n<Clock xmlns:dt=""urn:schemas-microsoft-com:datatypes""><Description dt:dt=""string"">E-Prime Primary Realtime Clock</Description><StartTime><Timestamp dt:dt=""int"">0</Timestamp><DateUtc dt:dt=""string"">2015-04-14T20:52:40Z</DateUtc></StartTime><FrequencyChanges><FrequencyChange><Frequency dt:dt=""r8"">2825654</Frequency><Timestamp dt:dt=""r8"">3218775145837</Timestamp><Current dt:dt=""r8"">0</Current><DateUtc dt:dt=""string"">2015-04-14T20:52:40Z</DateUtc></FrequencyChange></FrequencyChanges></Clock>\n"	Arrow Flanker 2014-12183-1	60.018	1.0.0.100	1	1845212477	Professional	2.0.10.353	2.0.10.353	04-14-2015	4/14/2015 8:52:41 PM	16:52:41	2.0.10.248	6	1	1	1	NA	NA	NA	NA	NA	NA	NA	NA	NA	NA	NA	NA	NA	NA	NA	NA	NA	NA	NA	NA	NA	NA	NA	NA	BlockProc	BlockList	NA	33	{LEFTARROW}	NA	-100	2032	neutral	NA	NA	NA	NA	NA	NA	NA	NA	NA	NA	NA	NA	NA	NA	NA	NA	NA	NA	NA	NA	NA	NA	TrialProc	TrialList	0	20	425948	16	0	17	423965	0	1	{LEFTARROW}	-999999	0	425431	0	{LEFTARROW}	497	425928	NA	NA	left	ooloo.bmp	354	0	NA	0	0	0	0	NA	0	0	0	NA	0	0	0	0	NA	0	0	5	1	33
Arrow Flanker 2014	12183	1	"<?xml version=""1.0""?>\n<Clock xmlns:dt=""urn:schemas-microsoft-com:datatypes""><Description dt:dt=""string"">E-Prime Primary Realtime Clock</Description><StartTime><Timestamp dt:dt=""int"">0</Timestamp><DateUtc dt:dt=""string"">2015-04-14T20:52:40Z</DateUtc></StartTime><FrequencyChanges><FrequencyChange><Frequency dt:dt=""r8"">2825654</Frequency><Timestamp dt:dt=""r8"">3218775145837</Timestamp><Current dt:dt=""r8"">0</Current><DateUtc dt:dt=""string"">2015-04-14T20:52:40Z</DateUtc></FrequencyChange></FrequencyChanges></Clock>\n"	Arrow Flanker 2014-12183-1	60.018	1.0.0.100	1	1845212477	Professional	2.0.10.353	2.0.10.353	04-14-2015	4/14/2015 8:52:41 PM	16:52:41	2.0.10.248	6	1	1	1	NA	NA	NA	NA	NA	NA	NA	NA	NA	NA	NA	NA	NA	NA	NA	NA	NA	NA	NA	NA	NA	NA	NA	NA	BlockProc	BlockList	NA	34	{LEFTARROW}	NA	-100	802	congruent	NA	NA	NA	NA	NA	NA	NA	NA	NA	NA	NA	NA	NA	NA	NA	NA	NA	NA	NA	NA	NA	NA	TrialProc	TrialList	0	19	428347	17	0	17	426481	0	1	{LEFTARROW}	-999999	0	427614	0	{LEFTARROW}	714	428328	NA	NA	left	lllll.bmp	354	0	NA	0	0	0	0	NA	0	0	0	NA	0	0	0	0	NA	0	0	1	1	34
Arrow Flanker 2014	12183	1	"<?xml version=""1.0""?>\n<Clock xmlns:dt=""urn:schemas-microsoft-com:datatypes""><Description dt:dt=""string"">E-Prime Primary Realtime Clock</Description><StartTime><Timestamp dt:dt=""int"">0</Timestamp><DateUtc dt:dt=""string"">2015-04-14T20:52:40Z</DateUtc></StartTime><FrequencyChanges><FrequencyChange><Frequency dt:dt=""r8"">2825654</Frequency><Timestamp dt:dt=""r8"">3218775145837</Timestamp><Current dt:dt=""r8"">0</Current><DateUtc dt:dt=""string"">2015-04-14T20:52:40Z</DateUtc></FrequencyChange></FrequencyChanges></Clock>\n"	Arrow Flanker 2014-12183-1	60.018	1.0.0.100	1	1845212477	Professional	2.0.10.353	2.0.10.353	04-14-2015	4/14/2015 8:52:41 PM	16:52:41	2.0.10.248	6	1	1	1	NA	NA	NA	NA	NA	NA	NA	NA	NA	NA	NA	NA	NA	NA	NA	NA	NA	NA	NA	NA	NA	NA	NA	NA	BlockProc	BlockList	NA	35	{LEFTARROW}	NA	-100	1457	congruent	NA	NA	NA	NA	NA	NA	NA	NA	NA	NA	NA	NA	NA	NA	NA	NA	NA	NA	NA	NA	NA	NA	TrialProc	TrialList	1	6	430446	17	0	16	428880	0	1	{LEFTARROW}	-999999	0	429813	0	{LEFTARROW}	627	430440	NA	NA	left	lllll.bmp	354	0	NA	0	0	0	0	NA	0	0	0	NA	0	0	0	0	NA	0	0	1	1	35
Arrow Flanker 2014	12183	1	"<?xml version=""1.0""?>\n<Clock xmlns:dt=""urn:schemas-microsoft-com:datatypes""><Description dt:dt=""string"">E-Prime Primary Realtime Clock</Description><StartTime><Timestamp dt:dt=""int"">0</Timestamp><DateUtc dt:dt=""string"">2015-04-14T20:52:40Z</DateUtc></StartTime><FrequencyChanges><FrequencyChange><Frequency dt:dt=""r8"">2825654</Frequency><Timestamp dt:dt=""r8"">3218775145837</Timestamp><Current dt:dt=""r8"">0</Current><DateUtc dt:dt=""string"">2015-04-14T20:52:40Z</DateUtc></FrequencyChange></FrequencyChanges></Clock>\n"	Arrow Flanker 2014-12183-1	60.018	1.0.0.100	1	1845212477	Professional	2.0.10.353	2.0.10.353	04-14-2015	4/14/2015 8:52:41 PM	16:52:41	2.0.10.248	6	1	1	1	NA	NA	NA	NA	NA	NA	NA	NA	NA	NA	NA	NA	NA	NA	NA	NA	NA	NA	NA	NA	NA	NA	NA	NA	BlockProc	BlockList	NA	36	{RIGHTARROW}	NA	-100	1381	congruent	NA	NA	NA	NA	NA	NA	NA	NA	NA	NA	NA	NA	NA	NA	NA	NA	NA	NA	NA	NA	NA	NA	TrialProc	TrialList	1	20	432812	17	0	17	430980	0	1	{RIGHTARROW}	-999999	0	432063	0	{RIGHTARROW}	728	432791	NA	NA	right	rrrrr.bmp	354	0	NA	0	0	0	0	NA	0	0	0	NA	0	0	0	0	NA	0	0	2	1	36
Arrow Flanker 2014	12183	1	"<?xml version=""1.0""?>\n<Clock xmlns:dt=""urn:schemas-microsoft-com:datatypes""><Description dt:dt=""string"">E-Prime Primary Realtime Clock</Description><StartTime><Timestamp dt:dt=""int"">0</Timestamp><DateUtc dt:dt=""string"">2015-04-14T20:52:40Z</DateUtc></StartTime><FrequencyChanges><FrequencyChange><Frequency dt:dt=""r8"">2825654</Frequency><Timestamp dt:dt=""r8"">3218775145837</Timestamp><Current dt:dt=""r8"">0</Current><DateUtc dt:dt=""string"">2015-04-14T20:52:40Z</DateUtc></FrequencyChange></FrequencyChanges></Clock>\n"	Arrow Flanker 2014-12183-1	60.018	1.0.0.100	1	1845212477	Professional	2.0.10.353	2.0.10.353	04-14-2015	4/14/2015 8:52:41 PM	16:52:41	2.0.10.248	6	1	1	1	NA	NA	NA	NA	NA	NA	NA	NA	NA	NA	NA	NA	NA	NA	NA	NA	NA	NA	NA	NA	NA	NA	NA	NA	BlockProc	BlockList	NA	37	{LEFTARROW}	NA	-100	1041	incongruent	NA	NA	NA	NA	NA	NA	NA	NA	NA	NA	NA	NA	NA	NA	NA	NA	NA	NA	NA	NA	1	NA	TrialProc	TrialList	0	9	435312	16	0	17	433346	0	1	{LEFTARROW}	-999999	0	434645	0	{LEFTARROW}	658	435303	NA	NA	left	rrlrr.bmp	354	0	NA	-999999	17	435845	0	1	8214	444059	0	NA	0	0	0	0	NA	0	0	3	1	37
Arrow Flanker 2014	12183	1	"<?xml version=""1.0""?>\n<Clock xmlns:dt=""urn:schemas-microsoft-com:datatypes""><Description dt:dt=""string"">E-Prime Primary Realtime Clock</Description><StartTime><Timestamp dt:dt=""int"">0</Timestamp><DateUtc dt:dt=""string"">2015-04-14T20:52:40Z</DateUtc></StartTime><FrequencyChanges><FrequencyChange><Frequency dt:dt=""r8"">2825654</Frequency><Timestamp dt:dt=""r8"">3218775145837</Timestamp><Current dt:dt=""r8"">0</Current><DateUtc dt:dt=""string"">2015-04-14T20:52:40Z</DateUtc></FrequencyChange></FrequencyChanges></Clock>\n"	Arrow Flanker 2014-12183-1	60.018	1.0.0.100	1	1845212477	Professional	2.0.10.353	2.0.10.353	04-14-2015	4/14/2015 8:52:41 PM	16:52:41	2.0.10.248	6	1	1	1	NA	NA	NA	NA	NA	NA	NA	NA	NA	NA	NA	NA	NA	NA	NA	NA	NA	NA	NA	NA	NA	NA	NA	NA	BlockProc	BlockList	NA	38	{LEFTARROW}	NA	-100	1568	congruent	NA	NA	NA	NA	NA	NA	NA	NA	NA	NA	NA	NA	NA	NA	NA	NA	NA	NA	NA	NA	NA	NA	TrialProc	TrialList	0	19	448058	16	0	29	445492	0	1	{LEFTARROW}	-999999	0	446775	0	{LEFTARROW}	1263	448038	NA	NA	left	lllll.bmp	354	0	NA	0	0	0	0	NA	0	0	0	NA	0	0	0	0	NA	0	0	1	1	38
Arrow Flanker 2014	12183	1	"<?xml version=""1.0""?>\n<Clock xmlns:dt=""urn:schemas-microsoft-com:datatypes""><Description dt:dt=""string"">E-Prime Primary Realtime Clock</Description><StartTime><Timestamp dt:dt=""int"">0</Timestamp><DateUtc dt:dt=""string"">2015-04-14T20:52:40Z</DateUtc></StartTime><FrequencyChanges><FrequencyChange><Frequency dt:dt=""r8"">2825654</Frequency><Timestamp dt:dt=""r8"">3218775145837</Timestamp><Current dt:dt=""r8"">0</Current><DateUtc dt:dt=""string"">2015-04-14T20:52:40Z</DateUtc></FrequencyChange></FrequencyChanges></Clock>\n"	Arrow Flanker 2014-12183-1	60.018	1.0.0.100	1	1845212477	Professional	2.0.10.353	2.0.10.353	04-14-2015	4/14/2015 8:52:41 PM	16:52:41	2.0.10.248	6	1	1	1	NA	NA	NA	NA	NA	NA	NA	NA	NA	NA	NA	NA	NA	NA	NA	NA	NA	NA	NA	NA	NA	NA	NA	NA	BlockProc	BlockList	NA	39	{RIGHTARROW}	NA	-100	1477	neutral	NA	NA	NA	NA	NA	NA	NA	NA	NA	NA	NA	NA	NA	NA	NA	NA	NA	NA	NA	NA	NA	NA	TrialProc	TrialList	1	7	450190	17	0	17	448591	0	1	{RIGHTARROW}	-999999	0	449674	0	{RIGHTARROW}	508	450182	NA	NA	right	ooroo.bmp	354	0	NA	0	0	0	0	NA	0	0	0	NA	0	0	0	0	NA	0	0	6	1	39
Arrow Flanker 2014	12183	1	"<?xml version=""1.0""?>\n<Clock xmlns:dt=""urn:schemas-microsoft-com:datatypes""><Description dt:dt=""string"">E-Prime Primary Realtime Clock</Description><StartTime><Timestamp dt:dt=""int"">0</Timestamp><DateUtc dt:dt=""string"">2015-04-14T20:52:40Z</DateUtc></StartTime><FrequencyChanges><FrequencyChange><Frequency dt:dt=""r8"">2825654</Frequency><Timestamp dt:dt=""r8"">3218775145837</Timestamp><Current dt:dt=""r8"">0</Current><DateUtc dt:dt=""string"">2015-04-14T20:52:40Z</DateUtc></FrequencyChange></FrequencyChanges></Clock>\n"	Arrow Flanker 2014-12183-1	60.018	1.0.0.100	1	1845212477	Professional	2.0.10.353	2.0.10.353	04-14-2015	4/14/2015 8:52:41 PM	16:52:41	2.0.10.248	6	1	1	1	NA	NA	NA	NA	NA	NA	NA	NA	NA	NA	NA	NA	NA	NA	NA	NA	NA	NA	NA	NA	NA	NA	NA	NA	BlockProc	BlockList	NA	40	{LEFTARROW}	NA	-100	1168	neutral	NA	NA	NA	NA	NA	NA	NA	NA	NA	NA	NA	NA	NA	NA	NA	NA	NA	NA	NA	NA	NA	NA	TrialProc	TrialList	1	11	452273	17	0	17	450724	0	1	{LEFTARROW}	-999999	16	451840	0	{LEFTARROW}	422	452262	NA	NA	left	ooloo.bmp	354	0	NA	0	0	0	0	NA	0	0	0	NA	0	0	0	0	NA	0	0	5	1	40
Arrow Flanker 2014	12183	1	"<?xml version=""1.0""?>\n<Clock xmlns:dt=""urn:schemas-microsoft-com:datatypes""><Description dt:dt=""string"">E-Prime Primary Realtime Clock</Description><StartTime><Timestamp dt:dt=""int"">0</Timestamp><DateUtc dt:dt=""string"">2015-04-14T20:52:40Z</DateUtc></StartTime><FrequencyChanges><FrequencyChange><Frequency dt:dt=""r8"">2825654</Frequency><Timestamp dt:dt=""r8"">3218775145837</Timestamp><Current dt:dt=""r8"">0</Current><DateUtc dt:dt=""string"">2015-04-14T20:52:40Z</DateUtc></FrequencyChange></FrequencyChanges></Clock>\n"	Arrow Flanker 2014-12183-1	60.018	1.0.0.100	1	1845212477	Professional	2.0.10.353	2.0.10.353	04-14-2015	4/14/2015 8:52:41 PM	16:52:41	2.0.10.248	6	1	1	1	NA	NA	NA	NA	NA	NA	NA	NA	NA	NA	NA	NA	NA	NA	NA	NA	NA	NA	NA	NA	NA	NA	NA	NA	BlockProc	BlockList	NA	41	{LEFTARROW}	NA	-100	2435	congruent	NA	NA	NA	NA	NA	NA	NA	NA	NA	NA	NA	NA	NA	NA	NA	NA	NA	NA	NA	NA	NA	NA	TrialProc	TrialList	0	9	455439	17	0	16	452806	0	1	{LEFTARROW}	-999999	0	454839	0	{LEFTARROW}	591	455430	NA	NA	left	lllll.bmp	354	0	NA	0	0	0	0	NA	0	0	0	NA	0	0	0	0	NA	0	0	1	1	41
Arrow Flanker 2014	12183	1	"<?xml version=""1.0""?>\n<Clock xmlns:dt=""urn:schemas-microsoft-com:datatypes""><Description dt:dt=""string"">E-Prime Primary Realtime Clock</Description><StartTime><Timestamp dt:dt=""int"">0</Timestamp><DateUtc dt:dt=""string"">2015-04-14T20:52:40Z</DateUtc></StartTime><FrequencyChanges><FrequencyChange><Frequency dt:dt=""r8"">2825654</Frequency><Timestamp dt:dt=""r8"">3218775145837</Timestamp><Current dt:dt=""r8"">0</Current><DateUtc dt:dt=""string"">2015-04-14T20:52:40Z</DateUtc></FrequencyChange></FrequencyChanges></Clock>\n"	Arrow Flanker 2014-12183-1	60.018	1.0.0.100	1	1845212477	Professional	2.0.10.353	2.0.10.353	04-14-2015	4/14/2015 8:52:41 PM	16:52:41	2.0.10.248	6	1	1	1	NA	NA	NA	NA	NA	NA	NA	NA	NA	NA	NA	NA	NA	NA	NA	NA	NA	NA	NA	NA	NA	NA	NA	NA	BlockProc	BlockList	NA	42	{RIGHTARROW}	NA	-100	987	incongruent	NA	NA	NA	NA	NA	NA	NA	NA	NA	NA	NA	NA	NA	NA	NA	NA	NA	NA	NA	NA	NA	NA	TrialProc	TrialList	0	8	457822	16	0	16	455972	0	1	{RIGHTARROW}	-999999	0	456922	0	{RIGHTARROW}	892	457814	NA	NA	right	llrll.bmp	354	0	NA	0	0	0	0	NA	0	0	0	NA	0	0	0	0	NA	0	0	4	1	42
Arrow Flanker 2014	12183	1	"<?xml version=""1.0""?>\n<Clock xmlns:dt=""urn:schemas-microsoft-com:datatypes""><Description dt:dt=""string"">E-Prime Primary Realtime Clock</Description><StartTime><Timestamp dt:dt=""int"">0</Timestamp><DateUtc dt:dt=""string"">2015-04-14T20:52:40Z</DateUtc></StartTime><FrequencyChanges><FrequencyChange><Frequency dt:dt=""r8"">2825654</Frequency><Timestamp dt:dt=""r8"">3218775145837</Timestamp><Current dt:dt=""r8"">0</Current><DateUtc dt:dt=""string"">2015-04-14T20:52:40Z</DateUtc></FrequencyChange></FrequencyChanges></Clock>\n"	Arrow Flanker 2014-12183-1	60.018	1.0.0.100	1	1845212477	Professional	2.0.10.353	2.0.10.353	04-14-2015	4/14/2015 8:52:41 PM	16:52:41	2.0.10.248	6	1	1	1	NA	NA	NA	NA	NA	NA	NA	NA	NA	NA	NA	NA	NA	NA	NA	NA	NA	NA	NA	NA	NA	NA	NA	NA	BlockProc	BlockList	NA	43	{RIGHTARROW}	NA	-100	1079	congruent	NA	NA	NA	NA	NA	NA	NA	NA	NA	NA	NA	NA	NA	NA	NA	NA	NA	NA	NA	NA	NA	NA	TrialProc	TrialList	0	18	460504	17	0	17	458355	0	1	{RIGHTARROW}	-999999	0	459888	0	{RIGHTARROW}	598	460486	NA	NA	right	rrrrr.bmp	354	0	NA	0	0	0	0	NA	0	0	0	NA	0	0	0	0	NA	0	0	2	1	43
Arrow Flanker 2014	12183	1	"<?xml version=""1.0""?>\n<Clock xmlns:dt=""urn:schemas-microsoft-com:datatypes""><Description dt:dt=""string"">E-Prime Primary Realtime Clock</Description><StartTime><Timestamp dt:dt=""int"">0</Timestamp><DateUtc dt:dt=""string"">2015-04-14T20:52:40Z</DateUtc></StartTime><FrequencyChanges><FrequencyChange><Frequency dt:dt=""r8"">2825654</Frequency><Timestamp dt:dt=""r8"">3218775145837</Timestamp><Current dt:dt=""r8"">0</Current><DateUtc dt:dt=""string"">2015-04-14T20:52:40Z</DateUtc></FrequencyChange></FrequencyChanges></Clock>\n"	Arrow Flanker 2014-12183-1	60.018	1.0.0.100	1	1845212477	Professional	2.0.10.353	2.0.10.353	04-14-2015	4/14/2015 8:52:41 PM	16:52:41	2.0.10.248	6	1	1	1	NA	NA	NA	NA	NA	NA	NA	NA	NA	NA	NA	NA	NA	NA	NA	NA	NA	NA	NA	NA	NA	NA	NA	NA	BlockProc	BlockList	NA	44	{LEFTARROW}	NA	-100	1005	neutral	NA	NA	NA	NA	NA	NA	NA	NA	NA	NA	NA	NA	NA	NA	NA	NA	NA	NA	NA	NA	NA	NA	TrialProc	TrialList	0	7	463037	16	0	16	461037	0	1	{LEFTARROW}	-999999	0	462387	0	{LEFTARROW}	643	463030	NA	NA	left	ooloo.bmp	354	0	NA	0	0	0	0	NA	0	0	0	NA	0	0	0	0	NA	0	0	5	1	44
Arrow Flanker 2014	12183	1	"<?xml version=""1.0""?>\n<Clock xmlns:dt=""urn:schemas-microsoft-com:datatypes""><Description dt:dt=""string"">E-Prime Primary Realtime Clock</Description><StartTime><Timestamp dt:dt=""int"">0</Timestamp><DateUtc dt:dt=""string"">2015-04-14T20:52:40Z</DateUtc></StartTime><FrequencyChanges><FrequencyChange><Frequency dt:dt=""r8"">2825654</Frequency><Timestamp dt:dt=""r8"">3218775145837</Timestamp><Current dt:dt=""r8"">0</Current><DateUtc dt:dt=""string"">2015-04-14T20:52:40Z</DateUtc></FrequencyChange></FrequencyChanges></Clock>\n"	Arrow Flanker 2014-12183-1	60.018	1.0.0.100	1	1845212477	Professional	2.0.10.353	2.0.10.353	04-14-2015	4/14/2015 8:52:41 PM	16:52:41	2.0.10.248	6	1	1	1	NA	NA	NA	NA	NA	NA	NA	NA	NA	NA	NA	NA	NA	NA	NA	NA	NA	NA	NA	NA	NA	NA	NA	NA	BlockProc	BlockList	NA	45	{RIGHTARROW}	NA	-100	1252	congruent	NA	NA	NA	NA	NA	NA	NA	NA	NA	NA	NA	NA	NA	NA	NA	NA	NA	NA	NA	NA	NA	NA	TrialProc	TrialList	0	5	465403	16	0	17	463570	0	1	{RIGHTARROW}	-999999	0	464720	0	{RIGHTARROW}	677	465397	NA	NA	right	rrrrr.bmp	354	0	NA	0	0	0	0	NA	0	0	0	NA	0	0	0	0	NA	0	0	2	1	45
Arrow Flanker 2014	12183	1	"<?xml version=""1.0""?>\n<Clock xmlns:dt=""urn:schemas-microsoft-com:datatypes""><Description dt:dt=""string"">E-Prime Primary Realtime Clock</Description><StartTime><Timestamp dt:dt=""int"">0</Timestamp><DateUtc dt:dt=""string"">2015-04-14T20:52:40Z</DateUtc></StartTime><FrequencyChanges><FrequencyChange><Frequency dt:dt=""r8"">2825654</Frequency><Timestamp dt:dt=""r8"">3218775145837</Timestamp><Current dt:dt=""r8"">0</Current><DateUtc dt:dt=""string"">2015-04-14T20:52:40Z</DateUtc></FrequencyChange></FrequencyChanges></Clock>\n"	Arrow Flanker 2014-12183-1	60.018	1.0.0.100	1	1845212477	Professional	2.0.10.353	2.0.10.353	04-14-2015	4/14/2015 8:52:41 PM	16:52:41	2.0.10.248	6	1	1	1	NA	NA	NA	NA	NA	NA	NA	NA	NA	NA	NA	NA	NA	NA	NA	NA	NA	NA	NA	NA	NA	NA	NA	NA	BlockProc	BlockList	NA	46	{LEFTARROW}	NA	-100	1171	incongruent	NA	NA	NA	NA	NA	NA	NA	NA	NA	NA	NA	NA	NA	NA	NA	NA	NA	NA	NA	NA	NA	NA	TrialProc	TrialList	1	5	468235	17	0	17	465936	0	1	{LEFTARROW}	-999999	0	467519	0	{LEFTARROW}	710	468229	NA	NA	left	rrlrr.bmp	354	0	NA	0	0	0	0	NA	0	0	0	NA	0	0	0	0	NA	0	0	3	1	46
Arrow Flanker 2014	12183	1	"<?xml version=""1.0""?>\n<Clock xmlns:dt=""urn:schemas-microsoft-com:datatypes""><Description dt:dt=""string"">E-Prime Primary Realtime Clock</Description><StartTime><Timestamp dt:dt=""int"">0</Timestamp><DateUtc dt:dt=""string"">2015-04-14T20:52:40Z</DateUtc></StartTime><FrequencyChanges><FrequencyChange><Frequency dt:dt=""r8"">2825654</Frequency><Timestamp dt:dt=""r8"">3218775145837</Timestamp><Current dt:dt=""r8"">0</Current><DateUtc dt:dt=""string"">2015-04-14T20:52:40Z</DateUtc></FrequencyChange></FrequencyChanges></Clock>\n"	Arrow Flanker 2014-12183-1	60.018	1.0.0.100	1	1845212477	Professional	2.0.10.353	2.0.10.353	04-14-2015	4/14/2015 8:52:41 PM	16:52:41	2.0.10.248	6	1	1	1	NA	NA	NA	NA	NA	NA	NA	NA	NA	NA	NA	NA	NA	NA	NA	NA	NA	NA	NA	NA	NA	NA	NA	NA	BlockProc	BlockList	NA	47	{LEFTARROW}	NA	-100	2310	neutral	NA	NA	NA	NA	NA	NA	NA	NA	NA	NA	NA	NA	NA	NA	NA	NA	NA	NA	NA	NA	NA	NA	TrialProc	TrialList	0	20	471401	17	0	16	468768	0	1	{LEFTARROW}	-999999	0	470768	0	{LEFTARROW}	613	471381	NA	NA	left	ooloo.bmp	354	0	NA	0	0	0	0	NA	0	0	0	NA	0	0	0	0	NA	0	0	5	1	47
Arrow Flanker 2014	12183	1	"<?xml version=""1.0""?>\n<Clock xmlns:dt=""urn:schemas-microsoft-com:datatypes""><Description dt:dt=""string"">E-Prime Primary Realtime Clock</Description><StartTime><Timestamp dt:dt=""int"">0</Timestamp><DateUtc dt:dt=""string"">2015-04-14T20:52:40Z</DateUtc></StartTime><FrequencyChanges><FrequencyChange><Frequency dt:dt=""r8"">2825654</Frequency><Timestamp dt:dt=""r8"">3218775145837</Timestamp><Current dt:dt=""r8"">0</Current><DateUtc dt:dt=""string"">2015-04-14T20:52:40Z</DateUtc></FrequencyChange></FrequencyChanges></Clock>\n"	Arrow Flanker 2014-12183-1	60.018	1.0.0.100	1	1845212477	Professional	2.0.10.353	2.0.10.353	04-14-2015	4/14/2015 8:52:41 PM	16:52:41	2.0.10.248	6	1	1	1	NA	NA	NA	NA	NA	NA	NA	NA	NA	NA	NA	NA	NA	NA	NA	NA	NA	NA	NA	NA	NA	NA	NA	NA	BlockProc	BlockList	NA	48	{LEFTARROW}	NA	-100	1283	incongruent	NA	NA	NA	NA	NA	NA	NA	NA	NA	NA	NA	NA	NA	NA	NA	NA	NA	NA	NA	NA	NA	NA	TrialProc	TrialList	1	10	474783	17	0	16	471934	0	1	{LEFTARROW}	0	0	473400	0	{LEFTARROW}	1373	474773	NA	NA	left	rrlrr.bmp	354	0	NA	0	0	0	0	NA	0	0	0	NA	0	0	0	0	NA	0	0	3	1	48
Arrow Flanker 2014	12183	1	"<?xml version=""1.0""?>\n<Clock xmlns:dt=""urn:schemas-microsoft-com:datatypes""><Description dt:dt=""string"">E-Prime Primary Realtime Clock</Description><StartTime><Timestamp dt:dt=""int"">0</Timestamp><DateUtc dt:dt=""string"">2015-04-14T20:52:40Z</DateUtc></StartTime><FrequencyChanges><FrequencyChange><Frequency dt:dt=""r8"">2825654</Frequency><Timestamp dt:dt=""r8"">3218775145837</Timestamp><Current dt:dt=""r8"">0</Current><DateUtc dt:dt=""string"">2015-04-14T20:52:40Z</DateUtc></FrequencyChange></FrequencyChanges></Clock>\n"	Arrow Flanker 2014-12183-1	60.018	1.0.0.100	1	1845212477	Professional	2.0.10.353	2.0.10.353	04-14-2015	4/14/2015 8:52:41 PM	16:52:41	2.0.10.248	6	1	1	1	NA	NA	NA	NA	NA	NA	NA	NA	NA	NA	NA	NA	NA	NA	NA	NA	NA	NA	NA	NA	NA	NA	NA	NA	BlockProc	BlockList	NA	49	{RIGHTARROW}	NA	-100	782	neutral	NA	NA	NA	NA	NA	NA	NA	NA	NA	NA	NA	NA	NA	NA	NA	NA	NA	NA	NA	NA	NA	NA	TrialProc	TrialList	0	17	476966	17	0	16	475316	0	1	{RIGHTARROW}	-999999	-1	476249	0	{RIGHTARROW}	700	476949	NA	NA	right	ooroo.bmp	354	0	NA	0	0	0	0	NA	0	0	0	NA	0	0	0	0	NA	0	0	6	1	49
Arrow Flanker 2014	12183	1	"<?xml version=""1.0""?>\n<Clock xmlns:dt=""urn:schemas-microsoft-com:datatypes""><Description dt:dt=""string"">E-Prime Primary Realtime Clock</Description><StartTime><Timestamp dt:dt=""int"">0</Timestamp><DateUtc dt:dt=""string"">2015-04-14T20:52:40Z</DateUtc></StartTime><FrequencyChanges><FrequencyChange><Frequency dt:dt=""r8"">2825654</Frequency><Timestamp dt:dt=""r8"">3218775145837</Timestamp><Current dt:dt=""r8"">0</Current><DateUtc dt:dt=""string"">2015-04-14T20:52:40Z</DateUtc></FrequencyChange></FrequencyChanges></Clock>\n"	Arrow Flanker 2014-12183-1	60.018	1.0.0.100	1	1845212477	Professional	2.0.10.353	2.0.10.353	04-14-2015	4/14/2015 8:52:41 PM	16:52:41	2.0.10.248	6	1	1	1	NA	NA	NA	NA	NA	NA	NA	NA	NA	NA	NA	NA	NA	NA	NA	NA	NA	NA	NA	NA	NA	NA	NA	NA	BlockProc	BlockList	NA	50	{RIGHTARROW}	NA	-100	746	incongruent	NA	NA	NA	NA	NA	NA	NA	NA	NA	NA	NA	NA	NA	NA	NA	NA	NA	NA	NA	NA	NA	NA	TrialProc	TrialList	0	11	480032	16	0	16	477499	0	1	{RIGHTARROW}	0	0	478699	0	{RIGHTARROW}	1322	480021	NA	NA	right	llrll.bmp	354	0	NA	0	0	0	0	NA	0	0	0	NA	0	0	0	0	NA	0	0	4	1	50
Arrow Flanker 2014	12183	1	"<?xml version=""1.0""?>\n<Clock xmlns:dt=""urn:schemas-microsoft-com:datatypes""><Description dt:dt=""string"">E-Prime Primary Realtime Clock</Description><StartTime><Timestamp dt:dt=""int"">0</Timestamp><DateUtc dt:dt=""string"">2015-04-14T20:52:40Z</DateUtc></StartTime><FrequencyChanges><FrequencyChange><Frequency dt:dt=""r8"">2825654</Frequency><Timestamp dt:dt=""r8"">3218775145837</Timestamp><Current dt:dt=""r8"">0</Current><DateUtc dt:dt=""string"">2015-04-14T20:52:40Z</DateUtc></FrequencyChange></FrequencyChanges></Clock>\n"	Arrow Flanker 2014-12183-1	60.018	1.0.0.100	1	1845212477	Professional	2.0.10.353	2.0.10.353	04-14-2015	4/14/2015 8:52:41 PM	16:52:41	2.0.10.248	6	1	1	1	NA	NA	NA	NA	NA	NA	NA	NA	NA	NA	NA	NA	NA	NA	NA	NA	NA	NA	NA	NA	NA	NA	NA	NA	BlockProc	BlockList	NA	51	{LEFTARROW}	NA	-100	1530	incongruent	NA	NA	NA	NA	NA	NA	NA	NA	NA	NA	NA	NA	NA	NA	NA	NA	NA	NA	NA	NA	NA	NA	TrialProc	TrialList	1	19	482264	17	0	17	480565	0	1	{LEFTARROW}	-999999	0	481615	0	{LEFTARROW}	630	482245	NA	NA	left	rrlrr.bmp	354	0	NA	0	0	0	0	NA	0	0	0	NA	0	0	0	0	NA	0	0	3	1	51
Arrow Flanker 2014	12183	1	"<?xml version=""1.0""?>\n<Clock xmlns:dt=""urn:schemas-microsoft-com:datatypes""><Description dt:dt=""string"">E-Prime Primary Realtime Clock</Description><StartTime><Timestamp dt:dt=""int"">0</Timestamp><DateUtc dt:dt=""string"">2015-04-14T20:52:40Z</DateUtc></StartTime><FrequencyChanges><FrequencyChange><Frequency dt:dt=""r8"">2825654</Frequency><Timestamp dt:dt=""r8"">3218775145837</Timestamp><Current dt:dt=""r8"">0</Current><DateUtc dt:dt=""string"">2015-04-14T20:52:40Z</DateUtc></FrequencyChange></FrequencyChanges></Clock>\n"	Arrow Flanker 2014-12183-1	60.018	1.0.0.100	1	1845212477	Professional	2.0.10.353	2.0.10.353	04-14-2015	4/14/2015 8:52:41 PM	16:52:41	2.0.10.248	6	1	1	1	NA	NA	NA	NA	NA	NA	NA	NA	NA	NA	NA	NA	NA	NA	NA	NA	NA	NA	NA	NA	NA	NA	NA	NA	BlockProc	BlockList	NA	52	{RIGHTARROW}	NA	-100	1553	neutral	NA	NA	NA	NA	NA	NA	NA	NA	NA	NA	NA	NA	NA	NA	NA	NA	NA	NA	NA	NA	NA	NA	TrialProc	TrialList	0	12	484897	17	0	17	482798	0	1	{RIGHTARROW}	-999999	0	484314	0	{RIGHTARROW}	570	484884	NA	NA	right	ooroo.bmp	354	0	NA	0	0	0	0	NA	0	0	0	NA	0	0	0	0	NA	0	0	6	1	52
Arrow Flanker 2014	12183	1	"<?xml version=""1.0""?>\n<Clock xmlns:dt=""urn:schemas-microsoft-com:datatypes""><Description dt:dt=""string"">E-Prime Primary Realtime Clock</Description><StartTime><Timestamp dt:dt=""int"">0</Timestamp><DateUtc dt:dt=""string"">2015-04-14T20:52:40Z</DateUtc></StartTime><FrequencyChanges><FrequencyChange><Frequency dt:dt=""r8"">2825654</Frequency><Timestamp dt:dt=""r8"">3218775145837</Timestamp><Current dt:dt=""r8"">0</Current><DateUtc dt:dt=""string"">2015-04-14T20:52:40Z</DateUtc></FrequencyChange></FrequencyChanges></Clock>\n"	Arrow Flanker 2014-12183-1	60.018	1.0.0.100	1	1845212477	Professional	2.0.10.353	2.0.10.353	04-14-2015	4/14/2015 8:52:41 PM	16:52:41	2.0.10.248	6	1	1	1	NA	NA	NA	NA	NA	NA	NA	NA	NA	NA	NA	NA	NA	NA	NA	NA	NA	NA	NA	NA	NA	NA	NA	NA	BlockProc	BlockList	NA	53	{RIGHTARROW}	NA	-100	1544	neutral	NA	NA	NA	NA	NA	NA	NA	NA	NA	NA	NA	NA	NA	NA	NA	NA	NA	NA	NA	NA	NA	NA	TrialProc	TrialList	0	5	487513	16	0	16	485430	0	0	{RIGHTARROW}	-999999	0	487080	0	{LEFTARROW}	428	487508	NA	NA	right	ooroo.bmp	354	0	NA	0	0	0	0	NA	0	0	0	NA	0	0	0	0	NA	0	0	6	1	53
Arrow Flanker 2014	12183	1	"<?xml version=""1.0""?>\n<Clock xmlns:dt=""urn:schemas-microsoft-com:datatypes""><Description dt:dt=""string"">E-Prime Primary Realtime Clock</Description><StartTime><Timestamp dt:dt=""int"">0</Timestamp><DateUtc dt:dt=""string"">2015-04-14T20:52:40Z</DateUtc></StartTime><FrequencyChanges><FrequencyChange><Frequency dt:dt=""r8"">2825654</Frequency><Timestamp dt:dt=""r8"">3218775145837</Timestamp><Current dt:dt=""r8"">0</Current><DateUtc dt:dt=""string"">2015-04-14T20:52:40Z</DateUtc></FrequencyChange></FrequencyChanges></Clock>\n"	Arrow Flanker 2014-12183-1	60.018	1.0.0.100	1	1845212477	Professional	2.0.10.353	2.0.10.353	04-14-2015	4/14/2015 8:52:41 PM	16:52:41	2.0.10.248	6	1	1	1	NA	NA	NA	NA	NA	NA	NA	NA	NA	NA	NA	NA	NA	NA	NA	NA	NA	NA	NA	NA	NA	NA	NA	NA	BlockProc	BlockList	NA	54	{LEFTARROW}	NA	-100	2607	congruent	NA	NA	NA	NA	NA	NA	NA	NA	NA	NA	NA	NA	NA	NA	NA	NA	NA	NA	NA	NA	2	1	TrialProc	TrialList	0	3	491079	16	0	17	488046	0	1	{LEFTARROW}	-999999	0	490145	0	{LEFTARROW}	931	491076	NA	NA	left	lllll.bmp	354	0	NA	-999999	17	491612	0	1	2308	493920	0	NA	-999999	8	493928	0	1	2416	496344	1	1	54
