ExperimentName	Subject	Session	Clock.Information	DataFile.Basename	Display.RefreshRate	ExperimentVersion	Group	RandomSeed	RuntimeCapabilities	RuntimeVersion	RuntimeVersionExpected	SessionDate	SessionStartDateTimeUtc	SessionTime	StudioVersion	Block	BlockList	BlockList.Cycle	BlockList.Sample	Both	CompletelyMW	CongMeanRT	CongTotal	Fragmented	GoodByeList	GoodByeList.Cycle	GoodByeList.Sample	IncongMeanRT	IncongTotal	MapBlockList	MapBlockList.Cycle	MapBlockList.Sample	Mindwandering	MostlyMW	MostlyOT	NeutralMeanRT	NeutralTotal	NumberProbes1	NumberProbes2	OnTask	PracBlockList	PracBlockList.Cycle	PracBlockList.Sample	Procedure[Block]	Running[Block]	Sequential	Trial	CorrectAnswer	CuePositionY	CuePositionY2	DurationOfFixation	FlankerType	MapTrialList	MapTrialList.Cycle	MapTrialList.Sample	PracSlideFixationStart.DurationError	PracSlideFixationStart.OnsetDelay	PracSlideFixationStart.OnsetTime	PracSlideFixationStart.OnsetToOnsetTime	PracSlideTarget.ACC	PracSlideTarget.CRESP	PracSlideTarget.DurationError	PracSlideTarget.OnsetDelay	PracSlideTarget.OnsetTime	PracSlideTarget.OnsetToOnsetTime	PracSlideTarget.RESP	PracSlideTarget.RT	PracSlideTarget.RTTime	PracSlideTarget.Tag	PracTrialList	PracTrialList.Cycle	PracTrialList.Sample	Probe1Resp	Probe2Resp	Procedure[Trial]	Running[Trial]	SlideFixationEnd.DurationError	SlideFixationEnd.OnsetDelay	SlideFixationEnd.OnsetTime	SlideFixationEnd.OnsetToOnsetTime	SlideFixationStart.DurationError	SlideFixationStart.OnsetDelay	SlideFixationStart.OnsetTime	SlideFixationStart.OnsetToOnsetTime	SlideTarget.ACC	SlideTarget.CRESP	SlideTarget.DurationError	SlideTarget.OnsetDelay	SlideTarget.OnsetTime	SlideTarget.OnsetToOnsetTime	SlideTarget.RESP	SlideTarget.RT	SlideTarget.RTTime	SlideTarget.Tag	TargerDirection	TargetDirection	TargetImage	TargetPosition	ThoughtProbe1.ACC	ThoughtProbe1.CRESP	ThoughtProbe1.DurationError	ThoughtProbe1.OnsetDelay	ThoughtProbe1.OnsetTime	ThoughtProbe1.OnsetToOnsetTime	ThoughtProbe1.RESP	ThoughtProbe1.RT	ThoughtProbe1.RTTime	ThoughtProbe2.ACC	ThoughtProbe2.CRESP	ThoughtProbe2.DurationError	ThoughtProbe2.OnsetDelay	ThoughtProbe2.OnsetTime	ThoughtProbe2.OnsetToOnsetTime	ThoughtProbe2.RESP	ThoughtProbe2.RT	ThoughtProbe2.RTTime	TrialList	TrialList.Cycle	TrialList.Sample
Arrow Flanker 2014	12292	1	"<?xml version=""1.0""?>\n<Clock xmlns:dt=""urn:schemas-microsoft-com:datatypes""><Description dt:dt=""string"">E-Prime Primary Realtime Clock</Description><StartTime><Timestamp dt:dt=""int"">0</Timestamp><DateUtc dt:dt=""string"">2015-05-20T15:57:52Z</DateUtc></StartTime><FrequencyChanges><FrequencyChange><Frequency dt:dt=""r8"">2825644</Frequency><Timestamp dt:dt=""r8"">1796441148138</Timestamp><Current dt:dt=""r8"">0</Current><DateUtc dt:dt=""string"">2015-05-20T15:57:52Z</DateUtc></FrequencyChange></FrequencyChanges></Clock>\n"	Arrow Flanker 2014-12292-1	60.018	1.0.0.100	1	1145386412	Professional	2.0.10.353	2.0.10.353	05-20-2015	5/20/2015 3:57:53 PM	11:57:53	2.0.10.248	1	NA	NA	NA	NA	NA	NA	NA	NA	NA	NA	NA	NA	NA	1	1	1	NA	NA	NA	NA	NA	NA	NA	NA	NA	NA	NA	MapBlockProc	MapBlockList	NA	1	{LEFTARROW}	-100	NA	468	NA	1	1	1	0	22	73691	483	1	{LEFTARROW}	-999999	0	74674	0	{LEFTARROW}	1507	76181	NA	NA	NA	NA	NA	NA	MapTrialProc	MapTrialList	NA	NA	NA	NA	NA	NA	NA	NA	NA	NA	NA	NA	NA	NA	NA	NA	NA	NA	left	NA	L.bmp	354	NA	NA	NA	NA	NA	NA	NA	NA	NA	NA	NA	NA	NA	NA	NA	NA	NA	NA	NA	NA	NA
Arrow Flanker 2014	12292	1	"<?xml version=""1.0""?>\n<Clock xmlns:dt=""urn:schemas-microsoft-com:datatypes""><Description dt:dt=""string"">E-Prime Primary Realtime Clock</Description><StartTime><Timestamp dt:dt=""int"">0</Timestamp><DateUtc dt:dt=""string"">2015-05-20T15:57:52Z</DateUtc></StartTime><FrequencyChanges><FrequencyChange><Frequency dt:dt=""r8"">2825644</Frequency><Timestamp dt:dt=""r8"">1796441148138</Timestamp><Current dt:dt=""r8"">0</Current><DateUtc dt:dt=""string"">2015-05-20T15:57:52Z</DateUtc></FrequencyChange></FrequencyChanges></Clock>\n"	Arrow Flanker 2014-12292-1	60.018	1.0.0.100	1	1145386412	Professional	2.0.10.353	2.0.10.353	05-20-2015	5/20/2015 3:57:53 PM	11:57:53	2.0.10.248	1	NA	NA	NA	NA	NA	NA	NA	NA	NA	NA	NA	NA	NA	1	1	1	NA	NA	NA	NA	NA	NA	NA	NA	NA	NA	NA	MapBlockProc	MapBlockList	NA	2	{LEFTARROW}	-100	NA	1465	NA	1	1	2	0	16	77723	1467	1	{LEFTARROW}	-999999	0	79690	0	{LEFTARROW}	619	80309	NA	NA	NA	NA	NA	NA	MapTrialProc	MapTrialList	NA	NA	NA	NA	NA	NA	NA	NA	NA	NA	NA	NA	NA	NA	NA	NA	NA	NA	left	NA	L.bmp	354	NA	NA	NA	NA	NA	NA	NA	NA	NA	NA	NA	NA	NA	NA	NA	NA	NA	NA	NA	NA	NA
Arrow Flanker 2014	12292	1	"<?xml version=""1.0""?>\n<Clock xmlns:dt=""urn:schemas-microsoft-com:datatypes""><Description dt:dt=""string"">E-Prime Primary Realtime Clock</Description><StartTime><Timestamp dt:dt=""int"">0</Timestamp><DateUtc dt:dt=""string"">2015-05-20T15:57:52Z</DateUtc></StartTime><FrequencyChanges><FrequencyChange><Frequency dt:dt=""r8"">2825644</Frequency><Timestamp dt:dt=""r8"">1796441148138</Timestamp><Current dt:dt=""r8"">0</Current><DateUtc dt:dt=""string"">2015-05-20T15:57:52Z</DateUtc></FrequencyChange></FrequencyChanges></Clock>\n"	Arrow Flanker 2014-12292-1	60.018	1.0.0.100	1	1145386412	Professional	2.0.10.353	2.0.10.353	05-20-2015	5/20/2015 3:57:53 PM	11:57:53	2.0.10.248	1	NA	NA	NA	NA	NA	NA	NA	NA	NA	NA	NA	NA	NA	1	1	1	NA	NA	NA	NA	NA	NA	NA	NA	NA	NA	NA	MapBlockProc	MapBlockList	NA	3	{LEFTARROW}	-100	NA	915	NA	1	1	3	0	16	81839	916	1	{LEFTARROW}	-999999	0	83255	0	{LEFTARROW}	622	83877	NA	NA	NA	NA	NA	NA	MapTrialProc	MapTrialList	NA	NA	NA	NA	NA	NA	NA	NA	NA	NA	NA	NA	NA	NA	NA	NA	NA	NA	left	NA	L.bmp	354	NA	NA	NA	NA	NA	NA	NA	NA	NA	NA	NA	NA	NA	NA	NA	NA	NA	NA	NA	NA	NA
Arrow Flanker 2014	12292	1	"<?xml version=""1.0""?>\n<Clock xmlns:dt=""urn:schemas-microsoft-com:datatypes""><Description dt:dt=""string"">E-Prime Primary Realtime Clock</Description><StartTime><Timestamp dt:dt=""int"">0</Timestamp><DateUtc dt:dt=""string"">2015-05-20T15:57:52Z</DateUtc></StartTime><FrequencyChanges><FrequencyChange><Frequency dt:dt=""r8"">2825644</Frequency><Timestamp dt:dt=""r8"">1796441148138</Timestamp><Current dt:dt=""r8"">0</Current><DateUtc dt:dt=""string"">2015-05-20T15:57:52Z</DateUtc></FrequencyChange></FrequencyChanges></Clock>\n"	Arrow Flanker 2014-12292-1	60.018	1.0.0.100	1	1145386412	Professional	2.0.10.353	2.0.10.353	05-20-2015	5/20/2015 3:57:53 PM	11:57:53	2.0.10.248	1	NA	NA	NA	NA	NA	NA	NA	NA	NA	NA	NA	NA	NA	1	1	1	NA	NA	NA	NA	NA	NA	NA	NA	NA	NA	NA	MapBlockProc	MapBlockList	NA	4	{RIGHTARROW}	-100	NA	665	NA	2	1	4	0	17	85405	666	1	{RIGHTARROW}	-999999	0	86571	0	{RIGHTARROW}	537	87108	NA	NA	NA	NA	NA	NA	MapTrialProc	MapTrialList	NA	NA	NA	NA	NA	NA	NA	NA	NA	NA	NA	NA	NA	NA	NA	NA	NA	NA	right	NA	R.bmp	354	NA	NA	NA	NA	NA	NA	NA	NA	NA	NA	NA	NA	NA	NA	NA	NA	NA	NA	NA	NA	NA
Arrow Flanker 2014	12292	1	"<?xml version=""1.0""?>\n<Clock xmlns:dt=""urn:schemas-microsoft-com:datatypes""><Description dt:dt=""string"">E-Prime Primary Realtime Clock</Description><StartTime><Timestamp dt:dt=""int"">0</Timestamp><DateUtc dt:dt=""string"">2015-05-20T15:57:52Z</DateUtc></StartTime><FrequencyChanges><FrequencyChange><Frequency dt:dt=""r8"">2825644</Frequency><Timestamp dt:dt=""r8"">1796441148138</Timestamp><Current dt:dt=""r8"">0</Current><DateUtc dt:dt=""string"">2015-05-20T15:57:52Z</DateUtc></FrequencyChange></FrequencyChanges></Clock>\n"	Arrow Flanker 2014-12292-1	60.018	1.0.0.100	1	1145386412	Professional	2.0.10.353	2.0.10.353	05-20-2015	5/20/2015 3:57:53 PM	11:57:53	2.0.10.248	1	NA	NA	NA	NA	NA	NA	NA	NA	NA	NA	NA	NA	NA	1	1	1	NA	NA	NA	NA	NA	NA	NA	NA	NA	NA	NA	MapBlockProc	MapBlockList	NA	5	{LEFTARROW}	-100	NA	871	NA	1	1	5	0	16	88637	883	1	{LEFTARROW}	-999999	0	90020	0	{LEFTARROW}	512	90532	NA	NA	NA	NA	NA	NA	MapTrialProc	MapTrialList	NA	NA	NA	NA	NA	NA	NA	NA	NA	NA	NA	NA	NA	NA	NA	NA	NA	NA	left	NA	L.bmp	354	NA	NA	NA	NA	NA	NA	NA	NA	NA	NA	NA	NA	NA	NA	NA	NA	NA	NA	NA	NA	NA
Arrow Flanker 2014	12292	1	"<?xml version=""1.0""?>\n<Clock xmlns:dt=""urn:schemas-microsoft-com:datatypes""><Description dt:dt=""string"">E-Prime Primary Realtime Clock</Description><StartTime><Timestamp dt:dt=""int"">0</Timestamp><DateUtc dt:dt=""string"">2015-05-20T15:57:52Z</DateUtc></StartTime><FrequencyChanges><FrequencyChange><Frequency dt:dt=""r8"">2825644</Frequency><Timestamp dt:dt=""r8"">1796441148138</Timestamp><Current dt:dt=""r8"">0</Current><DateUtc dt:dt=""string"">2015-05-20T15:57:52Z</DateUtc></FrequencyChange></FrequencyChanges></Clock>\n"	Arrow Flanker 2014-12292-1	60.018	1.0.0.100	1	1145386412	Professional	2.0.10.353	2.0.10.353	05-20-2015	5/20/2015 3:57:53 PM	11:57:53	2.0.10.248	1	NA	NA	NA	NA	NA	NA	NA	NA	NA	NA	NA	NA	NA	1	1	1	NA	NA	NA	NA	NA	NA	NA	NA	NA	NA	NA	MapBlockProc	MapBlockList	NA	6	{RIGHTARROW}	-100	NA	1483	NA	2	1	6	0	16	92069	1483	1	{RIGHTARROW}	-999999	0	94052	0	{RIGHTARROW}	448	94500	NA	NA	NA	NA	NA	NA	MapTrialProc	MapTrialList	NA	NA	NA	NA	NA	NA	NA	NA	NA	NA	NA	NA	NA	NA	NA	NA	NA	NA	right	NA	R.bmp	354	NA	NA	NA	NA	NA	NA	NA	NA	NA	NA	NA	NA	NA	NA	NA	NA	NA	NA	NA	NA	NA
Arrow Flanker 2014	12292	1	"<?xml version=""1.0""?>\n<Clock xmlns:dt=""urn:schemas-microsoft-com:datatypes""><Description dt:dt=""string"">E-Prime Primary Realtime Clock</Description><StartTime><Timestamp dt:dt=""int"">0</Timestamp><DateUtc dt:dt=""string"">2015-05-20T15:57:52Z</DateUtc></StartTime><FrequencyChanges><FrequencyChange><Frequency dt:dt=""r8"">2825644</Frequency><Timestamp dt:dt=""r8"">1796441148138</Timestamp><Current dt:dt=""r8"">0</Current><DateUtc dt:dt=""string"">2015-05-20T15:57:52Z</DateUtc></FrequencyChange></FrequencyChanges></Clock>\n"	Arrow Flanker 2014-12292-1	60.018	1.0.0.100	1	1145386412	Professional	2.0.10.353	2.0.10.353	05-20-2015	5/20/2015 3:57:53 PM	11:57:53	2.0.10.248	1	NA	NA	NA	NA	NA	NA	NA	NA	NA	NA	NA	NA	NA	1	1	1	NA	NA	NA	NA	NA	NA	NA	NA	NA	NA	NA	MapBlockProc	MapBlockList	NA	7	{LEFTARROW}	-100	NA	1390	NA	1	1	7	0	16	96035	1399	1	{LEFTARROW}	-999999	0	97934	0	{LEFTARROW}	486	98420	NA	NA	NA	NA	NA	NA	MapTrialProc	MapTrialList	NA	NA	NA	NA	NA	NA	NA	NA	NA	NA	NA	NA	NA	NA	NA	NA	NA	NA	left	NA	L.bmp	354	NA	NA	NA	NA	NA	NA	NA	NA	NA	NA	NA	NA	NA	NA	NA	NA	NA	NA	NA	NA	NA
Arrow Flanker 2014	12292	1	"<?xml version=""1.0""?>\n<Clock xmlns:dt=""urn:schemas-microsoft-com:datatypes""><Description dt:dt=""string"">E-Prime Primary Realtime Clock</Description><StartTime><Timestamp dt:dt=""int"">0</Timestamp><DateUtc dt:dt=""string"">2015-05-20T15:57:52Z</DateUtc></StartTime><FrequencyChanges><FrequencyChange><Frequency dt:dt=""r8"">2825644</Frequency><Timestamp dt:dt=""r8"">1796441148138</Timestamp><Current dt:dt=""r8"">0</Current><DateUtc dt:dt=""string"">2015-05-20T15:57:52Z</DateUtc></FrequencyChange></FrequencyChanges></Clock>\n"	Arrow Flanker 2014-12292-1	60.018	1.0.0.100	1	1145386412	Professional	2.0.10.353	2.0.10.353	05-20-2015	5/20/2015 3:57:53 PM	11:57:53	2.0.10.248	1	NA	NA	NA	NA	NA	NA	NA	NA	NA	NA	NA	NA	NA	1	1	1	NA	NA	NA	NA	NA	NA	NA	NA	NA	NA	NA	MapBlockProc	MapBlockList	NA	8	{RIGHTARROW}	-100	NA	487	NA	2	1	8	0	16	99950	500	1	{RIGHTARROW}	-999999	0	100950	0	{RIGHTARROW}	526	101476	NA	NA	NA	NA	NA	NA	MapTrialProc	MapTrialList	NA	NA	NA	NA	NA	NA	NA	NA	NA	NA	NA	NA	NA	NA	NA	NA	NA	NA	right	NA	R.bmp	354	NA	NA	NA	NA	NA	NA	NA	NA	NA	NA	NA	NA	NA	NA	NA	NA	NA	NA	NA	NA	NA
Arrow Flanker 2014	12292	1	"<?xml version=""1.0""?>\n<Clock xmlns:dt=""urn:schemas-microsoft-com:datatypes""><Description dt:dt=""string"">E-Prime Primary Realtime Clock</Description><StartTime><Timestamp dt:dt=""int"">0</Timestamp><DateUtc dt:dt=""string"">2015-05-20T15:57:52Z</DateUtc></StartTime><FrequencyChanges><FrequencyChange><Frequency dt:dt=""r8"">2825644</Frequency><Timestamp dt:dt=""r8"">1796441148138</Timestamp><Current dt:dt=""r8"">0</Current><DateUtc dt:dt=""string"">2015-05-20T15:57:52Z</DateUtc></FrequencyChange></FrequencyChanges></Clock>\n"	Arrow Flanker 2014-12292-1	60.018	1.0.0.100	1	1145386412	Professional	2.0.10.353	2.0.10.353	05-20-2015	5/20/2015 3:57:53 PM	11:57:53	2.0.10.248	1	NA	NA	NA	NA	NA	NA	NA	NA	NA	NA	NA	NA	NA	1	1	1	NA	NA	NA	NA	NA	NA	NA	NA	NA	NA	NA	MapBlockProc	MapBlockList	NA	9	{RIGHTARROW}	-100	NA	470	NA	2	1	9	0	16	103016	483	1	{RIGHTARROW}	-999999	0	103999	0	{RIGHTARROW}	484	104483	NA	NA	NA	NA	NA	NA	MapTrialProc	MapTrialList	NA	NA	NA	NA	NA	NA	NA	NA	NA	NA	NA	NA	NA	NA	NA	NA	NA	NA	right	NA	R.bmp	354	NA	NA	NA	NA	NA	NA	NA	NA	NA	NA	NA	NA	NA	NA	NA	NA	NA	NA	NA	NA	NA
Arrow Flanker 2014	12292	1	"<?xml version=""1.0""?>\n<Clock xmlns:dt=""urn:schemas-microsoft-com:datatypes""><Description dt:dt=""string"">E-Prime Primary Realtime Clock</Description><StartTime><Timestamp dt:dt=""int"">0</Timestamp><DateUtc dt:dt=""string"">2015-05-20T15:57:52Z</DateUtc></StartTime><FrequencyChanges><FrequencyChange><Frequency dt:dt=""r8"">2825644</Frequency><Timestamp dt:dt=""r8"">1796441148138</Timestamp><Current dt:dt=""r8"">0</Current><DateUtc dt:dt=""string"">2015-05-20T15:57:52Z</DateUtc></FrequencyChange></FrequencyChanges></Clock>\n"	Arrow Flanker 2014-12292-1	60.018	1.0.0.100	1	1145386412	Professional	2.0.10.353	2.0.10.353	05-20-2015	5/20/2015 3:57:53 PM	11:57:53	2.0.10.248	1	NA	NA	NA	NA	NA	NA	NA	NA	NA	NA	NA	NA	NA	1	1	1	NA	NA	NA	NA	NA	NA	NA	NA	NA	NA	NA	MapBlockProc	MapBlockList	NA	10	{RIGHTARROW}	-100	NA	1233	NA	2	1	10	0	16	106015	1233	1	{RIGHTARROW}	-999999	0	107748	0	{RIGHTARROW}	495	108243	NA	NA	NA	NA	NA	NA	MapTrialProc	MapTrialList	NA	NA	NA	NA	NA	NA	NA	NA	NA	NA	NA	NA	NA	NA	NA	NA	NA	NA	right	NA	R.bmp	354	NA	NA	NA	NA	NA	NA	NA	NA	NA	NA	NA	NA	NA	NA	NA	NA	NA	NA	NA	NA	NA
Arrow Flanker 2014	12292	1	"<?xml version=""1.0""?>\n<Clock xmlns:dt=""urn:schemas-microsoft-com:datatypes""><Description dt:dt=""string"">E-Prime Primary Realtime Clock</Description><StartTime><Timestamp dt:dt=""int"">0</Timestamp><DateUtc dt:dt=""string"">2015-05-20T15:57:52Z</DateUtc></StartTime><FrequencyChanges><FrequencyChange><Frequency dt:dt=""r8"">2825644</Frequency><Timestamp dt:dt=""r8"">1796441148138</Timestamp><Current dt:dt=""r8"">0</Current><DateUtc dt:dt=""string"">2015-05-20T15:57:52Z</DateUtc></FrequencyChange></FrequencyChanges></Clock>\n"	Arrow Flanker 2014-12292-1	60.018	1.0.0.100	1	1145386412	Professional	2.0.10.353	2.0.10.353	05-20-2015	5/20/2015 3:57:53 PM	11:57:53	2.0.10.248	2	NA	NA	NA	NA	NA	NA	NA	NA	NA	NA	NA	NA	NA	NA	NA	NA	NA	NA	NA	NA	NA	NA	NA	NA	1	1	1	PracBlockProc	PracBlockList	NA	1	{LEFTARROW}	-100	NA	428	neutral	NA	NA	NA	0	6	119545	433	1	{LEFTARROW}	-999999	0	120478	0	{LEFTARROW}	1252	121730	NA	3	1	1	NA	NA	PracTrialProc	PracTrialList	NA	NA	NA	NA	NA	NA	NA	NA	NA	NA	NA	NA	NA	NA	NA	NA	NA	NA	left	NA	ooloo.bmp	354	NA	NA	NA	NA	NA	NA	NA	NA	NA	NA	NA	NA	NA	NA	NA	NA	NA	NA	NA	NA	NA
Arrow Flanker 2014	12292	1	"<?xml version=""1.0""?>\n<Clock xmlns:dt=""urn:schemas-microsoft-com:datatypes""><Description dt:dt=""string"">E-Prime Primary Realtime Clock</Description><StartTime><Timestamp dt:dt=""int"">0</Timestamp><DateUtc dt:dt=""string"">2015-05-20T15:57:52Z</DateUtc></StartTime><FrequencyChanges><FrequencyChange><Frequency dt:dt=""r8"">2825644</Frequency><Timestamp dt:dt=""r8"">1796441148138</Timestamp><Current dt:dt=""r8"">0</Current><DateUtc dt:dt=""string"">2015-05-20T15:57:52Z</DateUtc></FrequencyChange></FrequencyChanges></Clock>\n"	Arrow Flanker 2014-12292-1	60.018	1.0.0.100	1	1145386412	Professional	2.0.10.353	2.0.10.353	05-20-2015	5/20/2015 3:57:53 PM	11:57:53	2.0.10.248	2	NA	NA	NA	NA	NA	NA	NA	NA	NA	NA	NA	NA	NA	NA	NA	NA	NA	NA	NA	NA	NA	NA	NA	NA	1	1	1	PracBlockProc	PracBlockList	NA	2	{RIGHTARROW}	-100	NA	475	congruent	NA	NA	NA	0	16	123260	483	1	{RIGHTARROW}	-999999	0	124243	0	{RIGHTARROW}	831	125074	NA	4	1	2	NA	NA	PracTrialProc	PracTrialList	NA	NA	NA	NA	NA	NA	NA	NA	NA	NA	NA	NA	NA	NA	NA	NA	NA	NA	right	NA	rrrrr.bmp	354	NA	NA	NA	NA	NA	NA	NA	NA	NA	NA	NA	NA	NA	NA	NA	NA	NA	NA	NA	NA	NA
Arrow Flanker 2014	12292	1	"<?xml version=""1.0""?>\n<Clock xmlns:dt=""urn:schemas-microsoft-com:datatypes""><Description dt:dt=""string"">E-Prime Primary Realtime Clock</Description><StartTime><Timestamp dt:dt=""int"">0</Timestamp><DateUtc dt:dt=""string"">2015-05-20T15:57:52Z</DateUtc></StartTime><FrequencyChanges><FrequencyChange><Frequency dt:dt=""r8"">2825644</Frequency><Timestamp dt:dt=""r8"">1796441148138</Timestamp><Current dt:dt=""r8"">0</Current><DateUtc dt:dt=""string"">2015-05-20T15:57:52Z</DateUtc></FrequencyChange></FrequencyChanges></Clock>\n"	Arrow Flanker 2014-12292-1	60.018	1.0.0.100	1	1145386412	Professional	2.0.10.353	2.0.10.353	05-20-2015	5/20/2015 3:57:53 PM	11:57:53	2.0.10.248	2	NA	NA	NA	NA	NA	NA	NA	NA	NA	NA	NA	NA	NA	NA	NA	NA	NA	NA	NA	NA	NA	NA	NA	NA	1	1	1	PracBlockProc	PracBlockList	NA	3	{RIGHTARROW}	-100	NA	1578	incongruent	NA	NA	NA	0	16	126609	1583	1	{RIGHTARROW}	-999999	0	128692	0	{RIGHTARROW}	1374	130066	NA	5	1	3	NA	NA	PracTrialProc	PracTrialList	NA	NA	NA	NA	NA	NA	NA	NA	NA	NA	NA	NA	NA	NA	NA	NA	NA	NA	right	NA	llrll.bmp	354	NA	NA	NA	NA	NA	NA	NA	NA	NA	NA	NA	NA	NA	NA	NA	NA	NA	NA	NA	NA	NA
Arrow Flanker 2014	12292	1	"<?xml version=""1.0""?>\n<Clock xmlns:dt=""urn:schemas-microsoft-com:datatypes""><Description dt:dt=""string"">E-Prime Primary Realtime Clock</Description><StartTime><Timestamp dt:dt=""int"">0</Timestamp><DateUtc dt:dt=""string"">2015-05-20T15:57:52Z</DateUtc></StartTime><FrequencyChanges><FrequencyChange><Frequency dt:dt=""r8"">2825644</Frequency><Timestamp dt:dt=""r8"">1796441148138</Timestamp><Current dt:dt=""r8"">0</Current><DateUtc dt:dt=""string"">2015-05-20T15:57:52Z</DateUtc></FrequencyChange></FrequencyChanges></Clock>\n"	Arrow Flanker 2014-12292-1	60.018	1.0.0.100	1	1145386412	Professional	2.0.10.353	2.0.10.353	05-20-2015	5/20/2015 3:57:53 PM	11:57:53	2.0.10.248	2	NA	NA	NA	NA	NA	NA	NA	NA	NA	NA	NA	NA	NA	NA	NA	NA	NA	NA	NA	NA	NA	NA	NA	NA	1	1	1	PracBlockProc	PracBlockList	NA	4	{LEFTARROW}	-100	NA	428	congruent	NA	NA	NA	0	17	131608	433	1	{LEFTARROW}	-999999	0	132541	0	{LEFTARROW}	853	133394	NA	1	1	4	NA	NA	PracTrialProc	PracTrialList	NA	NA	NA	NA	NA	NA	NA	NA	NA	NA	NA	NA	NA	NA	NA	NA	NA	NA	left	NA	lllll.bmp	354	NA	NA	NA	NA	NA	NA	NA	NA	NA	NA	NA	NA	NA	NA	NA	NA	NA	NA	NA	NA	NA
Arrow Flanker 2014	12292	1	"<?xml version=""1.0""?>\n<Clock xmlns:dt=""urn:schemas-microsoft-com:datatypes""><Description dt:dt=""string"">E-Prime Primary Realtime Clock</Description><StartTime><Timestamp dt:dt=""int"">0</Timestamp><DateUtc dt:dt=""string"">2015-05-20T15:57:52Z</DateUtc></StartTime><FrequencyChanges><FrequencyChange><Frequency dt:dt=""r8"">2825644</Frequency><Timestamp dt:dt=""r8"">1796441148138</Timestamp><Current dt:dt=""r8"">0</Current><DateUtc dt:dt=""string"">2015-05-20T15:57:52Z</DateUtc></FrequencyChange></FrequencyChanges></Clock>\n"	Arrow Flanker 2014-12292-1	60.018	1.0.0.100	1	1145386412	Professional	2.0.10.353	2.0.10.353	05-20-2015	5/20/2015 3:57:53 PM	11:57:53	2.0.10.248	2	NA	NA	NA	NA	NA	NA	NA	NA	NA	NA	NA	NA	NA	NA	NA	NA	NA	NA	NA	NA	NA	NA	NA	NA	1	1	1	PracBlockProc	PracBlockList	NA	5	{LEFTARROW}	-100	NA	713	incongruent	NA	NA	NA	0	16	134923	717	1	{LEFTARROW}	-999999	0	136140	0	{LEFTARROW}	1110	137250	NA	2	1	5	NA	NA	PracTrialProc	PracTrialList	NA	NA	NA	NA	NA	NA	NA	NA	NA	NA	NA	NA	NA	NA	NA	NA	NA	NA	left	NA	rrlrr.bmp	354	NA	NA	NA	NA	NA	NA	NA	NA	NA	NA	NA	NA	NA	NA	NA	NA	NA	NA	NA	NA	NA
Arrow Flanker 2014	12292	1	"<?xml version=""1.0""?>\n<Clock xmlns:dt=""urn:schemas-microsoft-com:datatypes""><Description dt:dt=""string"">E-Prime Primary Realtime Clock</Description><StartTime><Timestamp dt:dt=""int"">0</Timestamp><DateUtc dt:dt=""string"">2015-05-20T15:57:52Z</DateUtc></StartTime><FrequencyChanges><FrequencyChange><Frequency dt:dt=""r8"">2825644</Frequency><Timestamp dt:dt=""r8"">1796441148138</Timestamp><Current dt:dt=""r8"">0</Current><DateUtc dt:dt=""string"">2015-05-20T15:57:52Z</DateUtc></FrequencyChange></FrequencyChanges></Clock>\n"	Arrow Flanker 2014-12292-1	60.018	1.0.0.100	1	1145386412	Professional	2.0.10.353	2.0.10.353	05-20-2015	5/20/2015 3:57:53 PM	11:57:53	2.0.10.248	2	NA	NA	NA	NA	NA	NA	NA	NA	NA	NA	NA	NA	NA	NA	NA	NA	NA	NA	NA	NA	NA	NA	NA	NA	1	1	1	PracBlockProc	PracBlockList	NA	6	{RIGHTARROW}	-100	NA	1016	neutral	NA	NA	NA	0	16	138789	1016	1	{RIGHTARROW}	-999999	0	140305	0	{RIGHTARROW}	656	140961	NA	6	1	6	NA	NA	PracTrialProc	PracTrialList	NA	NA	NA	NA	NA	NA	NA	NA	NA	NA	NA	NA	NA	NA	NA	NA	NA	NA	right	NA	ooroo.bmp	354	NA	NA	NA	NA	NA	NA	NA	NA	NA	NA	NA	NA	NA	NA	NA	NA	NA	NA	NA	NA	NA
Arrow Flanker 2014	12292	1	"<?xml version=""1.0""?>\n<Clock xmlns:dt=""urn:schemas-microsoft-com:datatypes""><Description dt:dt=""string"">E-Prime Primary Realtime Clock</Description><StartTime><Timestamp dt:dt=""int"">0</Timestamp><DateUtc dt:dt=""string"">2015-05-20T15:57:52Z</DateUtc></StartTime><FrequencyChanges><FrequencyChange><Frequency dt:dt=""r8"">2825644</Frequency><Timestamp dt:dt=""r8"">1796441148138</Timestamp><Current dt:dt=""r8"">0</Current><DateUtc dt:dt=""string"">2015-05-20T15:57:52Z</DateUtc></FrequencyChange></FrequencyChanges></Clock>\n"	Arrow Flanker 2014-12292-1	60.018	1.0.0.100	1	1145386412	Professional	2.0.10.353	2.0.10.353	05-20-2015	5/20/2015 3:57:53 PM	11:57:53	2.0.10.248	3	1	1	1	NA	NA	NA	NA	NA	NA	NA	NA	NA	NA	NA	NA	NA	NA	NA	NA	NA	NA	NA	NA	NA	NA	NA	NA	BlockProc	BlockList	NA	1	{RIGHTARROW}	NA	-100	1787	neutral	NA	NA	NA	NA	NA	NA	NA	NA	NA	NA	NA	NA	NA	NA	NA	NA	NA	NA	NA	NA	NA	NA	TrialProc	TrialList	0	10	147403	17	0	16	145137	1000	1	{RIGHTARROW}	-999999	0	146637	0	{RIGHTARROW}	756	147393	NA	NA	right	ooroo.bmp	354	0	NA	0	0	0	0	NA	0	0	0	NA	0	0	0	0	NA	0	0	6	1	1
Arrow Flanker 2014	12292	1	"<?xml version=""1.0""?>\n<Clock xmlns:dt=""urn:schemas-microsoft-com:datatypes""><Description dt:dt=""string"">E-Prime Primary Realtime Clock</Description><StartTime><Timestamp dt:dt=""int"">0</Timestamp><DateUtc dt:dt=""string"">2015-05-20T15:57:52Z</DateUtc></StartTime><FrequencyChanges><FrequencyChange><Frequency dt:dt=""r8"">2825644</Frequency><Timestamp dt:dt=""r8"">1796441148138</Timestamp><Current dt:dt=""r8"">0</Current><DateUtc dt:dt=""string"">2015-05-20T15:57:52Z</DateUtc></FrequencyChange></FrequencyChanges></Clock>\n"	Arrow Flanker 2014-12292-1	60.018	1.0.0.100	1	1145386412	Professional	2.0.10.353	2.0.10.353	05-20-2015	5/20/2015 3:57:53 PM	11:57:53	2.0.10.248	3	1	1	1	NA	NA	NA	NA	NA	NA	NA	NA	NA	NA	NA	NA	NA	NA	NA	NA	NA	NA	NA	NA	NA	NA	NA	NA	BlockProc	BlockList	NA	2	{RIGHTARROW}	NA	-100	1800	congruent	NA	NA	NA	NA	NA	NA	NA	NA	NA	NA	NA	NA	NA	NA	NA	NA	NA	NA	NA	NA	NA	NA	TrialProc	TrialList	1	17	150402	17	0	16	147936	1250	1	{RIGHTARROW}	-999999	0	149686	0	{RIGHTARROW}	699	150385	NA	NA	right	rrrrr.bmp	354	0	NA	0	0	0	0	NA	0	0	0	NA	0	0	0	0	NA	0	0	2	1	2
Arrow Flanker 2014	12292	1	"<?xml version=""1.0""?>\n<Clock xmlns:dt=""urn:schemas-microsoft-com:datatypes""><Description dt:dt=""string"">E-Prime Primary Realtime Clock</Description><StartTime><Timestamp dt:dt=""int"">0</Timestamp><DateUtc dt:dt=""string"">2015-05-20T15:57:52Z</DateUtc></StartTime><FrequencyChanges><FrequencyChange><Frequency dt:dt=""r8"">2825644</Frequency><Timestamp dt:dt=""r8"">1796441148138</Timestamp><Current dt:dt=""r8"">0</Current><DateUtc dt:dt=""string"">2015-05-20T15:57:52Z</DateUtc></FrequencyChange></FrequencyChanges></Clock>\n"	Arrow Flanker 2014-12292-1	60.018	1.0.0.100	1	1145386412	Professional	2.0.10.353	2.0.10.353	05-20-2015	5/20/2015 3:57:53 PM	11:57:53	2.0.10.248	3	1	1	1	NA	NA	NA	NA	NA	NA	NA	NA	NA	NA	NA	NA	NA	NA	NA	NA	NA	NA	NA	NA	NA	NA	NA	NA	BlockProc	BlockList	NA	3	{RIGHTARROW}	NA	-100	1838	incongruent	NA	NA	NA	NA	NA	NA	NA	NA	NA	NA	NA	NA	NA	NA	NA	NA	NA	NA	NA	NA	NA	NA	TrialProc	TrialList	0	5	153318	17	0	16	150935	800	1	{RIGHTARROW}	-999999	0	152235	0	{RIGHTARROW}	1078	153313	NA	NA	right	llrll.bmp	354	0	NA	0	0	0	0	NA	0	0	0	NA	0	0	0	0	NA	0	0	4	1	3
Arrow Flanker 2014	12292	1	"<?xml version=""1.0""?>\n<Clock xmlns:dt=""urn:schemas-microsoft-com:datatypes""><Description dt:dt=""string"">E-Prime Primary Realtime Clock</Description><StartTime><Timestamp dt:dt=""int"">0</Timestamp><DateUtc dt:dt=""string"">2015-05-20T15:57:52Z</DateUtc></StartTime><FrequencyChanges><FrequencyChange><Frequency dt:dt=""r8"">2825644</Frequency><Timestamp dt:dt=""r8"">1796441148138</Timestamp><Current dt:dt=""r8"">0</Current><DateUtc dt:dt=""string"">2015-05-20T15:57:52Z</DateUtc></FrequencyChange></FrequencyChanges></Clock>\n"	Arrow Flanker 2014-12292-1	60.018	1.0.0.100	1	1145386412	Professional	2.0.10.353	2.0.10.353	05-20-2015	5/20/2015 3:57:53 PM	11:57:53	2.0.10.248	3	1	1	1	NA	NA	NA	NA	NA	NA	NA	NA	NA	NA	NA	NA	NA	NA	NA	NA	NA	NA	NA	NA	NA	NA	NA	NA	BlockProc	BlockList	NA	4	{LEFTARROW}	NA	-100	2193	congruent	NA	NA	NA	NA	NA	NA	NA	NA	NA	NA	NA	NA	NA	NA	NA	NA	NA	NA	NA	NA	NA	NA	TrialProc	TrialList	0	19	156484	16	0	16	153851	1283	1	{LEFTARROW}	-999999	0	155634	0	{LEFTARROW}	831	156465	NA	NA	left	lllll.bmp	354	0	NA	0	0	0	0	NA	0	0	0	NA	0	0	0	0	NA	0	0	1	1	4
Arrow Flanker 2014	12292	1	"<?xml version=""1.0""?>\n<Clock xmlns:dt=""urn:schemas-microsoft-com:datatypes""><Description dt:dt=""string"">E-Prime Primary Realtime Clock</Description><StartTime><Timestamp dt:dt=""int"">0</Timestamp><DateUtc dt:dt=""string"">2015-05-20T15:57:52Z</DateUtc></StartTime><FrequencyChanges><FrequencyChange><Frequency dt:dt=""r8"">2825644</Frequency><Timestamp dt:dt=""r8"">1796441148138</Timestamp><Current dt:dt=""r8"">0</Current><DateUtc dt:dt=""string"">2015-05-20T15:57:52Z</DateUtc></FrequencyChange></FrequencyChanges></Clock>\n"	Arrow Flanker 2014-12292-1	60.018	1.0.0.100	1	1145386412	Professional	2.0.10.353	2.0.10.353	05-20-2015	5/20/2015 3:57:53 PM	11:57:53	2.0.10.248	3	1	1	1	NA	NA	NA	NA	NA	NA	NA	NA	NA	NA	NA	NA	NA	NA	NA	NA	NA	NA	NA	NA	NA	NA	NA	NA	BlockProc	BlockList	NA	5	{RIGHTARROW}	NA	-100	1277	neutral	NA	NA	NA	NA	NA	NA	NA	NA	NA	NA	NA	NA	NA	NA	NA	NA	NA	NA	NA	NA	NA	NA	TrialProc	TrialList	0	5	158950	16	0	17	157017	816	1	{RIGHTARROW}	-999999	0	158333	0	{RIGHTARROW}	611	158944	NA	NA	right	ooroo.bmp	354	0	NA	0	0	0	0	NA	0	0	0	NA	0	0	0	0	NA	0	0	6	1	5
Arrow Flanker 2014	12292	1	"<?xml version=""1.0""?>\n<Clock xmlns:dt=""urn:schemas-microsoft-com:datatypes""><Description dt:dt=""string"">E-Prime Primary Realtime Clock</Description><StartTime><Timestamp dt:dt=""int"">0</Timestamp><DateUtc dt:dt=""string"">2015-05-20T15:57:52Z</DateUtc></StartTime><FrequencyChanges><FrequencyChange><Frequency dt:dt=""r8"">2825644</Frequency><Timestamp dt:dt=""r8"">1796441148138</Timestamp><Current dt:dt=""r8"">0</Current><DateUtc dt:dt=""string"">2015-05-20T15:57:52Z</DateUtc></FrequencyChange></FrequencyChanges></Clock>\n"	Arrow Flanker 2014-12292-1	60.018	1.0.0.100	1	1145386412	Professional	2.0.10.353	2.0.10.353	05-20-2015	5/20/2015 3:57:53 PM	11:57:53	2.0.10.248	3	1	1	1	NA	NA	NA	NA	NA	NA	NA	NA	NA	NA	NA	NA	NA	NA	NA	NA	NA	NA	NA	NA	NA	NA	NA	NA	BlockProc	BlockList	NA	6	{LEFTARROW}	NA	-100	1648	neutral	NA	NA	NA	NA	NA	NA	NA	NA	NA	NA	NA	NA	NA	NA	NA	NA	NA	NA	NA	NA	NA	NA	TrialProc	TrialList	1	12	161932	17	0	17	159483	1183	1	{LEFTARROW}	-999999	0	161166	0	{LEFTARROW}	754	161920	NA	NA	left	ooloo.bmp	354	0	NA	0	0	0	0	NA	0	0	0	NA	0	0	0	0	NA	0	0	5	1	6
Arrow Flanker 2014	12292	1	"<?xml version=""1.0""?>\n<Clock xmlns:dt=""urn:schemas-microsoft-com:datatypes""><Description dt:dt=""string"">E-Prime Primary Realtime Clock</Description><StartTime><Timestamp dt:dt=""int"">0</Timestamp><DateUtc dt:dt=""string"">2015-05-20T15:57:52Z</DateUtc></StartTime><FrequencyChanges><FrequencyChange><Frequency dt:dt=""r8"">2825644</Frequency><Timestamp dt:dt=""r8"">1796441148138</Timestamp><Current dt:dt=""r8"">0</Current><DateUtc dt:dt=""string"">2015-05-20T15:57:52Z</DateUtc></FrequencyChange></FrequencyChanges></Clock>\n"	Arrow Flanker 2014-12292-1	60.018	1.0.0.100	1	1145386412	Professional	2.0.10.353	2.0.10.353	05-20-2015	5/20/2015 3:57:53 PM	11:57:53	2.0.10.248	3	1	1	1	NA	NA	NA	NA	NA	NA	NA	NA	NA	NA	NA	NA	NA	NA	NA	NA	NA	NA	NA	NA	NA	NA	NA	NA	BlockProc	BlockList	NA	7	{LEFTARROW}	NA	-100	1037	congruent	NA	NA	NA	NA	NA	NA	NA	NA	NA	NA	NA	NA	NA	NA	NA	NA	NA	NA	NA	NA	NA	NA	TrialProc	TrialList	0	6	164598	17	0	16	162465	967	1	{LEFTARROW}	-999999	0	163932	0	{LEFTARROW}	660	164592	NA	NA	left	lllll.bmp	354	0	NA	0	0	0	0	NA	0	0	0	NA	0	0	0	0	NA	0	0	1	1	7
Arrow Flanker 2014	12292	1	"<?xml version=""1.0""?>\n<Clock xmlns:dt=""urn:schemas-microsoft-com:datatypes""><Description dt:dt=""string"">E-Prime Primary Realtime Clock</Description><StartTime><Timestamp dt:dt=""int"">0</Timestamp><DateUtc dt:dt=""string"">2015-05-20T15:57:52Z</DateUtc></StartTime><FrequencyChanges><FrequencyChange><Frequency dt:dt=""r8"">2825644</Frequency><Timestamp dt:dt=""r8"">1796441148138</Timestamp><Current dt:dt=""r8"">0</Current><DateUtc dt:dt=""string"">2015-05-20T15:57:52Z</DateUtc></FrequencyChange></FrequencyChanges></Clock>\n"	Arrow Flanker 2014-12292-1	60.018	1.0.0.100	1	1145386412	Professional	2.0.10.353	2.0.10.353	05-20-2015	5/20/2015 3:57:53 PM	11:57:53	2.0.10.248	3	1	1	1	NA	NA	NA	NA	NA	NA	NA	NA	NA	NA	NA	NA	NA	NA	NA	NA	NA	NA	NA	NA	NA	NA	NA	NA	BlockProc	BlockList	NA	8	{RIGHTARROW}	NA	-100	1929	neutral	NA	NA	NA	NA	NA	NA	NA	NA	NA	NA	NA	NA	NA	NA	NA	NA	NA	NA	NA	NA	NA	NA	TrialProc	TrialList	0	12	167164	17	0	16	165131	983	1	{RIGHTARROW}	-999999	0	166614	0	{RIGHTARROW}	538	167152	NA	NA	right	ooroo.bmp	354	0	NA	0	0	0	0	NA	0	0	0	NA	0	0	0	0	NA	0	0	6	1	8
Arrow Flanker 2014	12292	1	"<?xml version=""1.0""?>\n<Clock xmlns:dt=""urn:schemas-microsoft-com:datatypes""><Description dt:dt=""string"">E-Prime Primary Realtime Clock</Description><StartTime><Timestamp dt:dt=""int"">0</Timestamp><DateUtc dt:dt=""string"">2015-05-20T15:57:52Z</DateUtc></StartTime><FrequencyChanges><FrequencyChange><Frequency dt:dt=""r8"">2825644</Frequency><Timestamp dt:dt=""r8"">1796441148138</Timestamp><Current dt:dt=""r8"">0</Current><DateUtc dt:dt=""string"">2015-05-20T15:57:52Z</DateUtc></FrequencyChange></FrequencyChanges></Clock>\n"	Arrow Flanker 2014-12292-1	60.018	1.0.0.100	1	1145386412	Professional	2.0.10.353	2.0.10.353	05-20-2015	5/20/2015 3:57:53 PM	11:57:53	2.0.10.248	3	1	1	1	NA	NA	NA	NA	NA	NA	NA	NA	NA	NA	NA	NA	NA	NA	NA	NA	NA	NA	NA	NA	NA	NA	NA	NA	BlockProc	BlockList	NA	9	{LEFTARROW}	NA	-100	1383	incongruent	NA	NA	NA	NA	NA	NA	NA	NA	NA	NA	NA	NA	NA	NA	NA	NA	NA	NA	NA	NA	NA	NA	TrialProc	TrialList	0	11	169547	16	0	16	167697	567	1	{LEFTARROW}	-999999	0	168764	0	{LEFTARROW}	772	169536	NA	NA	left	rrlrr.bmp	354	0	NA	0	0	0	0	NA	0	0	0	NA	0	0	0	0	NA	0	0	3	1	9
Arrow Flanker 2014	12292	1	"<?xml version=""1.0""?>\n<Clock xmlns:dt=""urn:schemas-microsoft-com:datatypes""><Description dt:dt=""string"">E-Prime Primary Realtime Clock</Description><StartTime><Timestamp dt:dt=""int"">0</Timestamp><DateUtc dt:dt=""string"">2015-05-20T15:57:52Z</DateUtc></StartTime><FrequencyChanges><FrequencyChange><Frequency dt:dt=""r8"">2825644</Frequency><Timestamp dt:dt=""r8"">1796441148138</Timestamp><Current dt:dt=""r8"">0</Current><DateUtc dt:dt=""string"">2015-05-20T15:57:52Z</DateUtc></FrequencyChange></FrequencyChanges></Clock>\n"	Arrow Flanker 2014-12292-1	60.018	1.0.0.100	1	1145386412	Professional	2.0.10.353	2.0.10.353	05-20-2015	5/20/2015 3:57:53 PM	11:57:53	2.0.10.248	3	1	1	1	NA	NA	NA	NA	NA	NA	NA	NA	NA	NA	NA	NA	NA	NA	NA	NA	NA	NA	NA	NA	NA	NA	NA	NA	BlockProc	BlockList	NA	10	{LEFTARROW}	NA	-100	963	neutral	NA	NA	NA	NA	NA	NA	NA	NA	NA	NA	NA	NA	NA	NA	NA	NA	NA	NA	NA	NA	NA	NA	TrialProc	TrialList	0	8	171896	17	0	17	170080	783	1	{LEFTARROW}	-999999	0	171363	0	{LEFTARROW}	525	171888	NA	NA	left	ooloo.bmp	354	0	NA	0	0	0	0	NA	0	0	0	NA	0	0	0	0	NA	0	0	5	1	10
Arrow Flanker 2014	12292	1	"<?xml version=""1.0""?>\n<Clock xmlns:dt=""urn:schemas-microsoft-com:datatypes""><Description dt:dt=""string"">E-Prime Primary Realtime Clock</Description><StartTime><Timestamp dt:dt=""int"">0</Timestamp><DateUtc dt:dt=""string"">2015-05-20T15:57:52Z</DateUtc></StartTime><FrequencyChanges><FrequencyChange><Frequency dt:dt=""r8"">2825644</Frequency><Timestamp dt:dt=""r8"">1796441148138</Timestamp><Current dt:dt=""r8"">0</Current><DateUtc dt:dt=""string"">2015-05-20T15:57:52Z</DateUtc></FrequencyChange></FrequencyChanges></Clock>\n"	Arrow Flanker 2014-12292-1	60.018	1.0.0.100	1	1145386412	Professional	2.0.10.353	2.0.10.353	05-20-2015	5/20/2015 3:57:53 PM	11:57:53	2.0.10.248	3	1	1	1	NA	NA	NA	NA	NA	NA	NA	NA	NA	NA	NA	NA	NA	NA	NA	NA	NA	NA	NA	NA	NA	NA	NA	NA	BlockProc	BlockList	NA	11	{LEFTARROW}	NA	-100	1841	incongruent	NA	NA	NA	NA	NA	NA	NA	NA	NA	NA	NA	NA	NA	NA	NA	NA	NA	NA	NA	NA	NA	NA	TrialProc	TrialList	0	20	174212	17	0	16	172429	650	1	{LEFTARROW}	-999999	0	173579	0	{LEFTARROW}	613	174192	NA	NA	left	rrlrr.bmp	354	0	NA	0	0	0	0	NA	0	0	0	NA	0	0	0	0	NA	0	0	3	1	11
Arrow Flanker 2014	12292	1	"<?xml version=""1.0""?>\n<Clock xmlns:dt=""urn:schemas-microsoft-com:datatypes""><Description dt:dt=""string"">E-Prime Primary Realtime Clock</Description><StartTime><Timestamp dt:dt=""int"">0</Timestamp><DateUtc dt:dt=""string"">2015-05-20T15:57:52Z</DateUtc></StartTime><FrequencyChanges><FrequencyChange><Frequency dt:dt=""r8"">2825644</Frequency><Timestamp dt:dt=""r8"">1796441148138</Timestamp><Current dt:dt=""r8"">0</Current><DateUtc dt:dt=""string"">2015-05-20T15:57:52Z</DateUtc></FrequencyChange></FrequencyChanges></Clock>\n"	Arrow Flanker 2014-12292-1	60.018	1.0.0.100	1	1145386412	Professional	2.0.10.353	2.0.10.353	05-20-2015	5/20/2015 3:57:53 PM	11:57:53	2.0.10.248	3	1	1	1	NA	NA	NA	NA	NA	NA	NA	NA	NA	NA	NA	NA	NA	NA	NA	NA	NA	NA	NA	NA	NA	NA	NA	NA	BlockProc	BlockList	NA	12	{LEFTARROW}	NA	-100	992	incongruent	NA	NA	NA	NA	NA	NA	NA	NA	NA	NA	NA	NA	NA	NA	NA	NA	NA	NA	NA	NA	NA	NA	TrialProc	TrialList	0	8	177128	16	0	16	174745	833	1	{LEFTARROW}	-999999	0	176078	0	{LEFTARROW}	1042	177120	NA	NA	left	rrlrr.bmp	354	0	NA	0	0	0	0	NA	0	0	0	NA	0	0	0	0	NA	0	0	3	1	12
Arrow Flanker 2014	12292	1	"<?xml version=""1.0""?>\n<Clock xmlns:dt=""urn:schemas-microsoft-com:datatypes""><Description dt:dt=""string"">E-Prime Primary Realtime Clock</Description><StartTime><Timestamp dt:dt=""int"">0</Timestamp><DateUtc dt:dt=""string"">2015-05-20T15:57:52Z</DateUtc></StartTime><FrequencyChanges><FrequencyChange><Frequency dt:dt=""r8"">2825644</Frequency><Timestamp dt:dt=""r8"">1796441148138</Timestamp><Current dt:dt=""r8"">0</Current><DateUtc dt:dt=""string"">2015-05-20T15:57:52Z</DateUtc></FrequencyChange></FrequencyChanges></Clock>\n"	Arrow Flanker 2014-12292-1	60.018	1.0.0.100	1	1145386412	Professional	2.0.10.353	2.0.10.353	05-20-2015	5/20/2015 3:57:53 PM	11:57:53	2.0.10.248	3	1	1	1	NA	NA	NA	NA	NA	NA	NA	NA	NA	NA	NA	NA	NA	NA	NA	NA	NA	NA	NA	NA	NA	NA	NA	NA	BlockProc	BlockList	NA	13	{LEFTARROW}	NA	-100	1961	incongruent	NA	NA	NA	NA	NA	NA	NA	NA	NA	NA	NA	NA	NA	NA	NA	NA	NA	NA	NA	NA	NA	NA	TrialProc	TrialList	1	21	180260	17	0	17	177661	1200	1	{LEFTARROW}	-999999	16	179377	0	{LEFTARROW}	862	180239	NA	NA	left	rrlrr.bmp	354	0	NA	0	0	0	0	NA	0	0	0	NA	0	0	0	0	NA	0	0	3	1	13
Arrow Flanker 2014	12292	1	"<?xml version=""1.0""?>\n<Clock xmlns:dt=""urn:schemas-microsoft-com:datatypes""><Description dt:dt=""string"">E-Prime Primary Realtime Clock</Description><StartTime><Timestamp dt:dt=""int"">0</Timestamp><DateUtc dt:dt=""string"">2015-05-20T15:57:52Z</DateUtc></StartTime><FrequencyChanges><FrequencyChange><Frequency dt:dt=""r8"">2825644</Frequency><Timestamp dt:dt=""r8"">1796441148138</Timestamp><Current dt:dt=""r8"">0</Current><DateUtc dt:dt=""string"">2015-05-20T15:57:52Z</DateUtc></FrequencyChange></FrequencyChanges></Clock>\n"	Arrow Flanker 2014-12292-1	60.018	1.0.0.100	1	1145386412	Professional	2.0.10.353	2.0.10.353	05-20-2015	5/20/2015 3:57:53 PM	11:57:53	2.0.10.248	3	1	1	1	NA	NA	NA	NA	NA	NA	NA	NA	NA	NA	NA	NA	NA	NA	NA	NA	NA	NA	NA	NA	NA	NA	NA	NA	BlockProc	BlockList	NA	14	{RIGHTARROW}	NA	-100	1045	incongruent	NA	NA	NA	NA	NA	NA	NA	NA	NA	NA	NA	NA	NA	NA	NA	NA	NA	NA	NA	NA	NA	NA	TrialProc	TrialList	0	6	183493	16	0	16	180793	1033	1	{RIGHTARROW}	-999999	0	182326	0	{RIGHTARROW}	1161	183487	NA	NA	right	llrll.bmp	354	0	NA	0	0	0	0	NA	0	0	0	NA	0	0	0	0	NA	0	0	4	1	14
Arrow Flanker 2014	12292	1	"<?xml version=""1.0""?>\n<Clock xmlns:dt=""urn:schemas-microsoft-com:datatypes""><Description dt:dt=""string"">E-Prime Primary Realtime Clock</Description><StartTime><Timestamp dt:dt=""int"">0</Timestamp><DateUtc dt:dt=""string"">2015-05-20T15:57:52Z</DateUtc></StartTime><FrequencyChanges><FrequencyChange><Frequency dt:dt=""r8"">2825644</Frequency><Timestamp dt:dt=""r8"">1796441148138</Timestamp><Current dt:dt=""r8"">0</Current><DateUtc dt:dt=""string"">2015-05-20T15:57:52Z</DateUtc></FrequencyChange></FrequencyChanges></Clock>\n"	Arrow Flanker 2014-12292-1	60.018	1.0.0.100	1	1145386412	Professional	2.0.10.353	2.0.10.353	05-20-2015	5/20/2015 3:57:53 PM	11:57:53	2.0.10.248	3	1	1	1	NA	NA	NA	NA	NA	NA	NA	NA	NA	NA	NA	NA	NA	NA	NA	NA	NA	NA	NA	NA	NA	NA	NA	NA	BlockProc	BlockList	NA	15	{LEFTARROW}	NA	-100	903	neutral	NA	NA	NA	NA	NA	NA	NA	NA	NA	NA	NA	NA	NA	NA	NA	NA	NA	NA	NA	NA	NA	NA	TrialProc	TrialList	1	11	186058	17	0	17	184026	833	1	{LEFTARROW}	-999999	0	185359	0	{LEFTARROW}	688	186047	NA	NA	left	ooloo.bmp	354	0	NA	0	0	0	0	NA	0	0	0	NA	0	0	0	0	NA	0	0	5	1	15
Arrow Flanker 2014	12292	1	"<?xml version=""1.0""?>\n<Clock xmlns:dt=""urn:schemas-microsoft-com:datatypes""><Description dt:dt=""string"">E-Prime Primary Realtime Clock</Description><StartTime><Timestamp dt:dt=""int"">0</Timestamp><DateUtc dt:dt=""string"">2015-05-20T15:57:52Z</DateUtc></StartTime><FrequencyChanges><FrequencyChange><Frequency dt:dt=""r8"">2825644</Frequency><Timestamp dt:dt=""r8"">1796441148138</Timestamp><Current dt:dt=""r8"">0</Current><DateUtc dt:dt=""string"">2015-05-20T15:57:52Z</DateUtc></FrequencyChange></FrequencyChanges></Clock>\n"	Arrow Flanker 2014-12292-1	60.018	1.0.0.100	1	1145386412	Professional	2.0.10.353	2.0.10.353	05-20-2015	5/20/2015 3:57:53 PM	11:57:53	2.0.10.248	3	1	1	1	NA	NA	NA	NA	NA	NA	NA	NA	NA	NA	NA	NA	NA	NA	NA	NA	NA	NA	NA	NA	NA	NA	NA	NA	BlockProc	BlockList	NA	16	{LEFTARROW}	NA	-100	2242	congruent	NA	NA	NA	NA	NA	NA	NA	NA	NA	NA	NA	NA	NA	NA	NA	NA	NA	NA	NA	NA	NA	NA	TrialProc	TrialList	0	6	189125	16	0	17	186592	1366	1	{LEFTARROW}	-999999	0	188458	0	{LEFTARROW}	661	189119	NA	NA	left	lllll.bmp	354	0	NA	0	0	0	0	NA	0	0	0	NA	0	0	0	0	NA	0	0	1	1	16
Arrow Flanker 2014	12292	1	"<?xml version=""1.0""?>\n<Clock xmlns:dt=""urn:schemas-microsoft-com:datatypes""><Description dt:dt=""string"">E-Prime Primary Realtime Clock</Description><StartTime><Timestamp dt:dt=""int"">0</Timestamp><DateUtc dt:dt=""string"">2015-05-20T15:57:52Z</DateUtc></StartTime><FrequencyChanges><FrequencyChange><Frequency dt:dt=""r8"">2825644</Frequency><Timestamp dt:dt=""r8"">1796441148138</Timestamp><Current dt:dt=""r8"">0</Current><DateUtc dt:dt=""string"">2015-05-20T15:57:52Z</DateUtc></FrequencyChange></FrequencyChanges></Clock>\n"	Arrow Flanker 2014-12292-1	60.018	1.0.0.100	1	1145386412	Professional	2.0.10.353	2.0.10.353	05-20-2015	5/20/2015 3:57:53 PM	11:57:53	2.0.10.248	3	1	1	1	NA	NA	NA	NA	NA	NA	NA	NA	NA	NA	NA	NA	NA	NA	NA	NA	NA	NA	NA	NA	NA	NA	NA	NA	BlockProc	BlockList	NA	17	{RIGHTARROW}	NA	-100	933	incongruent	NA	NA	NA	NA	NA	NA	NA	NA	NA	NA	NA	NA	NA	NA	NA	NA	NA	NA	NA	NA	NA	NA	TrialProc	TrialList	0	14	191757	16	0	16	189657	884	1	{RIGHTARROW}	-999999	16	191057	0	{RIGHTARROW}	686	191743	NA	NA	right	llrll.bmp	354	0	NA	0	0	0	0	NA	0	0	0	NA	0	0	0	0	NA	0	0	4	1	17
Arrow Flanker 2014	12292	1	"<?xml version=""1.0""?>\n<Clock xmlns:dt=""urn:schemas-microsoft-com:datatypes""><Description dt:dt=""string"">E-Prime Primary Realtime Clock</Description><StartTime><Timestamp dt:dt=""int"">0</Timestamp><DateUtc dt:dt=""string"">2015-05-20T15:57:52Z</DateUtc></StartTime><FrequencyChanges><FrequencyChange><Frequency dt:dt=""r8"">2825644</Frequency><Timestamp dt:dt=""r8"">1796441148138</Timestamp><Current dt:dt=""r8"">0</Current><DateUtc dt:dt=""string"">2015-05-20T15:57:52Z</DateUtc></FrequencyChange></FrequencyChanges></Clock>\n"	Arrow Flanker 2014-12292-1	60.018	1.0.0.100	1	1145386412	Professional	2.0.10.353	2.0.10.353	05-20-2015	5/20/2015 3:57:53 PM	11:57:53	2.0.10.248	3	1	1	1	NA	NA	NA	NA	NA	NA	NA	NA	NA	NA	NA	NA	NA	NA	NA	NA	NA	NA	NA	NA	NA	NA	NA	NA	BlockProc	BlockList	NA	18	{LEFTARROW}	NA	-100	1803	congruent	NA	NA	NA	NA	NA	NA	NA	NA	NA	NA	NA	NA	NA	NA	NA	NA	NA	NA	NA	NA	NA	NA	TrialProc	TrialList	0	6	194373	16	0	17	192290	900	1	{LEFTARROW}	-999999	0	193690	0	{LEFTARROW}	676	194366	NA	NA	left	lllll.bmp	354	0	NA	0	0	0	0	NA	0	0	0	NA	0	0	0	0	NA	0	0	1	1	18
Arrow Flanker 2014	12292	1	"<?xml version=""1.0""?>\n<Clock xmlns:dt=""urn:schemas-microsoft-com:datatypes""><Description dt:dt=""string"">E-Prime Primary Realtime Clock</Description><StartTime><Timestamp dt:dt=""int"">0</Timestamp><DateUtc dt:dt=""string"">2015-05-20T15:57:52Z</DateUtc></StartTime><FrequencyChanges><FrequencyChange><Frequency dt:dt=""r8"">2825644</Frequency><Timestamp dt:dt=""r8"">1796441148138</Timestamp><Current dt:dt=""r8"">0</Current><DateUtc dt:dt=""string"">2015-05-20T15:57:52Z</DateUtc></FrequencyChange></FrequencyChanges></Clock>\n"	Arrow Flanker 2014-12292-1	60.018	1.0.0.100	1	1145386412	Professional	2.0.10.353	2.0.10.353	05-20-2015	5/20/2015 3:57:53 PM	11:57:53	2.0.10.248	3	1	1	1	NA	NA	NA	NA	NA	NA	NA	NA	NA	NA	NA	NA	NA	NA	NA	NA	NA	NA	NA	NA	NA	NA	NA	NA	BlockProc	BlockList	NA	19	{RIGHTARROW}	NA	-100	2707	congruent	NA	NA	NA	NA	NA	NA	NA	NA	NA	NA	NA	NA	NA	NA	NA	NA	NA	NA	NA	NA	NA	NA	TrialProc	TrialList	1	8	197638	17	0	17	194906	1533	1	{RIGHTARROW}	-999999	0	196939	0	{RIGHTARROW}	691	197630	NA	NA	right	rrrrr.bmp	354	0	NA	0	0	0	0	NA	0	0	0	NA	0	0	0	0	NA	0	0	2	1	19
Arrow Flanker 2014	12292	1	"<?xml version=""1.0""?>\n<Clock xmlns:dt=""urn:schemas-microsoft-com:datatypes""><Description dt:dt=""string"">E-Prime Primary Realtime Clock</Description><StartTime><Timestamp dt:dt=""int"">0</Timestamp><DateUtc dt:dt=""string"">2015-05-20T15:57:52Z</DateUtc></StartTime><FrequencyChanges><FrequencyChange><Frequency dt:dt=""r8"">2825644</Frequency><Timestamp dt:dt=""r8"">1796441148138</Timestamp><Current dt:dt=""r8"">0</Current><DateUtc dt:dt=""string"">2015-05-20T15:57:52Z</DateUtc></FrequencyChange></FrequencyChanges></Clock>\n"	Arrow Flanker 2014-12292-1	60.018	1.0.0.100	1	1145386412	Professional	2.0.10.353	2.0.10.353	05-20-2015	5/20/2015 3:57:53 PM	11:57:53	2.0.10.248	3	1	1	1	NA	NA	NA	NA	NA	NA	NA	NA	NA	NA	NA	NA	NA	NA	NA	NA	NA	NA	NA	NA	NA	NA	NA	NA	BlockProc	BlockList	NA	20	{LEFTARROW}	NA	-100	2022	neutral	NA	NA	NA	NA	NA	NA	NA	NA	NA	NA	NA	NA	NA	NA	NA	NA	NA	NA	NA	NA	NA	NA	TrialProc	TrialList	0	0	201504	17	0	17	198172	1433	0	{LEFTARROW}	0	0	200104	1400	NA	0	0	NA	NA	left	ooloo.bmp	354	0	NA	0	0	0	0	NA	0	0	0	NA	0	0	0	0	NA	0	0	5	1	20
Arrow Flanker 2014	12292	1	"<?xml version=""1.0""?>\n<Clock xmlns:dt=""urn:schemas-microsoft-com:datatypes""><Description dt:dt=""string"">E-Prime Primary Realtime Clock</Description><StartTime><Timestamp dt:dt=""int"">0</Timestamp><DateUtc dt:dt=""string"">2015-05-20T15:57:52Z</DateUtc></StartTime><FrequencyChanges><FrequencyChange><Frequency dt:dt=""r8"">2825644</Frequency><Timestamp dt:dt=""r8"">1796441148138</Timestamp><Current dt:dt=""r8"">0</Current><DateUtc dt:dt=""string"">2015-05-20T15:57:52Z</DateUtc></FrequencyChange></FrequencyChanges></Clock>\n"	Arrow Flanker 2014-12292-1	60.018	1.0.0.100	1	1145386412	Professional	2.0.10.353	2.0.10.353	05-20-2015	5/20/2015 3:57:53 PM	11:57:53	2.0.10.248	3	1	1	1	NA	NA	NA	NA	NA	NA	NA	NA	NA	NA	NA	NA	NA	NA	NA	NA	NA	NA	NA	NA	NA	NA	NA	NA	BlockProc	BlockList	NA	21	{LEFTARROW}	NA	-100	1125	neutral	NA	NA	NA	NA	NA	NA	NA	NA	NA	NA	NA	NA	NA	NA	NA	NA	NA	NA	NA	NA	NA	NA	TrialProc	TrialList	0	16	204270	17	0	16	202037	1033	1	{LEFTARROW}	-999999	0	203570	0	{LEFTARROW}	684	204254	NA	NA	left	ooloo.bmp	354	0	NA	0	0	0	0	NA	0	0	0	NA	0	0	0	0	NA	0	0	5	1	21
Arrow Flanker 2014	12292	1	"<?xml version=""1.0""?>\n<Clock xmlns:dt=""urn:schemas-microsoft-com:datatypes""><Description dt:dt=""string"">E-Prime Primary Realtime Clock</Description><StartTime><Timestamp dt:dt=""int"">0</Timestamp><DateUtc dt:dt=""string"">2015-05-20T15:57:52Z</DateUtc></StartTime><FrequencyChanges><FrequencyChange><Frequency dt:dt=""r8"">2825644</Frequency><Timestamp dt:dt=""r8"">1796441148138</Timestamp><Current dt:dt=""r8"">0</Current><DateUtc dt:dt=""string"">2015-05-20T15:57:52Z</DateUtc></FrequencyChange></FrequencyChanges></Clock>\n"	Arrow Flanker 2014-12292-1	60.018	1.0.0.100	1	1145386412	Professional	2.0.10.353	2.0.10.353	05-20-2015	5/20/2015 3:57:53 PM	11:57:53	2.0.10.248	3	1	1	1	NA	NA	NA	NA	NA	NA	NA	NA	NA	NA	NA	NA	NA	NA	NA	NA	NA	NA	NA	NA	NA	NA	NA	NA	BlockProc	BlockList	NA	22	{LEFTARROW}	NA	-100	1485	incongruent	NA	NA	NA	NA	NA	NA	NA	NA	NA	NA	NA	NA	NA	NA	NA	NA	NA	NA	NA	NA	4	1	TrialProc	TrialList	0	9	206919	17	0	16	204803	1000	1	{LEFTARROW}	-999999	0	206303	0	{LEFTARROW}	607	206910	NA	NA	left	rrlrr.bmp	354	0	NA	-999999	16	207452	0	1	7466	214918	0	NA	-999999	15	214933	0	1	7617	222550	3	1	22
Arrow Flanker 2014	12292	1	"<?xml version=""1.0""?>\n<Clock xmlns:dt=""urn:schemas-microsoft-com:datatypes""><Description dt:dt=""string"">E-Prime Primary Realtime Clock</Description><StartTime><Timestamp dt:dt=""int"">0</Timestamp><DateUtc dt:dt=""string"">2015-05-20T15:57:52Z</DateUtc></StartTime><FrequencyChanges><FrequencyChange><Frequency dt:dt=""r8"">2825644</Frequency><Timestamp dt:dt=""r8"">1796441148138</Timestamp><Current dt:dt=""r8"">0</Current><DateUtc dt:dt=""string"">2015-05-20T15:57:52Z</DateUtc></FrequencyChange></FrequencyChanges></Clock>\n"	Arrow Flanker 2014-12292-1	60.018	1.0.0.100	1	1145386412	Professional	2.0.10.353	2.0.10.353	05-20-2015	5/20/2015 3:57:53 PM	11:57:53	2.0.10.248	3	1	1	1	NA	NA	NA	NA	NA	NA	NA	NA	NA	NA	NA	NA	NA	NA	NA	NA	NA	NA	NA	NA	NA	NA	NA	NA	BlockProc	BlockList	NA	23	{RIGHTARROW}	NA	-100	2408	congruent	NA	NA	NA	NA	NA	NA	NA	NA	NA	NA	NA	NA	NA	NA	NA	NA	NA	NA	NA	NA	NA	NA	TrialProc	TrialList	0	12	227513	17	0	21	224930	1417	1	{RIGHTARROW}	-999999	0	226847	0	{RIGHTARROW}	654	227501	NA	NA	right	rrrrr.bmp	354	0	NA	0	0	0	0	NA	0	0	0	NA	0	0	0	0	NA	0	0	2	1	23
Arrow Flanker 2014	12292	1	"<?xml version=""1.0""?>\n<Clock xmlns:dt=""urn:schemas-microsoft-com:datatypes""><Description dt:dt=""string"">E-Prime Primary Realtime Clock</Description><StartTime><Timestamp dt:dt=""int"">0</Timestamp><DateUtc dt:dt=""string"">2015-05-20T15:57:52Z</DateUtc></StartTime><FrequencyChanges><FrequencyChange><Frequency dt:dt=""r8"">2825644</Frequency><Timestamp dt:dt=""r8"">1796441148138</Timestamp><Current dt:dt=""r8"">0</Current><DateUtc dt:dt=""string"">2015-05-20T15:57:52Z</DateUtc></FrequencyChange></FrequencyChanges></Clock>\n"	Arrow Flanker 2014-12292-1	60.018	1.0.0.100	1	1145386412	Professional	2.0.10.353	2.0.10.353	05-20-2015	5/20/2015 3:57:53 PM	11:57:53	2.0.10.248	3	1	1	1	NA	NA	NA	NA	NA	NA	NA	NA	NA	NA	NA	NA	NA	NA	NA	NA	NA	NA	NA	NA	NA	NA	NA	NA	BlockProc	BlockList	NA	24	{LEFTARROW}	NA	-100	1345	congruent	NA	NA	NA	NA	NA	NA	NA	NA	NA	NA	NA	NA	NA	NA	NA	NA	NA	NA	NA	NA	NA	NA	TrialProc	TrialList	0	16	230029	17	0	16	228046	900	1	{LEFTARROW}	-999999	0	229446	0	{LEFTARROW}	567	230013	NA	NA	left	lllll.bmp	354	0	NA	0	0	0	0	NA	0	0	0	NA	0	0	0	0	NA	0	0	1	1	24
Arrow Flanker 2014	12292	1	"<?xml version=""1.0""?>\n<Clock xmlns:dt=""urn:schemas-microsoft-com:datatypes""><Description dt:dt=""string"">E-Prime Primary Realtime Clock</Description><StartTime><Timestamp dt:dt=""int"">0</Timestamp><DateUtc dt:dt=""string"">2015-05-20T15:57:52Z</DateUtc></StartTime><FrequencyChanges><FrequencyChange><Frequency dt:dt=""r8"">2825644</Frequency><Timestamp dt:dt=""r8"">1796441148138</Timestamp><Current dt:dt=""r8"">0</Current><DateUtc dt:dt=""string"">2015-05-20T15:57:52Z</DateUtc></FrequencyChange></FrequencyChanges></Clock>\n"	Arrow Flanker 2014-12292-1	60.018	1.0.0.100	1	1145386412	Professional	2.0.10.353	2.0.10.353	05-20-2015	5/20/2015 3:57:53 PM	11:57:53	2.0.10.248	3	1	1	1	NA	NA	NA	NA	NA	NA	NA	NA	NA	NA	NA	NA	NA	NA	NA	NA	NA	NA	NA	NA	NA	NA	NA	NA	BlockProc	BlockList	NA	25	{LEFTARROW}	NA	-100	1828	congruent	NA	NA	NA	NA	NA	NA	NA	NA	NA	NA	NA	NA	NA	NA	NA	NA	NA	NA	NA	NA	NA	NA	TrialProc	TrialList	1	10	233111	17	0	16	230562	1550	1	{LEFTARROW}	-999999	0	232612	0	{LEFTARROW}	488	233100	NA	NA	left	lllll.bmp	354	0	NA	0	0	0	0	NA	0	0	0	NA	0	0	0	0	NA	0	0	1	1	25
Arrow Flanker 2014	12292	1	"<?xml version=""1.0""?>\n<Clock xmlns:dt=""urn:schemas-microsoft-com:datatypes""><Description dt:dt=""string"">E-Prime Primary Realtime Clock</Description><StartTime><Timestamp dt:dt=""int"">0</Timestamp><DateUtc dt:dt=""string"">2015-05-20T15:57:52Z</DateUtc></StartTime><FrequencyChanges><FrequencyChange><Frequency dt:dt=""r8"">2825644</Frequency><Timestamp dt:dt=""r8"">1796441148138</Timestamp><Current dt:dt=""r8"">0</Current><DateUtc dt:dt=""string"">2015-05-20T15:57:52Z</DateUtc></FrequencyChange></FrequencyChanges></Clock>\n"	Arrow Flanker 2014-12292-1	60.018	1.0.0.100	1	1145386412	Professional	2.0.10.353	2.0.10.353	05-20-2015	5/20/2015 3:57:53 PM	11:57:53	2.0.10.248	3	1	1	1	NA	NA	NA	NA	NA	NA	NA	NA	NA	NA	NA	NA	NA	NA	NA	NA	NA	NA	NA	NA	NA	NA	NA	NA	BlockProc	BlockList	NA	26	{RIGHTARROW}	NA	-100	1359	neutral	NA	NA	NA	NA	NA	NA	NA	NA	NA	NA	NA	NA	NA	NA	NA	NA	NA	NA	NA	NA	NA	NA	TrialProc	TrialList	1	19	235727	17	0	17	233645	0	1	{RIGHTARROW}	-999999	0	235078	0	{RIGHTARROW}	630	235708	NA	NA	right	ooroo.bmp	354	0	NA	0	0	0	0	NA	0	0	0	NA	0	0	0	0	NA	0	0	6	1	26
Arrow Flanker 2014	12292	1	"<?xml version=""1.0""?>\n<Clock xmlns:dt=""urn:schemas-microsoft-com:datatypes""><Description dt:dt=""string"">E-Prime Primary Realtime Clock</Description><StartTime><Timestamp dt:dt=""int"">0</Timestamp><DateUtc dt:dt=""string"">2015-05-20T15:57:52Z</DateUtc></StartTime><FrequencyChanges><FrequencyChange><Frequency dt:dt=""r8"">2825644</Frequency><Timestamp dt:dt=""r8"">1796441148138</Timestamp><Current dt:dt=""r8"">0</Current><DateUtc dt:dt=""string"">2015-05-20T15:57:52Z</DateUtc></FrequencyChange></FrequencyChanges></Clock>\n"	Arrow Flanker 2014-12292-1	60.018	1.0.0.100	1	1145386412	Professional	2.0.10.353	2.0.10.353	05-20-2015	5/20/2015 3:57:53 PM	11:57:53	2.0.10.248	3	1	1	1	NA	NA	NA	NA	NA	NA	NA	NA	NA	NA	NA	NA	NA	NA	NA	NA	NA	NA	NA	NA	NA	NA	NA	NA	BlockProc	BlockList	NA	27	{LEFTARROW}	NA	-100	1934	incongruent	NA	NA	NA	NA	NA	NA	NA	NA	NA	NA	NA	NA	NA	NA	NA	NA	NA	NA	NA	NA	NA	NA	TrialProc	TrialList	0	10	238710	16	0	17	236261	0	1	{LEFTARROW}	-999999	0	238043	0	{LEFTARROW}	657	238700	NA	NA	left	rrlrr.bmp	354	0	NA	0	0	0	0	NA	0	0	0	NA	0	0	0	0	NA	0	0	3	1	27
Arrow Flanker 2014	12292	1	"<?xml version=""1.0""?>\n<Clock xmlns:dt=""urn:schemas-microsoft-com:datatypes""><Description dt:dt=""string"">E-Prime Primary Realtime Clock</Description><StartTime><Timestamp dt:dt=""int"">0</Timestamp><DateUtc dt:dt=""string"">2015-05-20T15:57:52Z</DateUtc></StartTime><FrequencyChanges><FrequencyChange><Frequency dt:dt=""r8"">2825644</Frequency><Timestamp dt:dt=""r8"">1796441148138</Timestamp><Current dt:dt=""r8"">0</Current><DateUtc dt:dt=""string"">2015-05-20T15:57:52Z</DateUtc></FrequencyChange></FrequencyChanges></Clock>\n"	Arrow Flanker 2014-12292-1	60.018	1.0.0.100	1	1145386412	Professional	2.0.10.353	2.0.10.353	05-20-2015	5/20/2015 3:57:53 PM	11:57:53	2.0.10.248	3	1	1	1	NA	NA	NA	NA	NA	NA	NA	NA	NA	NA	NA	NA	NA	NA	NA	NA	NA	NA	NA	NA	NA	NA	NA	NA	BlockProc	BlockList	NA	28	{LEFTARROW}	NA	-100	1503	incongruent	NA	NA	NA	NA	NA	NA	NA	NA	NA	NA	NA	NA	NA	NA	NA	NA	NA	NA	NA	NA	NA	NA	TrialProc	TrialList	1	5	241009	17	0	17	239243	0	1	{LEFTARROW}	-999999	0	240409	0	{LEFTARROW}	595	241004	NA	NA	left	rrlrr.bmp	354	0	NA	0	0	0	0	NA	0	0	0	NA	0	0	0	0	NA	0	0	3	1	28
Arrow Flanker 2014	12292	1	"<?xml version=""1.0""?>\n<Clock xmlns:dt=""urn:schemas-microsoft-com:datatypes""><Description dt:dt=""string"">E-Prime Primary Realtime Clock</Description><StartTime><Timestamp dt:dt=""int"">0</Timestamp><DateUtc dt:dt=""string"">2015-05-20T15:57:52Z</DateUtc></StartTime><FrequencyChanges><FrequencyChange><Frequency dt:dt=""r8"">2825644</Frequency><Timestamp dt:dt=""r8"">1796441148138</Timestamp><Current dt:dt=""r8"">0</Current><DateUtc dt:dt=""string"">2015-05-20T15:57:52Z</DateUtc></FrequencyChange></FrequencyChanges></Clock>\n"	Arrow Flanker 2014-12292-1	60.018	1.0.0.100	1	1145386412	Professional	2.0.10.353	2.0.10.353	05-20-2015	5/20/2015 3:57:53 PM	11:57:53	2.0.10.248	3	1	1	1	NA	NA	NA	NA	NA	NA	NA	NA	NA	NA	NA	NA	NA	NA	NA	NA	NA	NA	NA	NA	NA	NA	NA	NA	BlockProc	BlockList	NA	29	{RIGHTARROW}	NA	-100	1628	congruent	NA	NA	NA	NA	NA	NA	NA	NA	NA	NA	NA	NA	NA	NA	NA	NA	NA	NA	NA	NA	NA	NA	TrialProc	TrialList	0	15	243275	17	0	16	241542	0	1	{RIGHTARROW}	-999999	0	242725	0	{RIGHTARROW}	535	243260	NA	NA	right	rrrrr.bmp	354	0	NA	0	0	0	0	NA	0	0	0	NA	0	0	0	0	NA	0	0	2	1	29
Arrow Flanker 2014	12292	1	"<?xml version=""1.0""?>\n<Clock xmlns:dt=""urn:schemas-microsoft-com:datatypes""><Description dt:dt=""string"">E-Prime Primary Realtime Clock</Description><StartTime><Timestamp dt:dt=""int"">0</Timestamp><DateUtc dt:dt=""string"">2015-05-20T15:57:52Z</DateUtc></StartTime><FrequencyChanges><FrequencyChange><Frequency dt:dt=""r8"">2825644</Frequency><Timestamp dt:dt=""r8"">1796441148138</Timestamp><Current dt:dt=""r8"">0</Current><DateUtc dt:dt=""string"">2015-05-20T15:57:52Z</DateUtc></FrequencyChange></FrequencyChanges></Clock>\n"	Arrow Flanker 2014-12292-1	60.018	1.0.0.100	1	1145386412	Professional	2.0.10.353	2.0.10.353	05-20-2015	5/20/2015 3:57:53 PM	11:57:53	2.0.10.248	3	1	1	1	NA	NA	NA	NA	NA	NA	NA	NA	NA	NA	NA	NA	NA	NA	NA	NA	NA	NA	NA	NA	NA	NA	NA	NA	BlockProc	BlockList	NA	30	{RIGHTARROW}	NA	-100	1474	neutral	NA	NA	NA	NA	NA	NA	NA	NA	NA	NA	NA	NA	NA	NA	NA	NA	NA	NA	NA	NA	NA	NA	TrialProc	TrialList	0	8	245908	16	0	16	243808	0	1	{RIGHTARROW}	-999999	0	245125	0	{RIGHTARROW}	775	245900	NA	NA	right	ooroo.bmp	354	0	NA	0	0	0	0	NA	0	0	0	NA	0	0	0	0	NA	0	0	6	1	30
Arrow Flanker 2014	12292	1	"<?xml version=""1.0""?>\n<Clock xmlns:dt=""urn:schemas-microsoft-com:datatypes""><Description dt:dt=""string"">E-Prime Primary Realtime Clock</Description><StartTime><Timestamp dt:dt=""int"">0</Timestamp><DateUtc dt:dt=""string"">2015-05-20T15:57:52Z</DateUtc></StartTime><FrequencyChanges><FrequencyChange><Frequency dt:dt=""r8"">2825644</Frequency><Timestamp dt:dt=""r8"">1796441148138</Timestamp><Current dt:dt=""r8"">0</Current><DateUtc dt:dt=""string"">2015-05-20T15:57:52Z</DateUtc></FrequencyChange></FrequencyChanges></Clock>\n"	Arrow Flanker 2014-12292-1	60.018	1.0.0.100	1	1145386412	Professional	2.0.10.353	2.0.10.353	05-20-2015	5/20/2015 3:57:53 PM	11:57:53	2.0.10.248	3	1	1	1	NA	NA	NA	NA	NA	NA	NA	NA	NA	NA	NA	NA	NA	NA	NA	NA	NA	NA	NA	NA	NA	NA	NA	NA	BlockProc	BlockList	NA	31	{RIGHTARROW}	NA	-100	1402	congruent	NA	NA	NA	NA	NA	NA	NA	NA	NA	NA	NA	NA	NA	NA	NA	NA	NA	NA	NA	NA	NA	NA	TrialProc	TrialList	0	5	248657	17	0	17	246441	0	1	{RIGHTARROW}	-999999	0	248107	0	{RIGHTARROW}	544	248651	NA	NA	right	rrrrr.bmp	354	0	NA	0	0	0	0	NA	0	0	0	NA	0	0	0	0	NA	0	0	2	1	31
Arrow Flanker 2014	12292	1	"<?xml version=""1.0""?>\n<Clock xmlns:dt=""urn:schemas-microsoft-com:datatypes""><Description dt:dt=""string"">E-Prime Primary Realtime Clock</Description><StartTime><Timestamp dt:dt=""int"">0</Timestamp><DateUtc dt:dt=""string"">2015-05-20T15:57:52Z</DateUtc></StartTime><FrequencyChanges><FrequencyChange><Frequency dt:dt=""r8"">2825644</Frequency><Timestamp dt:dt=""r8"">1796441148138</Timestamp><Current dt:dt=""r8"">0</Current><DateUtc dt:dt=""string"">2015-05-20T15:57:52Z</DateUtc></FrequencyChange></FrequencyChanges></Clock>\n"	Arrow Flanker 2014-12292-1	60.018	1.0.0.100	1	1145386412	Professional	2.0.10.353	2.0.10.353	05-20-2015	5/20/2015 3:57:53 PM	11:57:53	2.0.10.248	3	1	1	1	NA	NA	NA	NA	NA	NA	NA	NA	NA	NA	NA	NA	NA	NA	NA	NA	NA	NA	NA	NA	NA	NA	NA	NA	BlockProc	BlockList	NA	32	{RIGHTARROW}	NA	-100	1579	neutral	NA	NA	NA	NA	NA	NA	NA	NA	NA	NA	NA	NA	NA	NA	NA	NA	NA	NA	NA	NA	NA	NA	TrialProc	TrialList	0	7	251523	16	0	16	249190	0	1	{RIGHTARROW}	-999999	16	251006	0	{RIGHTARROW}	509	251515	NA	NA	right	ooroo.bmp	354	0	NA	0	0	0	0	NA	0	0	0	NA	0	0	0	0	NA	0	0	6	1	32
Arrow Flanker 2014	12292	1	"<?xml version=""1.0""?>\n<Clock xmlns:dt=""urn:schemas-microsoft-com:datatypes""><Description dt:dt=""string"">E-Prime Primary Realtime Clock</Description><StartTime><Timestamp dt:dt=""int"">0</Timestamp><DateUtc dt:dt=""string"">2015-05-20T15:57:52Z</DateUtc></StartTime><FrequencyChanges><FrequencyChange><Frequency dt:dt=""r8"">2825644</Frequency><Timestamp dt:dt=""r8"">1796441148138</Timestamp><Current dt:dt=""r8"">0</Current><DateUtc dt:dt=""string"">2015-05-20T15:57:52Z</DateUtc></FrequencyChange></FrequencyChanges></Clock>\n"	Arrow Flanker 2014-12292-1	60.018	1.0.0.100	1	1145386412	Professional	2.0.10.353	2.0.10.353	05-20-2015	5/20/2015 3:57:53 PM	11:57:53	2.0.10.248	3	1	1	1	NA	NA	NA	NA	NA	NA	NA	NA	NA	NA	NA	NA	NA	NA	NA	NA	NA	NA	NA	NA	NA	NA	NA	NA	BlockProc	BlockList	NA	33	{RIGHTARROW}	NA	-100	2332	incongruent	NA	NA	NA	NA	NA	NA	NA	NA	NA	NA	NA	NA	NA	NA	NA	NA	NA	NA	NA	NA	NA	NA	TrialProc	TrialList	0	17	254572	16	0	17	252056	0	1	{RIGHTARROW}	-999999	0	253822	0	{RIGHTARROW}	733	254555	NA	NA	right	llrll.bmp	354	0	NA	0	0	0	0	NA	0	0	0	NA	0	0	0	0	NA	0	0	4	1	33
Arrow Flanker 2014	12292	1	"<?xml version=""1.0""?>\n<Clock xmlns:dt=""urn:schemas-microsoft-com:datatypes""><Description dt:dt=""string"">E-Prime Primary Realtime Clock</Description><StartTime><Timestamp dt:dt=""int"">0</Timestamp><DateUtc dt:dt=""string"">2015-05-20T15:57:52Z</DateUtc></StartTime><FrequencyChanges><FrequencyChange><Frequency dt:dt=""r8"">2825644</Frequency><Timestamp dt:dt=""r8"">1796441148138</Timestamp><Current dt:dt=""r8"">0</Current><DateUtc dt:dt=""string"">2015-05-20T15:57:52Z</DateUtc></FrequencyChange></FrequencyChanges></Clock>\n"	Arrow Flanker 2014-12292-1	60.018	1.0.0.100	1	1145386412	Professional	2.0.10.353	2.0.10.353	05-20-2015	5/20/2015 3:57:53 PM	11:57:53	2.0.10.248	3	1	1	1	NA	NA	NA	NA	NA	NA	NA	NA	NA	NA	NA	NA	NA	NA	NA	NA	NA	NA	NA	NA	NA	NA	NA	NA	BlockProc	BlockList	NA	34	{RIGHTARROW}	NA	-100	950	incongruent	NA	NA	NA	NA	NA	NA	NA	NA	NA	NA	NA	NA	NA	NA	NA	NA	NA	NA	NA	NA	NA	NA	TrialProc	TrialList	1	13	256904	17	0	17	255105	0	1	{RIGHTARROW}	-999999	0	256271	0	{RIGHTARROW}	620	256891	NA	NA	right	llrll.bmp	354	0	NA	0	0	0	0	NA	0	0	0	NA	0	0	0	0	NA	0	0	4	1	34
Arrow Flanker 2014	12292	1	"<?xml version=""1.0""?>\n<Clock xmlns:dt=""urn:schemas-microsoft-com:datatypes""><Description dt:dt=""string"">E-Prime Primary Realtime Clock</Description><StartTime><Timestamp dt:dt=""int"">0</Timestamp><DateUtc dt:dt=""string"">2015-05-20T15:57:52Z</DateUtc></StartTime><FrequencyChanges><FrequencyChange><Frequency dt:dt=""r8"">2825644</Frequency><Timestamp dt:dt=""r8"">1796441148138</Timestamp><Current dt:dt=""r8"">0</Current><DateUtc dt:dt=""string"">2015-05-20T15:57:52Z</DateUtc></FrequencyChange></FrequencyChanges></Clock>\n"	Arrow Flanker 2014-12292-1	60.018	1.0.0.100	1	1145386412	Professional	2.0.10.353	2.0.10.353	05-20-2015	5/20/2015 3:57:53 PM	11:57:53	2.0.10.248	3	1	1	1	NA	NA	NA	NA	NA	NA	NA	NA	NA	NA	NA	NA	NA	NA	NA	NA	NA	NA	NA	NA	NA	NA	NA	NA	BlockProc	BlockList	NA	35	{LEFTARROW}	NA	-100	1739	incongruent	NA	NA	NA	NA	NA	NA	NA	NA	NA	NA	NA	NA	NA	NA	NA	NA	NA	NA	NA	NA	NA	NA	TrialProc	TrialList	0	19	259854	16	0	17	257438	0	1	{LEFTARROW}	-999999	0	259304	0	{LEFTARROW}	531	259835	NA	NA	left	rrlrr.bmp	354	0	NA	0	0	0	0	NA	0	0	0	NA	0	0	0	0	NA	0	0	3	1	35
Arrow Flanker 2014	12292	1	"<?xml version=""1.0""?>\n<Clock xmlns:dt=""urn:schemas-microsoft-com:datatypes""><Description dt:dt=""string"">E-Prime Primary Realtime Clock</Description><StartTime><Timestamp dt:dt=""int"">0</Timestamp><DateUtc dt:dt=""string"">2015-05-20T15:57:52Z</DateUtc></StartTime><FrequencyChanges><FrequencyChange><Frequency dt:dt=""r8"">2825644</Frequency><Timestamp dt:dt=""r8"">1796441148138</Timestamp><Current dt:dt=""r8"">0</Current><DateUtc dt:dt=""string"">2015-05-20T15:57:52Z</DateUtc></FrequencyChange></FrequencyChanges></Clock>\n"	Arrow Flanker 2014-12292-1	60.018	1.0.0.100	1	1145386412	Professional	2.0.10.353	2.0.10.353	05-20-2015	5/20/2015 3:57:53 PM	11:57:53	2.0.10.248	3	1	1	1	NA	NA	NA	NA	NA	NA	NA	NA	NA	NA	NA	NA	NA	NA	NA	NA	NA	NA	NA	NA	NA	NA	NA	NA	BlockProc	BlockList	NA	36	{RIGHTARROW}	NA	-100	1249	neutral	NA	NA	NA	NA	NA	NA	NA	NA	NA	NA	NA	NA	NA	NA	NA	NA	NA	NA	NA	NA	NA	NA	TrialProc	TrialList	1	5	262336	17	0	17	260387	0	1	{RIGHTARROW}	-999999	0	261853	0	{RIGHTARROW}	478	262331	NA	NA	right	ooroo.bmp	354	0	NA	0	0	0	0	NA	0	0	0	NA	0	0	0	0	NA	0	0	6	1	36
Arrow Flanker 2014	12292	1	"<?xml version=""1.0""?>\n<Clock xmlns:dt=""urn:schemas-microsoft-com:datatypes""><Description dt:dt=""string"">E-Prime Primary Realtime Clock</Description><StartTime><Timestamp dt:dt=""int"">0</Timestamp><DateUtc dt:dt=""string"">2015-05-20T15:57:52Z</DateUtc></StartTime><FrequencyChanges><FrequencyChange><Frequency dt:dt=""r8"">2825644</Frequency><Timestamp dt:dt=""r8"">1796441148138</Timestamp><Current dt:dt=""r8"">0</Current><DateUtc dt:dt=""string"">2015-05-20T15:57:52Z</DateUtc></FrequencyChange></FrequencyChanges></Clock>\n"	Arrow Flanker 2014-12292-1	60.018	1.0.0.100	1	1145386412	Professional	2.0.10.353	2.0.10.353	05-20-2015	5/20/2015 3:57:53 PM	11:57:53	2.0.10.248	3	1	1	1	NA	NA	NA	NA	NA	NA	NA	NA	NA	NA	NA	NA	NA	NA	NA	NA	NA	NA	NA	NA	NA	NA	NA	NA	BlockProc	BlockList	NA	37	{RIGHTARROW}	NA	-100	2119	incongruent	NA	NA	NA	NA	NA	NA	NA	NA	NA	NA	NA	NA	NA	NA	NA	NA	NA	NA	NA	NA	4	1	TrialProc	TrialList	0	5	265136	16	0	16	262869	0	1	{RIGHTARROW}	-999999	0	264652	0	{RIGHTARROW}	479	265131	NA	NA	right	llrll.bmp	354	0	NA	-999999	17	265669	0	1	8542	274211	0	NA	-999999	22	274233	0	1	994	275227	4	1	37
Arrow Flanker 2014	12292	1	"<?xml version=""1.0""?>\n<Clock xmlns:dt=""urn:schemas-microsoft-com:datatypes""><Description dt:dt=""string"">E-Prime Primary Realtime Clock</Description><StartTime><Timestamp dt:dt=""int"">0</Timestamp><DateUtc dt:dt=""string"">2015-05-20T15:57:52Z</DateUtc></StartTime><FrequencyChanges><FrequencyChange><Frequency dt:dt=""r8"">2825644</Frequency><Timestamp dt:dt=""r8"">1796441148138</Timestamp><Current dt:dt=""r8"">0</Current><DateUtc dt:dt=""string"">2015-05-20T15:57:52Z</DateUtc></FrequencyChange></FrequencyChanges></Clock>\n"	Arrow Flanker 2014-12292-1	60.018	1.0.0.100	1	1145386412	Professional	2.0.10.353	2.0.10.353	05-20-2015	5/20/2015 3:57:53 PM	11:57:53	2.0.10.248	3	1	1	1	NA	NA	NA	NA	NA	NA	NA	NA	NA	NA	NA	NA	NA	NA	NA	NA	NA	NA	NA	NA	NA	NA	NA	NA	BlockProc	BlockList	NA	38	{LEFTARROW}	NA	-100	2059	congruent	NA	NA	NA	NA	NA	NA	NA	NA	NA	NA	NA	NA	NA	NA	NA	NA	NA	NA	NA	NA	NA	NA	TrialProc	TrialList	1	8	279714	17	0	25	276499	0	1	{LEFTARROW}	0	0	278398	0	{LEFTARROW}	1308	279706	NA	NA	left	lllll.bmp	354	0	NA	0	0	0	0	NA	0	0	0	NA	0	0	0	0	NA	0	0	1	1	38
Arrow Flanker 2014	12292	1	"<?xml version=""1.0""?>\n<Clock xmlns:dt=""urn:schemas-microsoft-com:datatypes""><Description dt:dt=""string"">E-Prime Primary Realtime Clock</Description><StartTime><Timestamp dt:dt=""int"">0</Timestamp><DateUtc dt:dt=""string"">2015-05-20T15:57:52Z</DateUtc></StartTime><FrequencyChanges><FrequencyChange><Frequency dt:dt=""r8"">2825644</Frequency><Timestamp dt:dt=""r8"">1796441148138</Timestamp><Current dt:dt=""r8"">0</Current><DateUtc dt:dt=""string"">2015-05-20T15:57:52Z</DateUtc></FrequencyChange></FrequencyChanges></Clock>\n"	Arrow Flanker 2014-12292-1	60.018	1.0.0.100	1	1145386412	Professional	2.0.10.353	2.0.10.353	05-20-2015	5/20/2015 3:57:53 PM	11:57:53	2.0.10.248	3	1	1	1	NA	NA	NA	NA	NA	NA	NA	NA	NA	NA	NA	NA	NA	NA	NA	NA	NA	NA	NA	NA	NA	NA	NA	NA	BlockProc	BlockList	NA	39	{RIGHTARROW}	NA	-100	1866	incongruent	NA	NA	NA	NA	NA	NA	NA	NA	NA	NA	NA	NA	NA	NA	NA	NA	NA	NA	NA	NA	NA	NA	TrialProc	TrialList	1	16	282330	17	0	17	280248	0	1	{RIGHTARROW}	-999999	0	281697	0	{RIGHTARROW}	617	282314	NA	NA	right	llrll.bmp	354	0	NA	0	0	0	0	NA	0	0	0	NA	0	0	0	0	NA	0	0	4	1	39
Arrow Flanker 2014	12292	1	"<?xml version=""1.0""?>\n<Clock xmlns:dt=""urn:schemas-microsoft-com:datatypes""><Description dt:dt=""string"">E-Prime Primary Realtime Clock</Description><StartTime><Timestamp dt:dt=""int"">0</Timestamp><DateUtc dt:dt=""string"">2015-05-20T15:57:52Z</DateUtc></StartTime><FrequencyChanges><FrequencyChange><Frequency dt:dt=""r8"">2825644</Frequency><Timestamp dt:dt=""r8"">1796441148138</Timestamp><Current dt:dt=""r8"">0</Current><DateUtc dt:dt=""string"">2015-05-20T15:57:52Z</DateUtc></FrequencyChange></FrequencyChanges></Clock>\n"	Arrow Flanker 2014-12292-1	60.018	1.0.0.100	1	1145386412	Professional	2.0.10.353	2.0.10.353	05-20-2015	5/20/2015 3:57:53 PM	11:57:53	2.0.10.248	3	1	1	1	NA	NA	NA	NA	NA	NA	NA	NA	NA	NA	NA	NA	NA	NA	NA	NA	NA	NA	NA	NA	NA	NA	NA	NA	BlockProc	BlockList	NA	40	{LEFTARROW}	NA	-100	2300	incongruent	NA	NA	NA	NA	NA	NA	NA	NA	NA	NA	NA	NA	NA	NA	NA	NA	NA	NA	NA	NA	NA	NA	TrialProc	TrialList	1	17	285579	17	0	17	282864	0	1	{LEFTARROW}	-999999	0	284913	0	{LEFTARROW}	648	285561	NA	NA	left	rrlrr.bmp	354	0	NA	0	0	0	0	NA	0	0	0	NA	0	0	0	0	NA	0	0	3	1	40
Arrow Flanker 2014	12292	1	"<?xml version=""1.0""?>\n<Clock xmlns:dt=""urn:schemas-microsoft-com:datatypes""><Description dt:dt=""string"">E-Prime Primary Realtime Clock</Description><StartTime><Timestamp dt:dt=""int"">0</Timestamp><DateUtc dt:dt=""string"">2015-05-20T15:57:52Z</DateUtc></StartTime><FrequencyChanges><FrequencyChange><Frequency dt:dt=""r8"">2825644</Frequency><Timestamp dt:dt=""r8"">1796441148138</Timestamp><Current dt:dt=""r8"">0</Current><DateUtc dt:dt=""string"">2015-05-20T15:57:52Z</DateUtc></FrequencyChange></FrequencyChanges></Clock>\n"	Arrow Flanker 2014-12292-1	60.018	1.0.0.100	1	1145386412	Professional	2.0.10.353	2.0.10.353	05-20-2015	5/20/2015 3:57:53 PM	11:57:53	2.0.10.248	3	1	1	1	NA	NA	NA	NA	NA	NA	NA	NA	NA	NA	NA	NA	NA	NA	NA	NA	NA	NA	NA	NA	NA	NA	NA	NA	BlockProc	BlockList	NA	41	{LEFTARROW}	NA	-100	1976	congruent	NA	NA	NA	NA	NA	NA	NA	NA	NA	NA	NA	NA	NA	NA	NA	NA	NA	NA	NA	NA	NA	NA	TrialProc	TrialList	0	16	287962	17	0	17	286113	0	1	{LEFTARROW}	-999999	0	287412	0	{LEFTARROW}	533	287945	NA	NA	left	lllll.bmp	354	0	NA	0	0	0	0	NA	0	0	0	NA	0	0	0	0	NA	0	0	1	1	41
Arrow Flanker 2014	12292	1	"<?xml version=""1.0""?>\n<Clock xmlns:dt=""urn:schemas-microsoft-com:datatypes""><Description dt:dt=""string"">E-Prime Primary Realtime Clock</Description><StartTime><Timestamp dt:dt=""int"">0</Timestamp><DateUtc dt:dt=""string"">2015-05-20T15:57:52Z</DateUtc></StartTime><FrequencyChanges><FrequencyChange><Frequency dt:dt=""r8"">2825644</Frequency><Timestamp dt:dt=""r8"">1796441148138</Timestamp><Current dt:dt=""r8"">0</Current><DateUtc dt:dt=""string"">2015-05-20T15:57:52Z</DateUtc></FrequencyChange></FrequencyChanges></Clock>\n"	Arrow Flanker 2014-12292-1	60.018	1.0.0.100	1	1145386412	Professional	2.0.10.353	2.0.10.353	05-20-2015	5/20/2015 3:57:53 PM	11:57:53	2.0.10.248	3	1	1	1	NA	NA	NA	NA	NA	NA	NA	NA	NA	NA	NA	NA	NA	NA	NA	NA	NA	NA	NA	NA	NA	NA	NA	NA	BlockProc	BlockList	NA	42	{LEFTARROW}	NA	-100	1452	incongruent	NA	NA	NA	NA	NA	NA	NA	NA	NA	NA	NA	NA	NA	NA	NA	NA	NA	NA	NA	NA	NA	NA	TrialProc	TrialList	0	21	290478	17	0	16	288495	0	1	{LEFTARROW}	-999999	0	289878	0	{LEFTARROW}	579	290457	NA	NA	left	rrlrr.bmp	354	0	NA	0	0	0	0	NA	0	0	0	NA	0	0	0	0	NA	0	0	3	1	42
Arrow Flanker 2014	12292	1	"<?xml version=""1.0""?>\n<Clock xmlns:dt=""urn:schemas-microsoft-com:datatypes""><Description dt:dt=""string"">E-Prime Primary Realtime Clock</Description><StartTime><Timestamp dt:dt=""int"">0</Timestamp><DateUtc dt:dt=""string"">2015-05-20T15:57:52Z</DateUtc></StartTime><FrequencyChanges><FrequencyChange><Frequency dt:dt=""r8"">2825644</Frequency><Timestamp dt:dt=""r8"">1796441148138</Timestamp><Current dt:dt=""r8"">0</Current><DateUtc dt:dt=""string"">2015-05-20T15:57:52Z</DateUtc></FrequencyChange></FrequencyChanges></Clock>\n"	Arrow Flanker 2014-12292-1	60.018	1.0.0.100	1	1145386412	Professional	2.0.10.353	2.0.10.353	05-20-2015	5/20/2015 3:57:53 PM	11:57:53	2.0.10.248	3	1	1	1	NA	NA	NA	NA	NA	NA	NA	NA	NA	NA	NA	NA	NA	NA	NA	NA	NA	NA	NA	NA	NA	NA	NA	NA	BlockProc	BlockList	NA	43	{RIGHTARROW}	NA	-100	1682	neutral	NA	NA	NA	NA	NA	NA	NA	NA	NA	NA	NA	NA	NA	NA	NA	NA	NA	NA	NA	NA	NA	NA	TrialProc	TrialList	1	10	293027	17	0	16	291011	0	1	{RIGHTARROW}	-999999	-1	292477	0	{RIGHTARROW}	540	293017	NA	NA	right	ooroo.bmp	354	0	NA	0	0	0	0	NA	0	0	0	NA	0	0	0	0	NA	0	0	6	1	43
Arrow Flanker 2014	12292	1	"<?xml version=""1.0""?>\n<Clock xmlns:dt=""urn:schemas-microsoft-com:datatypes""><Description dt:dt=""string"">E-Prime Primary Realtime Clock</Description><StartTime><Timestamp dt:dt=""int"">0</Timestamp><DateUtc dt:dt=""string"">2015-05-20T15:57:52Z</DateUtc></StartTime><FrequencyChanges><FrequencyChange><Frequency dt:dt=""r8"">2825644</Frequency><Timestamp dt:dt=""r8"">1796441148138</Timestamp><Current dt:dt=""r8"">0</Current><DateUtc dt:dt=""string"">2015-05-20T15:57:52Z</DateUtc></FrequencyChange></FrequencyChanges></Clock>\n"	Arrow Flanker 2014-12292-1	60.018	1.0.0.100	1	1145386412	Professional	2.0.10.353	2.0.10.353	05-20-2015	5/20/2015 3:57:53 PM	11:57:53	2.0.10.248	3	1	1	1	NA	NA	NA	NA	NA	NA	NA	NA	NA	NA	NA	NA	NA	NA	NA	NA	NA	NA	NA	NA	NA	NA	NA	NA	BlockProc	BlockList	NA	44	{LEFTARROW}	NA	-100	1522	neutral	NA	NA	NA	NA	NA	NA	NA	NA	NA	NA	NA	NA	NA	NA	NA	NA	NA	NA	NA	NA	NA	NA	TrialProc	TrialList	1	6	295343	17	0	16	293560	0	1	{LEFTARROW}	-999999	0	294677	0	{LEFTARROW}	660	295337	NA	NA	left	ooloo.bmp	354	0	NA	0	0	0	0	NA	0	0	0	NA	0	0	0	0	NA	0	0	5	1	44
Arrow Flanker 2014	12292	1	"<?xml version=""1.0""?>\n<Clock xmlns:dt=""urn:schemas-microsoft-com:datatypes""><Description dt:dt=""string"">E-Prime Primary Realtime Clock</Description><StartTime><Timestamp dt:dt=""int"">0</Timestamp><DateUtc dt:dt=""string"">2015-05-20T15:57:52Z</DateUtc></StartTime><FrequencyChanges><FrequencyChange><Frequency dt:dt=""r8"">2825644</Frequency><Timestamp dt:dt=""r8"">1796441148138</Timestamp><Current dt:dt=""r8"">0</Current><DateUtc dt:dt=""string"">2015-05-20T15:57:52Z</DateUtc></FrequencyChange></FrequencyChanges></Clock>\n"	Arrow Flanker 2014-12292-1	60.018	1.0.0.100	1	1145386412	Professional	2.0.10.353	2.0.10.353	05-20-2015	5/20/2015 3:57:53 PM	11:57:53	2.0.10.248	3	1	1	1	NA	NA	NA	NA	NA	NA	NA	NA	NA	NA	NA	NA	NA	NA	NA	NA	NA	NA	NA	NA	NA	NA	NA	NA	BlockProc	BlockList	NA	45	{RIGHTARROW}	NA	-100	1300	congruent	NA	NA	NA	NA	NA	NA	NA	NA	NA	NA	NA	NA	NA	NA	NA	NA	NA	NA	NA	NA	NA	NA	TrialProc	TrialList	0	19	297676	17	0	16	295876	0	1	{RIGHTARROW}	-999999	0	297143	0	{RIGHTARROW}	514	297657	NA	NA	right	rrrrr.bmp	354	0	NA	0	0	0	0	NA	0	0	0	NA	0	0	0	0	NA	0	0	2	1	45
Arrow Flanker 2014	12292	1	"<?xml version=""1.0""?>\n<Clock xmlns:dt=""urn:schemas-microsoft-com:datatypes""><Description dt:dt=""string"">E-Prime Primary Realtime Clock</Description><StartTime><Timestamp dt:dt=""int"">0</Timestamp><DateUtc dt:dt=""string"">2015-05-20T15:57:52Z</DateUtc></StartTime><FrequencyChanges><FrequencyChange><Frequency dt:dt=""r8"">2825644</Frequency><Timestamp dt:dt=""r8"">1796441148138</Timestamp><Current dt:dt=""r8"">0</Current><DateUtc dt:dt=""string"">2015-05-20T15:57:52Z</DateUtc></FrequencyChange></FrequencyChanges></Clock>\n"	Arrow Flanker 2014-12292-1	60.018	1.0.0.100	1	1145386412	Professional	2.0.10.353	2.0.10.353	05-20-2015	5/20/2015 3:57:53 PM	11:57:53	2.0.10.248	3	1	1	1	NA	NA	NA	NA	NA	NA	NA	NA	NA	NA	NA	NA	NA	NA	NA	NA	NA	NA	NA	NA	NA	NA	NA	NA	BlockProc	BlockList	NA	46	{LEFTARROW}	NA	-100	1653	congruent	NA	NA	NA	NA	NA	NA	NA	NA	NA	NA	NA	NA	NA	NA	NA	NA	NA	NA	NA	NA	NA	NA	TrialProc	TrialList	1	18	300075	17	0	16	298209	0	1	{LEFTARROW}	-999999	0	299609	0	{LEFTARROW}	448	300057	NA	NA	left	lllll.bmp	354	0	NA	0	0	0	0	NA	0	0	0	NA	0	0	0	0	NA	0	0	1	1	46
Arrow Flanker 2014	12292	1	"<?xml version=""1.0""?>\n<Clock xmlns:dt=""urn:schemas-microsoft-com:datatypes""><Description dt:dt=""string"">E-Prime Primary Realtime Clock</Description><StartTime><Timestamp dt:dt=""int"">0</Timestamp><DateUtc dt:dt=""string"">2015-05-20T15:57:52Z</DateUtc></StartTime><FrequencyChanges><FrequencyChange><Frequency dt:dt=""r8"">2825644</Frequency><Timestamp dt:dt=""r8"">1796441148138</Timestamp><Current dt:dt=""r8"">0</Current><DateUtc dt:dt=""string"">2015-05-20T15:57:52Z</DateUtc></FrequencyChange></FrequencyChanges></Clock>\n"	Arrow Flanker 2014-12292-1	60.018	1.0.0.100	1	1145386412	Professional	2.0.10.353	2.0.10.353	05-20-2015	5/20/2015 3:57:53 PM	11:57:53	2.0.10.248	3	1	1	1	NA	NA	NA	NA	NA	NA	NA	NA	NA	NA	NA	NA	NA	NA	NA	NA	NA	NA	NA	NA	NA	NA	NA	NA	BlockProc	BlockList	NA	47	{LEFTARROW}	NA	-100	1855	incongruent	NA	NA	NA	NA	NA	NA	NA	NA	NA	NA	NA	NA	NA	NA	NA	NA	NA	NA	NA	NA	NA	NA	TrialProc	TrialList	1	7	303024	17	0	16	300608	0	1	{LEFTARROW}	-999999	0	302491	0	{LEFTARROW}	526	303017	NA	NA	left	rrlrr.bmp	354	0	NA	0	0	0	0	NA	0	0	0	NA	0	0	0	0	NA	0	0	3	1	47
Arrow Flanker 2014	12292	1	"<?xml version=""1.0""?>\n<Clock xmlns:dt=""urn:schemas-microsoft-com:datatypes""><Description dt:dt=""string"">E-Prime Primary Realtime Clock</Description><StartTime><Timestamp dt:dt=""int"">0</Timestamp><DateUtc dt:dt=""string"">2015-05-20T15:57:52Z</DateUtc></StartTime><FrequencyChanges><FrequencyChange><Frequency dt:dt=""r8"">2825644</Frequency><Timestamp dt:dt=""r8"">1796441148138</Timestamp><Current dt:dt=""r8"">0</Current><DateUtc dt:dt=""string"">2015-05-20T15:57:52Z</DateUtc></FrequencyChange></FrequencyChanges></Clock>\n"	Arrow Flanker 2014-12292-1	60.018	1.0.0.100	1	1145386412	Professional	2.0.10.353	2.0.10.353	05-20-2015	5/20/2015 3:57:53 PM	11:57:53	2.0.10.248	3	1	1	1	NA	NA	NA	NA	NA	NA	NA	NA	NA	NA	NA	NA	NA	NA	NA	NA	NA	NA	NA	NA	NA	NA	NA	NA	BlockProc	BlockList	NA	48	{RIGHTARROW}	NA	-100	802	congruent	NA	NA	NA	NA	NA	NA	NA	NA	NA	NA	NA	NA	NA	NA	NA	NA	NA	NA	NA	NA	NA	NA	TrialProc	TrialList	1	19	305340	17	0	17	303558	0	1	{RIGHTARROW}	-999999	0	304774	0	{RIGHTARROW}	546	305320	NA	NA	right	rrrrr.bmp	354	0	NA	0	0	0	0	NA	0	0	0	NA	0	0	0	0	NA	0	0	2	1	48
Arrow Flanker 2014	12292	1	"<?xml version=""1.0""?>\n<Clock xmlns:dt=""urn:schemas-microsoft-com:datatypes""><Description dt:dt=""string"">E-Prime Primary Realtime Clock</Description><StartTime><Timestamp dt:dt=""int"">0</Timestamp><DateUtc dt:dt=""string"">2015-05-20T15:57:52Z</DateUtc></StartTime><FrequencyChanges><FrequencyChange><Frequency dt:dt=""r8"">2825644</Frequency><Timestamp dt:dt=""r8"">1796441148138</Timestamp><Current dt:dt=""r8"">0</Current><DateUtc dt:dt=""string"">2015-05-20T15:57:52Z</DateUtc></FrequencyChange></FrequencyChanges></Clock>\n"	Arrow Flanker 2014-12292-1	60.018	1.0.0.100	1	1145386412	Professional	2.0.10.353	2.0.10.353	05-20-2015	5/20/2015 3:57:53 PM	11:57:53	2.0.10.248	3	1	1	1	NA	NA	NA	NA	NA	NA	NA	NA	NA	NA	NA	NA	NA	NA	NA	NA	NA	NA	NA	NA	NA	NA	NA	NA	BlockProc	BlockList	NA	49	{RIGHTARROW}	NA	-100	2179	congruent	NA	NA	NA	NA	NA	NA	NA	NA	NA	NA	NA	NA	NA	NA	NA	NA	NA	NA	NA	NA	NA	NA	TrialProc	TrialList	1	8	307856	17	0	16	305873	1000	1	{RIGHTARROW}	-999999	0	307373	0	{RIGHTARROW}	475	307848	NA	NA	right	rrrrr.bmp	354	0	NA	0	0	0	0	NA	0	0	0	NA	0	0	0	0	NA	0	0	2	1	49
Arrow Flanker 2014	12292	1	"<?xml version=""1.0""?>\n<Clock xmlns:dt=""urn:schemas-microsoft-com:datatypes""><Description dt:dt=""string"">E-Prime Primary Realtime Clock</Description><StartTime><Timestamp dt:dt=""int"">0</Timestamp><DateUtc dt:dt=""string"">2015-05-20T15:57:52Z</DateUtc></StartTime><FrequencyChanges><FrequencyChange><Frequency dt:dt=""r8"">2825644</Frequency><Timestamp dt:dt=""r8"">1796441148138</Timestamp><Current dt:dt=""r8"">0</Current><DateUtc dt:dt=""string"">2015-05-20T15:57:52Z</DateUtc></FrequencyChange></FrequencyChanges></Clock>\n"	Arrow Flanker 2014-12292-1	60.018	1.0.0.100	1	1145386412	Professional	2.0.10.353	2.0.10.353	05-20-2015	5/20/2015 3:57:53 PM	11:57:53	2.0.10.248	3	1	1	1	NA	NA	NA	NA	NA	NA	NA	NA	NA	NA	NA	NA	NA	NA	NA	NA	NA	NA	NA	NA	NA	NA	NA	NA	BlockProc	BlockList	NA	50	{RIGHTARROW}	NA	-100	1945	neutral	NA	NA	NA	NA	NA	NA	NA	NA	NA	NA	NA	NA	NA	NA	NA	NA	NA	NA	NA	NA	NA	NA	TrialProc	TrialList	0	12	310772	17	0	17	308390	0	1	{RIGHTARROW}	-999999	0	310222	0	{RIGHTARROW}	538	310760	NA	NA	right	ooroo.bmp	354	0	NA	0	0	0	0	NA	0	0	0	NA	0	0	0	0	NA	0	0	6	1	50
Arrow Flanker 2014	12292	1	"<?xml version=""1.0""?>\n<Clock xmlns:dt=""urn:schemas-microsoft-com:datatypes""><Description dt:dt=""string"">E-Prime Primary Realtime Clock</Description><StartTime><Timestamp dt:dt=""int"">0</Timestamp><DateUtc dt:dt=""string"">2015-05-20T15:57:52Z</DateUtc></StartTime><FrequencyChanges><FrequencyChange><Frequency dt:dt=""r8"">2825644</Frequency><Timestamp dt:dt=""r8"">1796441148138</Timestamp><Current dt:dt=""r8"">0</Current><DateUtc dt:dt=""string"">2015-05-20T15:57:52Z</DateUtc></FrequencyChange></FrequencyChanges></Clock>\n"	Arrow Flanker 2014-12292-1	60.018	1.0.0.100	1	1145386412	Professional	2.0.10.353	2.0.10.353	05-20-2015	5/20/2015 3:57:53 PM	11:57:53	2.0.10.248	3	1	1	1	NA	NA	NA	NA	NA	NA	NA	NA	NA	NA	NA	NA	NA	NA	NA	NA	NA	NA	NA	NA	NA	NA	NA	NA	BlockProc	BlockList	NA	51	{LEFTARROW}	NA	-100	1730	incongruent	NA	NA	NA	NA	NA	NA	NA	NA	NA	NA	NA	NA	NA	NA	NA	NA	NA	NA	NA	NA	NA	NA	TrialProc	TrialList	0	21	313805	16	0	16	311305	0	1	{LEFTARROW}	-999999	0	313205	0	{LEFTARROW}	579	313784	NA	NA	left	rrlrr.bmp	354	0	NA	0	0	0	0	NA	0	0	0	NA	0	0	0	0	NA	0	0	3	1	51
Arrow Flanker 2014	12292	1	"<?xml version=""1.0""?>\n<Clock xmlns:dt=""urn:schemas-microsoft-com:datatypes""><Description dt:dt=""string"">E-Prime Primary Realtime Clock</Description><StartTime><Timestamp dt:dt=""int"">0</Timestamp><DateUtc dt:dt=""string"">2015-05-20T15:57:52Z</DateUtc></StartTime><FrequencyChanges><FrequencyChange><Frequency dt:dt=""r8"">2825644</Frequency><Timestamp dt:dt=""r8"">1796441148138</Timestamp><Current dt:dt=""r8"">0</Current><DateUtc dt:dt=""string"">2015-05-20T15:57:52Z</DateUtc></FrequencyChange></FrequencyChanges></Clock>\n"	Arrow Flanker 2014-12292-1	60.018	1.0.0.100	1	1145386412	Professional	2.0.10.353	2.0.10.353	05-20-2015	5/20/2015 3:57:53 PM	11:57:53	2.0.10.248	3	1	1	1	NA	NA	NA	NA	NA	NA	NA	NA	NA	NA	NA	NA	NA	NA	NA	NA	NA	NA	NA	NA	NA	NA	NA	NA	BlockProc	BlockList	NA	52	{LEFTARROW}	NA	-100	2120	congruent	NA	NA	NA	NA	NA	NA	NA	NA	NA	NA	NA	NA	NA	NA	NA	NA	NA	NA	NA	NA	NA	NA	TrialProc	TrialList	0	18	316554	16	0	17	314338	0	1	{LEFTARROW}	-999999	0	315837	0	{LEFTARROW}	699	316536	NA	NA	left	lllll.bmp	354	0	NA	0	0	0	0	NA	0	0	0	NA	0	0	0	0	NA	0	0	1	1	52
Arrow Flanker 2014	12292	1	"<?xml version=""1.0""?>\n<Clock xmlns:dt=""urn:schemas-microsoft-com:datatypes""><Description dt:dt=""string"">E-Prime Primary Realtime Clock</Description><StartTime><Timestamp dt:dt=""int"">0</Timestamp><DateUtc dt:dt=""string"">2015-05-20T15:57:52Z</DateUtc></StartTime><FrequencyChanges><FrequencyChange><Frequency dt:dt=""r8"">2825644</Frequency><Timestamp dt:dt=""r8"">1796441148138</Timestamp><Current dt:dt=""r8"">0</Current><DateUtc dt:dt=""string"">2015-05-20T15:57:52Z</DateUtc></FrequencyChange></FrequencyChanges></Clock>\n"	Arrow Flanker 2014-12292-1	60.018	1.0.0.100	1	1145386412	Professional	2.0.10.353	2.0.10.353	05-20-2015	5/20/2015 3:57:53 PM	11:57:53	2.0.10.248	3	1	1	1	NA	NA	NA	NA	NA	NA	NA	NA	NA	NA	NA	NA	NA	NA	NA	NA	NA	NA	NA	NA	NA	NA	NA	NA	BlockProc	BlockList	NA	53	{RIGHTARROW}	NA	-100	2168	incongruent	NA	NA	NA	NA	NA	NA	NA	NA	NA	NA	NA	NA	NA	NA	NA	NA	NA	NA	NA	NA	NA	NA	TrialProc	TrialList	1	12	319236	17	0	17	317087	0	1	{RIGHTARROW}	-999999	0	318653	0	{RIGHTARROW}	571	319224	NA	NA	right	llrll.bmp	354	0	NA	0	0	0	0	NA	0	0	0	NA	0	0	0	0	NA	0	0	4	1	53
Arrow Flanker 2014	12292	1	"<?xml version=""1.0""?>\n<Clock xmlns:dt=""urn:schemas-microsoft-com:datatypes""><Description dt:dt=""string"">E-Prime Primary Realtime Clock</Description><StartTime><Timestamp dt:dt=""int"">0</Timestamp><DateUtc dt:dt=""string"">2015-05-20T15:57:52Z</DateUtc></StartTime><FrequencyChanges><FrequencyChange><Frequency dt:dt=""r8"">2825644</Frequency><Timestamp dt:dt=""r8"">1796441148138</Timestamp><Current dt:dt=""r8"">0</Current><DateUtc dt:dt=""string"">2015-05-20T15:57:52Z</DateUtc></FrequencyChange></FrequencyChanges></Clock>\n"	Arrow Flanker 2014-12292-1	60.018	1.0.0.100	1	1145386412	Professional	2.0.10.353	2.0.10.353	05-20-2015	5/20/2015 3:57:53 PM	11:57:53	2.0.10.248	3	1	1	1	NA	NA	NA	NA	NA	NA	NA	NA	NA	NA	NA	NA	NA	NA	NA	NA	NA	NA	NA	NA	NA	NA	NA	NA	BlockProc	BlockList	NA	54	{LEFTARROW}	NA	-100	1254	incongruent	NA	NA	NA	NA	NA	NA	NA	NA	NA	NA	NA	NA	NA	NA	NA	NA	NA	NA	NA	NA	4	1	TrialProc	TrialList	0	18	321386	16	0	16	319769	0	1	{LEFTARROW}	-999999	16	320819	0	{LEFTARROW}	549	321368	NA	NA	left	rrlrr.bmp	354	0	NA	-999999	17	321919	0	1	2272	324191	0	NA	-999999	10	324202	0	1	990	325192	3	1	54
Arrow Flanker 2014	12292	1	"<?xml version=""1.0""?>\n<Clock xmlns:dt=""urn:schemas-microsoft-com:datatypes""><Description dt:dt=""string"">E-Prime Primary Realtime Clock</Description><StartTime><Timestamp dt:dt=""int"">0</Timestamp><DateUtc dt:dt=""string"">2015-05-20T15:57:52Z</DateUtc></StartTime><FrequencyChanges><FrequencyChange><Frequency dt:dt=""r8"">2825644</Frequency><Timestamp dt:dt=""r8"">1796441148138</Timestamp><Current dt:dt=""r8"">0</Current><DateUtc dt:dt=""string"">2015-05-20T15:57:52Z</DateUtc></FrequencyChange></FrequencyChanges></Clock>\n"	Arrow Flanker 2014-12292-1	60.018	1.0.0.100	1	1145386412	Professional	2.0.10.353	2.0.10.353	05-20-2015	5/20/2015 3:57:53 PM	11:57:53	2.0.10.248	3	1	1	1	NA	NA	NA	NA	NA	NA	NA	NA	NA	NA	NA	NA	NA	NA	NA	NA	NA	NA	NA	NA	NA	NA	NA	NA	BlockProc	BlockList	NA	55	{RIGHTARROW}	NA	-100	1089	neutral	NA	NA	NA	NA	NA	NA	NA	NA	NA	NA	NA	NA	NA	NA	NA	NA	NA	NA	NA	NA	NA	NA	TrialProc	TrialList	0	20	329067	16	0	26	327217	0	1	{RIGHTARROW}	-999999	-1	328583	0	{RIGHTARROW}	464	329047	NA	NA	right	ooroo.bmp	354	0	NA	0	0	0	0	NA	0	0	0	NA	0	0	0	0	NA	0	0	6	1	55
Arrow Flanker 2014	12292	1	"<?xml version=""1.0""?>\n<Clock xmlns:dt=""urn:schemas-microsoft-com:datatypes""><Description dt:dt=""string"">E-Prime Primary Realtime Clock</Description><StartTime><Timestamp dt:dt=""int"">0</Timestamp><DateUtc dt:dt=""string"">2015-05-20T15:57:52Z</DateUtc></StartTime><FrequencyChanges><FrequencyChange><Frequency dt:dt=""r8"">2825644</Frequency><Timestamp dt:dt=""r8"">1796441148138</Timestamp><Current dt:dt=""r8"">0</Current><DateUtc dt:dt=""string"">2015-05-20T15:57:52Z</DateUtc></FrequencyChange></FrequencyChanges></Clock>\n"	Arrow Flanker 2014-12292-1	60.018	1.0.0.100	1	1145386412	Professional	2.0.10.353	2.0.10.353	05-20-2015	5/20/2015 3:57:53 PM	11:57:53	2.0.10.248	3	1	1	1	NA	NA	NA	NA	NA	NA	NA	NA	NA	NA	NA	NA	NA	NA	NA	NA	NA	NA	NA	NA	NA	NA	NA	NA	BlockProc	BlockList	NA	56	{RIGHTARROW}	NA	-100	1575	congruent	NA	NA	NA	NA	NA	NA	NA	NA	NA	NA	NA	NA	NA	NA	NA	NA	NA	NA	NA	NA	NA	NA	TrialProc	TrialList	1	15	332182	17	0	17	329600	0	1	{RIGHTARROW}	-999999	0	331683	0	{RIGHTARROW}	484	332167	NA	NA	right	rrrrr.bmp	354	0	NA	0	0	0	0	NA	0	0	0	NA	0	0	0	0	NA	0	0	2	1	56
Arrow Flanker 2014	12292	1	"<?xml version=""1.0""?>\n<Clock xmlns:dt=""urn:schemas-microsoft-com:datatypes""><Description dt:dt=""string"">E-Prime Primary Realtime Clock</Description><StartTime><Timestamp dt:dt=""int"">0</Timestamp><DateUtc dt:dt=""string"">2015-05-20T15:57:52Z</DateUtc></StartTime><FrequencyChanges><FrequencyChange><Frequency dt:dt=""r8"">2825644</Frequency><Timestamp dt:dt=""r8"">1796441148138</Timestamp><Current dt:dt=""r8"">0</Current><DateUtc dt:dt=""string"">2015-05-20T15:57:52Z</DateUtc></FrequencyChange></FrequencyChanges></Clock>\n"	Arrow Flanker 2014-12292-1	60.018	1.0.0.100	1	1145386412	Professional	2.0.10.353	2.0.10.353	05-20-2015	5/20/2015 3:57:53 PM	11:57:53	2.0.10.248	3	1	1	1	NA	NA	NA	NA	NA	NA	NA	NA	NA	NA	NA	NA	NA	NA	NA	NA	NA	NA	NA	NA	NA	NA	NA	NA	BlockProc	BlockList	NA	57	{RIGHTARROW}	NA	-100	2003	congruent	NA	NA	NA	NA	NA	NA	NA	NA	NA	NA	NA	NA	NA	NA	NA	NA	NA	NA	NA	NA	NA	NA	TrialProc	TrialList	0	11	335282	16	0	17	332716	0	1	{RIGHTARROW}	-999999	0	334765	0	{RIGHTARROW}	506	335271	NA	NA	right	rrrrr.bmp	354	0	NA	0	0	0	0	NA	0	0	0	NA	0	0	0	0	NA	0	0	2	1	57
Arrow Flanker 2014	12292	1	"<?xml version=""1.0""?>\n<Clock xmlns:dt=""urn:schemas-microsoft-com:datatypes""><Description dt:dt=""string"">E-Prime Primary Realtime Clock</Description><StartTime><Timestamp dt:dt=""int"">0</Timestamp><DateUtc dt:dt=""string"">2015-05-20T15:57:52Z</DateUtc></StartTime><FrequencyChanges><FrequencyChange><Frequency dt:dt=""r8"">2825644</Frequency><Timestamp dt:dt=""r8"">1796441148138</Timestamp><Current dt:dt=""r8"">0</Current><DateUtc dt:dt=""string"">2015-05-20T15:57:52Z</DateUtc></FrequencyChange></FrequencyChanges></Clock>\n"	Arrow Flanker 2014-12292-1	60.018	1.0.0.100	1	1145386412	Professional	2.0.10.353	2.0.10.353	05-20-2015	5/20/2015 3:57:53 PM	11:57:53	2.0.10.248	3	1	1	1	NA	NA	NA	NA	NA	NA	NA	NA	NA	NA	NA	NA	NA	NA	NA	NA	NA	NA	NA	NA	NA	NA	NA	NA	BlockProc	BlockList	NA	58	{RIGHTARROW}	NA	-100	1592	neutral	NA	NA	NA	NA	NA	NA	NA	NA	NA	NA	NA	NA	NA	NA	NA	NA	NA	NA	NA	NA	NA	NA	TrialProc	TrialList	0	13	338164	17	0	17	335815	0	1	{RIGHTARROW}	-999999	0	337531	0	{RIGHTARROW}	620	338151	NA	NA	right	ooroo.bmp	354	0	NA	0	0	0	0	NA	0	0	0	NA	0	0	0	0	NA	0	0	6	1	58
Arrow Flanker 2014	12292	1	"<?xml version=""1.0""?>\n<Clock xmlns:dt=""urn:schemas-microsoft-com:datatypes""><Description dt:dt=""string"">E-Prime Primary Realtime Clock</Description><StartTime><Timestamp dt:dt=""int"">0</Timestamp><DateUtc dt:dt=""string"">2015-05-20T15:57:52Z</DateUtc></StartTime><FrequencyChanges><FrequencyChange><Frequency dt:dt=""r8"">2825644</Frequency><Timestamp dt:dt=""r8"">1796441148138</Timestamp><Current dt:dt=""r8"">0</Current><DateUtc dt:dt=""string"">2015-05-20T15:57:52Z</DateUtc></FrequencyChange></FrequencyChanges></Clock>\n"	Arrow Flanker 2014-12292-1	60.018	1.0.0.100	1	1145386412	Professional	2.0.10.353	2.0.10.353	05-20-2015	5/20/2015 3:57:53 PM	11:57:53	2.0.10.248	3	1	1	1	NA	NA	NA	NA	NA	NA	NA	NA	NA	NA	NA	NA	NA	NA	NA	NA	NA	NA	NA	NA	NA	NA	NA	NA	BlockProc	BlockList	NA	59	{RIGHTARROW}	NA	-100	1722	incongruent	NA	NA	NA	NA	NA	NA	NA	NA	NA	NA	NA	NA	NA	NA	NA	NA	NA	NA	NA	NA	NA	NA	TrialProc	TrialList	0	15	341030	17	0	16	338697	0	1	{RIGHTARROW}	-999999	0	340347	0	{RIGHTARROW}	667	341014	NA	NA	right	llrll.bmp	354	0	NA	0	0	0	0	NA	0	0	0	NA	0	0	0	0	NA	0	0	4	1	59
Arrow Flanker 2014	12292	1	"<?xml version=""1.0""?>\n<Clock xmlns:dt=""urn:schemas-microsoft-com:datatypes""><Description dt:dt=""string"">E-Prime Primary Realtime Clock</Description><StartTime><Timestamp dt:dt=""int"">0</Timestamp><DateUtc dt:dt=""string"">2015-05-20T15:57:52Z</DateUtc></StartTime><FrequencyChanges><FrequencyChange><Frequency dt:dt=""r8"">2825644</Frequency><Timestamp dt:dt=""r8"">1796441148138</Timestamp><Current dt:dt=""r8"">0</Current><DateUtc dt:dt=""string"">2015-05-20T15:57:52Z</DateUtc></FrequencyChange></FrequencyChanges></Clock>\n"	Arrow Flanker 2014-12292-1	60.018	1.0.0.100	1	1145386412	Professional	2.0.10.353	2.0.10.353	05-20-2015	5/20/2015 3:57:53 PM	11:57:53	2.0.10.248	3	1	1	1	NA	NA	NA	NA	NA	NA	NA	NA	NA	NA	NA	NA	NA	NA	NA	NA	NA	NA	NA	NA	NA	NA	NA	NA	BlockProc	BlockList	NA	60	{LEFTARROW}	NA	-100	2049	incongruent	NA	NA	NA	NA	NA	NA	NA	NA	NA	NA	NA	NA	NA	NA	NA	NA	NA	NA	NA	NA	NA	NA	TrialProc	TrialList	0	20	343979	17	0	16	341563	0	1	{LEFTARROW}	-999999	0	342996	0	{LEFTARROW}	962	343958	NA	NA	left	rrlrr.bmp	354	0	NA	0	0	0	0	NA	0	0	0	NA	0	0	0	0	NA	0	0	3	1	60
Arrow Flanker 2014	12292	1	"<?xml version=""1.0""?>\n<Clock xmlns:dt=""urn:schemas-microsoft-com:datatypes""><Description dt:dt=""string"">E-Prime Primary Realtime Clock</Description><StartTime><Timestamp dt:dt=""int"">0</Timestamp><DateUtc dt:dt=""string"">2015-05-20T15:57:52Z</DateUtc></StartTime><FrequencyChanges><FrequencyChange><Frequency dt:dt=""r8"">2825644</Frequency><Timestamp dt:dt=""r8"">1796441148138</Timestamp><Current dt:dt=""r8"">0</Current><DateUtc dt:dt=""string"">2015-05-20T15:57:52Z</DateUtc></FrequencyChange></FrequencyChanges></Clock>\n"	Arrow Flanker 2014-12292-1	60.018	1.0.0.100	1	1145386412	Professional	2.0.10.353	2.0.10.353	05-20-2015	5/20/2015 3:57:53 PM	11:57:53	2.0.10.248	3	1	1	1	NA	NA	NA	NA	NA	NA	NA	NA	NA	NA	NA	NA	NA	NA	NA	NA	NA	NA	NA	NA	NA	NA	NA	NA	BlockProc	BlockList	NA	61	{LEFTARROW}	NA	-100	2071	neutral	NA	NA	NA	NA	NA	NA	NA	NA	NA	NA	NA	NA	NA	NA	NA	NA	NA	NA	NA	NA	NA	NA	TrialProc	TrialList	0	9	347295	16	0	16	344512	0	1	{LEFTARROW}	-999999	0	346495	0	{LEFTARROW}	791	347286	NA	NA	left	ooloo.bmp	354	0	NA	0	0	0	0	NA	0	0	0	NA	0	0	0	0	NA	0	0	5	1	61
Arrow Flanker 2014	12292	1	"<?xml version=""1.0""?>\n<Clock xmlns:dt=""urn:schemas-microsoft-com:datatypes""><Description dt:dt=""string"">E-Prime Primary Realtime Clock</Description><StartTime><Timestamp dt:dt=""int"">0</Timestamp><DateUtc dt:dt=""string"">2015-05-20T15:57:52Z</DateUtc></StartTime><FrequencyChanges><FrequencyChange><Frequency dt:dt=""r8"">2825644</Frequency><Timestamp dt:dt=""r8"">1796441148138</Timestamp><Current dt:dt=""r8"">0</Current><DateUtc dt:dt=""string"">2015-05-20T15:57:52Z</DateUtc></FrequencyChange></FrequencyChanges></Clock>\n"	Arrow Flanker 2014-12292-1	60.018	1.0.0.100	1	1145386412	Professional	2.0.10.353	2.0.10.353	05-20-2015	5/20/2015 3:57:53 PM	11:57:53	2.0.10.248	3	1	1	1	NA	NA	NA	NA	NA	NA	NA	NA	NA	NA	NA	NA	NA	NA	NA	NA	NA	NA	NA	NA	NA	NA	NA	NA	BlockProc	BlockList	NA	62	{RIGHTARROW}	NA	-100	1632	congruent	NA	NA	NA	NA	NA	NA	NA	NA	NA	NA	NA	NA	NA	NA	NA	NA	NA	NA	NA	NA	NA	NA	TrialProc	TrialList	0	11	349761	16	0	17	347828	0	1	{RIGHTARROW}	-999999	0	349078	0	{RIGHTARROW}	672	349750	NA	NA	right	rrrrr.bmp	354	0	NA	0	0	0	0	NA	0	0	0	NA	0	0	0	0	NA	0	0	2	1	62
Arrow Flanker 2014	12292	1	"<?xml version=""1.0""?>\n<Clock xmlns:dt=""urn:schemas-microsoft-com:datatypes""><Description dt:dt=""string"">E-Prime Primary Realtime Clock</Description><StartTime><Timestamp dt:dt=""int"">0</Timestamp><DateUtc dt:dt=""string"">2015-05-20T15:57:52Z</DateUtc></StartTime><FrequencyChanges><FrequencyChange><Frequency dt:dt=""r8"">2825644</Frequency><Timestamp dt:dt=""r8"">1796441148138</Timestamp><Current dt:dt=""r8"">0</Current><DateUtc dt:dt=""string"">2015-05-20T15:57:52Z</DateUtc></FrequencyChange></FrequencyChanges></Clock>\n"	Arrow Flanker 2014-12292-1	60.018	1.0.0.100	1	1145386412	Professional	2.0.10.353	2.0.10.353	05-20-2015	5/20/2015 3:57:53 PM	11:57:53	2.0.10.248	3	1	1	1	NA	NA	NA	NA	NA	NA	NA	NA	NA	NA	NA	NA	NA	NA	NA	NA	NA	NA	NA	NA	NA	NA	NA	NA	BlockProc	BlockList	NA	63	{RIGHTARROW}	NA	-100	2180	neutral	NA	NA	NA	NA	NA	NA	NA	NA	NA	NA	NA	NA	NA	NA	NA	NA	NA	NA	NA	NA	NA	NA	TrialProc	TrialList	0	5	352843	17	0	17	350294	0	1	{RIGHTARROW}	-999999	0	352060	0	{RIGHTARROW}	778	352838	NA	NA	right	ooroo.bmp	354	0	NA	0	0	0	0	NA	0	0	0	NA	0	0	0	0	NA	0	0	6	1	63
Arrow Flanker 2014	12292	1	"<?xml version=""1.0""?>\n<Clock xmlns:dt=""urn:schemas-microsoft-com:datatypes""><Description dt:dt=""string"">E-Prime Primary Realtime Clock</Description><StartTime><Timestamp dt:dt=""int"">0</Timestamp><DateUtc dt:dt=""string"">2015-05-20T15:57:52Z</DateUtc></StartTime><FrequencyChanges><FrequencyChange><Frequency dt:dt=""r8"">2825644</Frequency><Timestamp dt:dt=""r8"">1796441148138</Timestamp><Current dt:dt=""r8"">0</Current><DateUtc dt:dt=""string"">2015-05-20T15:57:52Z</DateUtc></FrequencyChange></FrequencyChanges></Clock>\n"	Arrow Flanker 2014-12292-1	60.018	1.0.0.100	1	1145386412	Professional	2.0.10.353	2.0.10.353	05-20-2015	5/20/2015 3:57:53 PM	11:57:53	2.0.10.248	3	1	1	1	NA	NA	NA	NA	NA	NA	NA	NA	NA	NA	NA	NA	NA	NA	NA	NA	NA	NA	NA	NA	NA	NA	NA	NA	BlockProc	BlockList	NA	64	{RIGHTARROW}	NA	-100	1534	incongruent	NA	NA	NA	NA	NA	NA	NA	NA	NA	NA	NA	NA	NA	NA	NA	NA	NA	NA	NA	NA	NA	NA	TrialProc	TrialList	0	13	356259	17	0	16	353376	0	1	{RIGHTARROW}	0	0	354926	0	{RIGHTARROW}	1320	356246	NA	NA	right	llrll.bmp	354	0	NA	0	0	0	0	NA	0	0	0	NA	0	0	0	0	NA	0	0	4	1	64
Arrow Flanker 2014	12292	1	"<?xml version=""1.0""?>\n<Clock xmlns:dt=""urn:schemas-microsoft-com:datatypes""><Description dt:dt=""string"">E-Prime Primary Realtime Clock</Description><StartTime><Timestamp dt:dt=""int"">0</Timestamp><DateUtc dt:dt=""string"">2015-05-20T15:57:52Z</DateUtc></StartTime><FrequencyChanges><FrequencyChange><Frequency dt:dt=""r8"">2825644</Frequency><Timestamp dt:dt=""r8"">1796441148138</Timestamp><Current dt:dt=""r8"">0</Current><DateUtc dt:dt=""string"">2015-05-20T15:57:52Z</DateUtc></FrequencyChange></FrequencyChanges></Clock>\n"	Arrow Flanker 2014-12292-1	60.018	1.0.0.100	1	1145386412	Professional	2.0.10.353	2.0.10.353	05-20-2015	5/20/2015 3:57:53 PM	11:57:53	2.0.10.248	3	1	1	1	NA	NA	NA	NA	NA	NA	NA	NA	NA	NA	NA	NA	NA	NA	NA	NA	NA	NA	NA	NA	NA	NA	NA	NA	BlockProc	BlockList	NA	65	{RIGHTARROW}	NA	-100	879	congruent	NA	NA	NA	NA	NA	NA	NA	NA	NA	NA	NA	NA	NA	NA	NA	NA	NA	NA	NA	NA	NA	NA	TrialProc	TrialList	0	10	359008	17	0	16	356792	0	1	{RIGHTARROW}	-999999	0	357925	0	{RIGHTARROW}	1073	358998	NA	NA	right	rrrrr.bmp	354	0	NA	0	0	0	0	NA	0	0	0	NA	0	0	0	0	NA	0	0	2	1	65
Arrow Flanker 2014	12292	1	"<?xml version=""1.0""?>\n<Clock xmlns:dt=""urn:schemas-microsoft-com:datatypes""><Description dt:dt=""string"">E-Prime Primary Realtime Clock</Description><StartTime><Timestamp dt:dt=""int"">0</Timestamp><DateUtc dt:dt=""string"">2015-05-20T15:57:52Z</DateUtc></StartTime><FrequencyChanges><FrequencyChange><Frequency dt:dt=""r8"">2825644</Frequency><Timestamp dt:dt=""r8"">1796441148138</Timestamp><Current dt:dt=""r8"">0</Current><DateUtc dt:dt=""string"">2015-05-20T15:57:52Z</DateUtc></FrequencyChange></FrequencyChanges></Clock>\n"	Arrow Flanker 2014-12292-1	60.018	1.0.0.100	1	1145386412	Professional	2.0.10.353	2.0.10.353	05-20-2015	5/20/2015 3:57:53 PM	11:57:53	2.0.10.248	3	1	1	1	NA	NA	NA	NA	NA	NA	NA	NA	NA	NA	NA	NA	NA	NA	NA	NA	NA	NA	NA	NA	NA	NA	NA	NA	BlockProc	BlockList	NA	66	{LEFTARROW}	NA	-100	1607	congruent	NA	NA	NA	NA	NA	NA	NA	NA	NA	NA	NA	NA	NA	NA	NA	NA	NA	NA	NA	NA	NA	NA	TrialProc	TrialList	0	11	361857	17	0	16	359541	0	1	{LEFTARROW}	-999999	16	361024	0	{LEFTARROW}	821	361845	NA	NA	left	lllll.bmp	354	0	NA	0	0	0	0	NA	0	0	0	NA	0	0	0	0	NA	0	0	1	1	66
Arrow Flanker 2014	12292	1	"<?xml version=""1.0""?>\n<Clock xmlns:dt=""urn:schemas-microsoft-com:datatypes""><Description dt:dt=""string"">E-Prime Primary Realtime Clock</Description><StartTime><Timestamp dt:dt=""int"">0</Timestamp><DateUtc dt:dt=""string"">2015-05-20T15:57:52Z</DateUtc></StartTime><FrequencyChanges><FrequencyChange><Frequency dt:dt=""r8"">2825644</Frequency><Timestamp dt:dt=""r8"">1796441148138</Timestamp><Current dt:dt=""r8"">0</Current><DateUtc dt:dt=""string"">2015-05-20T15:57:52Z</DateUtc></FrequencyChange></FrequencyChanges></Clock>\n"	Arrow Flanker 2014-12292-1	60.018	1.0.0.100	1	1145386412	Professional	2.0.10.353	2.0.10.353	05-20-2015	5/20/2015 3:57:53 PM	11:57:53	2.0.10.248	3	1	1	1	NA	NA	NA	NA	NA	NA	NA	NA	NA	NA	NA	NA	NA	NA	NA	NA	NA	NA	NA	NA	NA	NA	NA	NA	BlockProc	BlockList	NA	67	{LEFTARROW}	NA	-100	1193	neutral	NA	NA	NA	NA	NA	NA	NA	NA	NA	NA	NA	NA	NA	NA	NA	NA	NA	NA	NA	NA	NA	NA	TrialProc	TrialList	1	19	364456	17	0	16	362390	0	1	{LEFTARROW}	-999999	0	363507	0	{LEFTARROW}	930	364437	NA	NA	left	ooloo.bmp	354	0	NA	0	0	0	0	NA	0	0	0	NA	0	0	0	0	NA	0	0	5	1	67
Arrow Flanker 2014	12292	1	"<?xml version=""1.0""?>\n<Clock xmlns:dt=""urn:schemas-microsoft-com:datatypes""><Description dt:dt=""string"">E-Prime Primary Realtime Clock</Description><StartTime><Timestamp dt:dt=""int"">0</Timestamp><DateUtc dt:dt=""string"">2015-05-20T15:57:52Z</DateUtc></StartTime><FrequencyChanges><FrequencyChange><Frequency dt:dt=""r8"">2825644</Frequency><Timestamp dt:dt=""r8"">1796441148138</Timestamp><Current dt:dt=""r8"">0</Current><DateUtc dt:dt=""string"">2015-05-20T15:57:52Z</DateUtc></FrequencyChange></FrequencyChanges></Clock>\n"	Arrow Flanker 2014-12292-1	60.018	1.0.0.100	1	1145386412	Professional	2.0.10.353	2.0.10.353	05-20-2015	5/20/2015 3:57:53 PM	11:57:53	2.0.10.248	3	1	1	1	NA	NA	NA	NA	NA	NA	NA	NA	NA	NA	NA	NA	NA	NA	NA	NA	NA	NA	NA	NA	NA	NA	NA	NA	BlockProc	BlockList	NA	68	{LEFTARROW}	NA	-100	1512	incongruent	NA	NA	NA	NA	NA	NA	NA	NA	NA	NA	NA	NA	NA	NA	NA	NA	NA	NA	NA	NA	NA	NA	TrialProc	TrialList	0	9	367822	17	0	17	364990	0	1	{LEFTARROW}	-999999	0	366956	0	{LEFTARROW}	857	367813	NA	NA	left	rrlrr.bmp	354	0	NA	0	0	0	0	NA	0	0	0	NA	0	0	0	0	NA	0	0	3	1	68
Arrow Flanker 2014	12292	1	"<?xml version=""1.0""?>\n<Clock xmlns:dt=""urn:schemas-microsoft-com:datatypes""><Description dt:dt=""string"">E-Prime Primary Realtime Clock</Description><StartTime><Timestamp dt:dt=""int"">0</Timestamp><DateUtc dt:dt=""string"">2015-05-20T15:57:52Z</DateUtc></StartTime><FrequencyChanges><FrequencyChange><Frequency dt:dt=""r8"">2825644</Frequency><Timestamp dt:dt=""r8"">1796441148138</Timestamp><Current dt:dt=""r8"">0</Current><DateUtc dt:dt=""string"">2015-05-20T15:57:52Z</DateUtc></FrequencyChange></FrequencyChanges></Clock>\n"	Arrow Flanker 2014-12292-1	60.018	1.0.0.100	1	1145386412	Professional	2.0.10.353	2.0.10.353	05-20-2015	5/20/2015 3:57:53 PM	11:57:53	2.0.10.248	3	1	1	1	NA	NA	NA	NA	NA	NA	NA	NA	NA	NA	NA	NA	NA	NA	NA	NA	NA	NA	NA	NA	NA	NA	NA	NA	BlockProc	BlockList	NA	69	{LEFTARROW}	NA	-100	1595	neutral	NA	NA	NA	NA	NA	NA	NA	NA	NA	NA	NA	NA	NA	NA	NA	NA	NA	NA	NA	NA	NA	NA	TrialProc	TrialList	0	9	370638	17	0	16	368355	0	1	{LEFTARROW}	-999999	0	370088	0	{LEFTARROW}	541	370629	NA	NA	left	ooloo.bmp	354	0	NA	0	0	0	0	NA	0	0	0	NA	0	0	0	0	NA	0	0	5	1	69
Arrow Flanker 2014	12292	1	"<?xml version=""1.0""?>\n<Clock xmlns:dt=""urn:schemas-microsoft-com:datatypes""><Description dt:dt=""string"">E-Prime Primary Realtime Clock</Description><StartTime><Timestamp dt:dt=""int"">0</Timestamp><DateUtc dt:dt=""string"">2015-05-20T15:57:52Z</DateUtc></StartTime><FrequencyChanges><FrequencyChange><Frequency dt:dt=""r8"">2825644</Frequency><Timestamp dt:dt=""r8"">1796441148138</Timestamp><Current dt:dt=""r8"">0</Current><DateUtc dt:dt=""string"">2015-05-20T15:57:52Z</DateUtc></FrequencyChange></FrequencyChanges></Clock>\n"	Arrow Flanker 2014-12292-1	60.018	1.0.0.100	1	1145386412	Professional	2.0.10.353	2.0.10.353	05-20-2015	5/20/2015 3:57:53 PM	11:57:53	2.0.10.248	3	1	1	1	NA	NA	NA	NA	NA	NA	NA	NA	NA	NA	NA	NA	NA	NA	NA	NA	NA	NA	NA	NA	NA	NA	NA	NA	BlockProc	BlockList	NA	70	{RIGHTARROW}	NA	-100	1236	congruent	NA	NA	NA	NA	NA	NA	NA	NA	NA	NA	NA	NA	NA	NA	NA	NA	NA	NA	NA	NA	4	1	TrialProc	TrialList	0	12	373537	17	0	16	371171	0	1	{RIGHTARROW}	-999999	0	372854	0	{RIGHTARROW}	671	373525	NA	NA	right	rrrrr.bmp	354	0	NA	-999999	16	374070	0	1	2127	376197	0	NA	-999999	23	376220	0	1	1369	377589	2	1	70
Arrow Flanker 2014	12292	1	"<?xml version=""1.0""?>\n<Clock xmlns:dt=""urn:schemas-microsoft-com:datatypes""><Description dt:dt=""string"">E-Prime Primary Realtime Clock</Description><StartTime><Timestamp dt:dt=""int"">0</Timestamp><DateUtc dt:dt=""string"">2015-05-20T15:57:52Z</DateUtc></StartTime><FrequencyChanges><FrequencyChange><Frequency dt:dt=""r8"">2825644</Frequency><Timestamp dt:dt=""r8"">1796441148138</Timestamp><Current dt:dt=""r8"">0</Current><DateUtc dt:dt=""string"">2015-05-20T15:57:52Z</DateUtc></FrequencyChange></FrequencyChanges></Clock>\n"	Arrow Flanker 2014-12292-1	60.018	1.0.0.100	1	1145386412	Professional	2.0.10.353	2.0.10.353	05-20-2015	5/20/2015 3:57:53 PM	11:57:53	2.0.10.248	3	1	1	1	NA	NA	NA	NA	NA	NA	NA	NA	NA	NA	NA	NA	NA	NA	NA	NA	NA	NA	NA	NA	NA	NA	NA	NA	BlockProc	BlockList	NA	71	{RIGHTARROW}	NA	-100	1327	incongruent	NA	NA	NA	NA	NA	NA	NA	NA	NA	NA	NA	NA	NA	NA	NA	NA	NA	NA	NA	NA	NA	NA	TrialProc	TrialList	1	16	381301	17	0	28	379169	0	1	{RIGHTARROW}	-999999	16	380485	0	{RIGHTARROW}	799	381284	NA	NA	right	llrll.bmp	354	0	NA	0	0	0	0	NA	0	0	0	NA	0	0	0	0	NA	0	0	4	1	71
Arrow Flanker 2014	12292	1	"<?xml version=""1.0""?>\n<Clock xmlns:dt=""urn:schemas-microsoft-com:datatypes""><Description dt:dt=""string"">E-Prime Primary Realtime Clock</Description><StartTime><Timestamp dt:dt=""int"">0</Timestamp><DateUtc dt:dt=""string"">2015-05-20T15:57:52Z</DateUtc></StartTime><FrequencyChanges><FrequencyChange><Frequency dt:dt=""r8"">2825644</Frequency><Timestamp dt:dt=""r8"">1796441148138</Timestamp><Current dt:dt=""r8"">0</Current><DateUtc dt:dt=""string"">2015-05-20T15:57:52Z</DateUtc></FrequencyChange></FrequencyChanges></Clock>\n"	Arrow Flanker 2014-12292-1	60.018	1.0.0.100	1	1145386412	Professional	2.0.10.353	2.0.10.353	05-20-2015	5/20/2015 3:57:53 PM	11:57:53	2.0.10.248	3	1	1	1	NA	NA	NA	NA	NA	NA	NA	NA	NA	NA	NA	NA	NA	NA	NA	NA	NA	NA	NA	NA	NA	NA	NA	NA	BlockProc	BlockList	NA	72	{LEFTARROW}	NA	-100	1407	neutral	NA	NA	NA	NA	NA	NA	NA	NA	NA	NA	NA	NA	NA	NA	NA	NA	NA	NA	NA	NA	NA	NA	TrialProc	TrialList	0	9	383901	16	0	17	381835	0	1	{LEFTARROW}	-999999	0	383334	0	{LEFTARROW}	558	383892	NA	NA	left	ooloo.bmp	354	0	NA	0	0	0	0	NA	0	0	0	NA	0	0	0	0	NA	0	0	5	1	72
