ExperimentName	Subject	Session	Clock.Information	DataFile.Basename	Display.RefreshRate	ExperimentVersion	Group	RandomSeed	RuntimeCapabilities	RuntimeVersion	RuntimeVersionExpected	SessionDate	SessionStartDateTimeUtc	SessionTime	StudioVersion	Block	BlockList	BlockList.Cycle	BlockList.Sample	Both	CompletelyMW	CongMeanRT	CongTotal	Fragmented	GoodByeList	GoodByeList.Cycle	GoodByeList.Sample	IncongMeanRT	IncongTotal	MapBlockList	MapBlockList.Cycle	MapBlockList.Sample	Mindwandering	MostlyMW	MostlyOT	NeutralMeanRT	NeutralTotal	NumberProbes1	NumberProbes2	OnTask	PracBlockList	PracBlockList.Cycle	PracBlockList.Sample	Procedure[Block]	Running[Block]	Sequential	Trial	CorrectAnswer	CuePositionY	CuePositionY2	DurationOfFixation	FlankerType	MapTrialList	MapTrialList.Cycle	MapTrialList.Sample	PracSlideFixationStart.DurationError	PracSlideFixationStart.OnsetDelay	PracSlideFixationStart.OnsetTime	PracSlideFixationStart.OnsetToOnsetTime	PracSlideTarget.ACC	PracSlideTarget.CRESP	PracSlideTarget.DurationError	PracSlideTarget.OnsetDelay	PracSlideTarget.OnsetTime	PracSlideTarget.OnsetToOnsetTime	PracSlideTarget.RESP	PracSlideTarget.RT	PracSlideTarget.RTTime	PracSlideTarget.Tag	PracTrialList	PracTrialList.Cycle	PracTrialList.Sample	Probe1Resp	Probe2Resp	Procedure[Trial]	Running[Trial]	SlideFixationEnd.DurationError	SlideFixationEnd.OnsetDelay	SlideFixationEnd.OnsetTime	SlideFixationEnd.OnsetToOnsetTime	SlideFixationStart.DurationError	SlideFixationStart.OnsetDelay	SlideFixationStart.OnsetTime	SlideFixationStart.OnsetToOnsetTime	SlideTarget.ACC	SlideTarget.CRESP	SlideTarget.DurationError	SlideTarget.OnsetDelay	SlideTarget.OnsetTime	SlideTarget.OnsetToOnsetTime	SlideTarget.RESP	SlideTarget.RT	SlideTarget.RTTime	SlideTarget.Tag	TargerDirection	TargetDirection	TargetImage	TargetPosition	ThoughtProbe1.ACC	ThoughtProbe1.CRESP	ThoughtProbe1.DurationError	ThoughtProbe1.OnsetDelay	ThoughtProbe1.OnsetTime	ThoughtProbe1.OnsetToOnsetTime	ThoughtProbe1.RESP	ThoughtProbe1.RT	ThoughtProbe1.RTTime	ThoughtProbe2.ACC	ThoughtProbe2.CRESP	ThoughtProbe2.DurationError	ThoughtProbe2.OnsetDelay	ThoughtProbe2.OnsetTime	ThoughtProbe2.OnsetToOnsetTime	ThoughtProbe2.RESP	ThoughtProbe2.RT	ThoughtProbe2.RTTime	TrialList	TrialList.Cycle	TrialList.Sample
Arrow Flanker 2014	12306	1	"<?xml version=""1.0""?>\n<Clock xmlns:dt=""urn:schemas-microsoft-com:datatypes""><Description dt:dt=""string"">E-Prime Primary Realtime Clock</Description><StartTime><Timestamp dt:dt=""int"">0</Timestamp><DateUtc dt:dt=""string"">2015-05-26T21:17:03Z</DateUtc></StartTime><FrequencyChanges><FrequencyChange><Frequency dt:dt=""r8"">2825664</Frequency><Timestamp dt:dt=""r8"">8867139025749</Timestamp><Current dt:dt=""r8"">0</Current><DateUtc dt:dt=""string"">2015-05-26T21:17:03Z</DateUtc></FrequencyChange></FrequencyChanges></Clock>\n"	Arrow Flanker 2014-12306-1	60.018	1.0.0.100	1	-1967885390	Professional	2.0.10.353	2.0.10.353	05-26-2015	5/26/2015 9:17:03 PM	17:17:03	2.0.10.248	1	NA	NA	NA	NA	NA	NA	NA	NA	NA	NA	NA	NA	NA	1	1	1	NA	NA	NA	NA	NA	NA	NA	NA	NA	NA	NA	MapBlockProc	MapBlockList	NA	1	{LEFTARROW}	-100	NA	984	NA	1	1	1	0	23	179013	999	1	{LEFTARROW}	-999999	0	180512	0	{LEFTARROW}	1277	181789	NA	NA	NA	NA	NA	NA	MapTrialProc	MapTrialList	NA	NA	NA	NA	NA	NA	NA	NA	NA	NA	NA	NA	NA	NA	NA	NA	NA	NA	left	NA	L.bmp	354	NA	NA	NA	NA	NA	NA	NA	NA	NA	NA	NA	NA	NA	NA	NA	NA	NA	NA	NA	NA	NA
Arrow Flanker 2014	12306	1	"<?xml version=""1.0""?>\n<Clock xmlns:dt=""urn:schemas-microsoft-com:datatypes""><Description dt:dt=""string"">E-Prime Primary Realtime Clock</Description><StartTime><Timestamp dt:dt=""int"">0</Timestamp><DateUtc dt:dt=""string"">2015-05-26T21:17:03Z</DateUtc></StartTime><FrequencyChanges><FrequencyChange><Frequency dt:dt=""r8"">2825664</Frequency><Timestamp dt:dt=""r8"">8867139025749</Timestamp><Current dt:dt=""r8"">0</Current><DateUtc dt:dt=""string"">2015-05-26T21:17:03Z</DateUtc></FrequencyChange></FrequencyChanges></Clock>\n"	Arrow Flanker 2014-12306-1	60.018	1.0.0.100	1	-1967885390	Professional	2.0.10.353	2.0.10.353	05-26-2015	5/26/2015 9:17:03 PM	17:17:03	2.0.10.248	1	NA	NA	NA	NA	NA	NA	NA	NA	NA	NA	NA	NA	NA	1	1	1	NA	NA	NA	NA	NA	NA	NA	NA	NA	NA	NA	MapBlockProc	MapBlockList	NA	2	{LEFTARROW}	-100	NA	1258	NA	1	1	2	0	16	183328	1266	1	{LEFTARROW}	-999999	0	185094	0	{LEFTARROW}	823	185917	NA	NA	NA	NA	NA	NA	MapTrialProc	MapTrialList	NA	NA	NA	NA	NA	NA	NA	NA	NA	NA	NA	NA	NA	NA	NA	NA	NA	NA	left	NA	L.bmp	354	NA	NA	NA	NA	NA	NA	NA	NA	NA	NA	NA	NA	NA	NA	NA	NA	NA	NA	NA	NA	NA
Arrow Flanker 2014	12306	1	"<?xml version=""1.0""?>\n<Clock xmlns:dt=""urn:schemas-microsoft-com:datatypes""><Description dt:dt=""string"">E-Prime Primary Realtime Clock</Description><StartTime><Timestamp dt:dt=""int"">0</Timestamp><DateUtc dt:dt=""string"">2015-05-26T21:17:03Z</DateUtc></StartTime><FrequencyChanges><FrequencyChange><Frequency dt:dt=""r8"">2825664</Frequency><Timestamp dt:dt=""r8"">8867139025749</Timestamp><Current dt:dt=""r8"">0</Current><DateUtc dt:dt=""string"">2015-05-26T21:17:03Z</DateUtc></FrequencyChange></FrequencyChanges></Clock>\n"	Arrow Flanker 2014-12306-1	60.018	1.0.0.100	1	-1967885390	Professional	2.0.10.353	2.0.10.353	05-26-2015	5/26/2015 9:17:03 PM	17:17:03	2.0.10.248	1	NA	NA	NA	NA	NA	NA	NA	NA	NA	NA	NA	NA	NA	1	1	1	NA	NA	NA	NA	NA	NA	NA	NA	NA	NA	NA	MapBlockProc	MapBlockList	NA	3	{LEFTARROW}	-100	NA	1293	NA	1	1	3	0	16	187443	1300	1	{LEFTARROW}	-999999	0	189243	0	{LEFTARROW}	882	190125	NA	NA	NA	NA	NA	NA	MapTrialProc	MapTrialList	NA	NA	NA	NA	NA	NA	NA	NA	NA	NA	NA	NA	NA	NA	NA	NA	NA	NA	left	NA	L.bmp	354	NA	NA	NA	NA	NA	NA	NA	NA	NA	NA	NA	NA	NA	NA	NA	NA	NA	NA	NA	NA	NA
Arrow Flanker 2014	12306	1	"<?xml version=""1.0""?>\n<Clock xmlns:dt=""urn:schemas-microsoft-com:datatypes""><Description dt:dt=""string"">E-Prime Primary Realtime Clock</Description><StartTime><Timestamp dt:dt=""int"">0</Timestamp><DateUtc dt:dt=""string"">2015-05-26T21:17:03Z</DateUtc></StartTime><FrequencyChanges><FrequencyChange><Frequency dt:dt=""r8"">2825664</Frequency><Timestamp dt:dt=""r8"">8867139025749</Timestamp><Current dt:dt=""r8"">0</Current><DateUtc dt:dt=""string"">2015-05-26T21:17:03Z</DateUtc></FrequencyChange></FrequencyChanges></Clock>\n"	Arrow Flanker 2014-12306-1	60.018	1.0.0.100	1	-1967885390	Professional	2.0.10.353	2.0.10.353	05-26-2015	5/26/2015 9:17:03 PM	17:17:03	2.0.10.248	1	NA	NA	NA	NA	NA	NA	NA	NA	NA	NA	NA	NA	NA	1	1	1	NA	NA	NA	NA	NA	NA	NA	NA	NA	NA	NA	MapBlockProc	MapBlockList	NA	4	{RIGHTARROW}	-100	NA	1012	NA	2	1	4	0	16	191659	1016	1	{RIGHTARROW}	-999999	0	193175	0	{RIGHTARROW}	597	193772	NA	NA	NA	NA	NA	NA	MapTrialProc	MapTrialList	NA	NA	NA	NA	NA	NA	NA	NA	NA	NA	NA	NA	NA	NA	NA	NA	NA	NA	right	NA	R.bmp	354	NA	NA	NA	NA	NA	NA	NA	NA	NA	NA	NA	NA	NA	NA	NA	NA	NA	NA	NA	NA	NA
Arrow Flanker 2014	12306	1	"<?xml version=""1.0""?>\n<Clock xmlns:dt=""urn:schemas-microsoft-com:datatypes""><Description dt:dt=""string"">E-Prime Primary Realtime Clock</Description><StartTime><Timestamp dt:dt=""int"">0</Timestamp><DateUtc dt:dt=""string"">2015-05-26T21:17:03Z</DateUtc></StartTime><FrequencyChanges><FrequencyChange><Frequency dt:dt=""r8"">2825664</Frequency><Timestamp dt:dt=""r8"">8867139025749</Timestamp><Current dt:dt=""r8"">0</Current><DateUtc dt:dt=""string"">2015-05-26T21:17:03Z</DateUtc></FrequencyChange></FrequencyChanges></Clock>\n"	Arrow Flanker 2014-12306-1	60.018	1.0.0.100	1	-1967885390	Professional	2.0.10.353	2.0.10.353	05-26-2015	5/26/2015 9:17:03 PM	17:17:03	2.0.10.248	1	NA	NA	NA	NA	NA	NA	NA	NA	NA	NA	NA	NA	NA	1	1	1	NA	NA	NA	NA	NA	NA	NA	NA	NA	NA	NA	MapBlockProc	MapBlockList	NA	5	{RIGHTARROW}	-100	NA	603	NA	2	1	5	0	16	195308	616	1	{RIGHTARROW}	-999999	0	196424	0	{RIGHTARROW}	564	196988	NA	NA	NA	NA	NA	NA	MapTrialProc	MapTrialList	NA	NA	NA	NA	NA	NA	NA	NA	NA	NA	NA	NA	NA	NA	NA	NA	NA	NA	right	NA	R.bmp	354	NA	NA	NA	NA	NA	NA	NA	NA	NA	NA	NA	NA	NA	NA	NA	NA	NA	NA	NA	NA	NA
Arrow Flanker 2014	12306	1	"<?xml version=""1.0""?>\n<Clock xmlns:dt=""urn:schemas-microsoft-com:datatypes""><Description dt:dt=""string"">E-Prime Primary Realtime Clock</Description><StartTime><Timestamp dt:dt=""int"">0</Timestamp><DateUtc dt:dt=""string"">2015-05-26T21:17:03Z</DateUtc></StartTime><FrequencyChanges><FrequencyChange><Frequency dt:dt=""r8"">2825664</Frequency><Timestamp dt:dt=""r8"">8867139025749</Timestamp><Current dt:dt=""r8"">0</Current><DateUtc dt:dt=""string"">2015-05-26T21:17:03Z</DateUtc></FrequencyChange></FrequencyChanges></Clock>\n"	Arrow Flanker 2014-12306-1	60.018	1.0.0.100	1	-1967885390	Professional	2.0.10.353	2.0.10.353	05-26-2015	5/26/2015 9:17:03 PM	17:17:03	2.0.10.248	1	NA	NA	NA	NA	NA	NA	NA	NA	NA	NA	NA	NA	NA	1	1	1	NA	NA	NA	NA	NA	NA	NA	NA	NA	NA	NA	MapBlockProc	MapBlockList	NA	6	{RIGHTARROW}	-100	NA	930	NA	2	1	6	0	16	198523	934	1	{RIGHTARROW}	-999999	0	199956	0	{RIGHTARROW}	504	200460	NA	NA	NA	NA	NA	NA	MapTrialProc	MapTrialList	NA	NA	NA	NA	NA	NA	NA	NA	NA	NA	NA	NA	NA	NA	NA	NA	NA	NA	right	NA	R.bmp	354	NA	NA	NA	NA	NA	NA	NA	NA	NA	NA	NA	NA	NA	NA	NA	NA	NA	NA	NA	NA	NA
Arrow Flanker 2014	12306	1	"<?xml version=""1.0""?>\n<Clock xmlns:dt=""urn:schemas-microsoft-com:datatypes""><Description dt:dt=""string"">E-Prime Primary Realtime Clock</Description><StartTime><Timestamp dt:dt=""int"">0</Timestamp><DateUtc dt:dt=""string"">2015-05-26T21:17:03Z</DateUtc></StartTime><FrequencyChanges><FrequencyChange><Frequency dt:dt=""r8"">2825664</Frequency><Timestamp dt:dt=""r8"">8867139025749</Timestamp><Current dt:dt=""r8"">0</Current><DateUtc dt:dt=""string"">2015-05-26T21:17:03Z</DateUtc></FrequencyChange></FrequencyChanges></Clock>\n"	Arrow Flanker 2014-12306-1	60.018	1.0.0.100	1	-1967885390	Professional	2.0.10.353	2.0.10.353	05-26-2015	5/26/2015 9:17:03 PM	17:17:03	2.0.10.248	1	NA	NA	NA	NA	NA	NA	NA	NA	NA	NA	NA	NA	NA	1	1	1	NA	NA	NA	NA	NA	NA	NA	NA	NA	NA	NA	MapBlockProc	MapBlockList	NA	7	{RIGHTARROW}	-100	NA	1503	NA	2	1	7	0	16	201989	1516	1	{RIGHTARROW}	-999999	0	204005	0	{RIGHTARROW}	551	204556	NA	NA	NA	NA	NA	NA	MapTrialProc	MapTrialList	NA	NA	NA	NA	NA	NA	NA	NA	NA	NA	NA	NA	NA	NA	NA	NA	NA	NA	right	NA	R.bmp	354	NA	NA	NA	NA	NA	NA	NA	NA	NA	NA	NA	NA	NA	NA	NA	NA	NA	NA	NA	NA	NA
Arrow Flanker 2014	12306	1	"<?xml version=""1.0""?>\n<Clock xmlns:dt=""urn:schemas-microsoft-com:datatypes""><Description dt:dt=""string"">E-Prime Primary Realtime Clock</Description><StartTime><Timestamp dt:dt=""int"">0</Timestamp><DateUtc dt:dt=""string"">2015-05-26T21:17:03Z</DateUtc></StartTime><FrequencyChanges><FrequencyChange><Frequency dt:dt=""r8"">2825664</Frequency><Timestamp dt:dt=""r8"">8867139025749</Timestamp><Current dt:dt=""r8"">0</Current><DateUtc dt:dt=""string"">2015-05-26T21:17:03Z</DateUtc></FrequencyChange></FrequencyChanges></Clock>\n"	Arrow Flanker 2014-12306-1	60.018	1.0.0.100	1	-1967885390	Professional	2.0.10.353	2.0.10.353	05-26-2015	5/26/2015 9:17:03 PM	17:17:03	2.0.10.248	1	NA	NA	NA	NA	NA	NA	NA	NA	NA	NA	NA	NA	NA	1	1	1	NA	NA	NA	NA	NA	NA	NA	NA	NA	NA	NA	MapBlockProc	MapBlockList	NA	8	{LEFTARROW}	-100	NA	1564	NA	1	1	8	0	16	206088	1566	1	{LEFTARROW}	-999999	0	208154	0	{LEFTARROW}	498	208652	NA	NA	NA	NA	NA	NA	MapTrialProc	MapTrialList	NA	NA	NA	NA	NA	NA	NA	NA	NA	NA	NA	NA	NA	NA	NA	NA	NA	NA	left	NA	L.bmp	354	NA	NA	NA	NA	NA	NA	NA	NA	NA	NA	NA	NA	NA	NA	NA	NA	NA	NA	NA	NA	NA
Arrow Flanker 2014	12306	1	"<?xml version=""1.0""?>\n<Clock xmlns:dt=""urn:schemas-microsoft-com:datatypes""><Description dt:dt=""string"">E-Prime Primary Realtime Clock</Description><StartTime><Timestamp dt:dt=""int"">0</Timestamp><DateUtc dt:dt=""string"">2015-05-26T21:17:03Z</DateUtc></StartTime><FrequencyChanges><FrequencyChange><Frequency dt:dt=""r8"">2825664</Frequency><Timestamp dt:dt=""r8"">8867139025749</Timestamp><Current dt:dt=""r8"">0</Current><DateUtc dt:dt=""string"">2015-05-26T21:17:03Z</DateUtc></FrequencyChange></FrequencyChanges></Clock>\n"	Arrow Flanker 2014-12306-1	60.018	1.0.0.100	1	-1967885390	Professional	2.0.10.353	2.0.10.353	05-26-2015	5/26/2015 9:17:03 PM	17:17:03	2.0.10.248	1	NA	NA	NA	NA	NA	NA	NA	NA	NA	NA	NA	NA	NA	1	1	1	NA	NA	NA	NA	NA	NA	NA	NA	NA	NA	NA	MapBlockProc	MapBlockList	NA	9	{RIGHTARROW}	-100	NA	418	NA	2	1	9	0	17	210187	433	1	{RIGHTARROW}	-999999	0	211120	0	{RIGHTARROW}	587	211707	NA	NA	NA	NA	NA	NA	MapTrialProc	MapTrialList	NA	NA	NA	NA	NA	NA	NA	NA	NA	NA	NA	NA	NA	NA	NA	NA	NA	NA	right	NA	R.bmp	354	NA	NA	NA	NA	NA	NA	NA	NA	NA	NA	NA	NA	NA	NA	NA	NA	NA	NA	NA	NA	NA
Arrow Flanker 2014	12306	1	"<?xml version=""1.0""?>\n<Clock xmlns:dt=""urn:schemas-microsoft-com:datatypes""><Description dt:dt=""string"">E-Prime Primary Realtime Clock</Description><StartTime><Timestamp dt:dt=""int"">0</Timestamp><DateUtc dt:dt=""string"">2015-05-26T21:17:03Z</DateUtc></StartTime><FrequencyChanges><FrequencyChange><Frequency dt:dt=""r8"">2825664</Frequency><Timestamp dt:dt=""r8"">8867139025749</Timestamp><Current dt:dt=""r8"">0</Current><DateUtc dt:dt=""string"">2015-05-26T21:17:03Z</DateUtc></FrequencyChange></FrequencyChanges></Clock>\n"	Arrow Flanker 2014-12306-1	60.018	1.0.0.100	1	-1967885390	Professional	2.0.10.353	2.0.10.353	05-26-2015	5/26/2015 9:17:03 PM	17:17:03	2.0.10.248	1	NA	NA	NA	NA	NA	NA	NA	NA	NA	NA	NA	NA	NA	1	1	1	NA	NA	NA	NA	NA	NA	NA	NA	NA	NA	NA	MapBlockProc	MapBlockList	NA	10	{LEFTARROW}	-100	NA	882	NA	1	1	10	0	16	213236	883	1	{LEFTARROW}	-999999	0	214619	0	{LEFTARROW}	640	215259	NA	NA	NA	NA	NA	NA	MapTrialProc	MapTrialList	NA	NA	NA	NA	NA	NA	NA	NA	NA	NA	NA	NA	NA	NA	NA	NA	NA	NA	left	NA	L.bmp	354	NA	NA	NA	NA	NA	NA	NA	NA	NA	NA	NA	NA	NA	NA	NA	NA	NA	NA	NA	NA	NA
Arrow Flanker 2014	12306	1	"<?xml version=""1.0""?>\n<Clock xmlns:dt=""urn:schemas-microsoft-com:datatypes""><Description dt:dt=""string"">E-Prime Primary Realtime Clock</Description><StartTime><Timestamp dt:dt=""int"">0</Timestamp><DateUtc dt:dt=""string"">2015-05-26T21:17:03Z</DateUtc></StartTime><FrequencyChanges><FrequencyChange><Frequency dt:dt=""r8"">2825664</Frequency><Timestamp dt:dt=""r8"">8867139025749</Timestamp><Current dt:dt=""r8"">0</Current><DateUtc dt:dt=""string"">2015-05-26T21:17:03Z</DateUtc></FrequencyChange></FrequencyChanges></Clock>\n"	Arrow Flanker 2014-12306-1	60.018	1.0.0.100	1	-1967885390	Professional	2.0.10.353	2.0.10.353	05-26-2015	5/26/2015 9:17:03 PM	17:17:03	2.0.10.248	2	NA	NA	NA	NA	NA	NA	NA	NA	NA	NA	NA	NA	NA	NA	NA	NA	NA	NA	NA	NA	NA	NA	NA	NA	1	1	1	PracBlockProc	PracBlockList	NA	1	{RIGHTARROW}	-100	NA	1035	incongruent	NA	NA	NA	0	15	249192	1049	0	{RIGHTARROW}	0	0	250741	1700	NA	0	0	NA	5	1	1	NA	NA	PracTrialProc	PracTrialList	NA	NA	NA	NA	NA	NA	NA	NA	NA	NA	NA	NA	NA	NA	NA	NA	NA	NA	right	NA	llrll.bmp	354	NA	NA	NA	NA	NA	NA	NA	NA	NA	NA	NA	NA	NA	NA	NA	NA	NA	NA	NA	NA	NA
Arrow Flanker 2014	12306	1	"<?xml version=""1.0""?>\n<Clock xmlns:dt=""urn:schemas-microsoft-com:datatypes""><Description dt:dt=""string"">E-Prime Primary Realtime Clock</Description><StartTime><Timestamp dt:dt=""int"">0</Timestamp><DateUtc dt:dt=""string"">2015-05-26T21:17:03Z</DateUtc></StartTime><FrequencyChanges><FrequencyChange><Frequency dt:dt=""r8"">2825664</Frequency><Timestamp dt:dt=""r8"">8867139025749</Timestamp><Current dt:dt=""r8"">0</Current><DateUtc dt:dt=""string"">2015-05-26T21:17:03Z</DateUtc></FrequencyChange></FrequencyChanges></Clock>\n"	Arrow Flanker 2014-12306-1	60.018	1.0.0.100	1	-1967885390	Professional	2.0.10.353	2.0.10.353	05-26-2015	5/26/2015 9:17:03 PM	17:17:03	2.0.10.248	2	NA	NA	NA	NA	NA	NA	NA	NA	NA	NA	NA	NA	NA	NA	NA	NA	NA	NA	NA	NA	NA	NA	NA	NA	1	1	1	PracBlockProc	PracBlockList	NA	2	{RIGHTARROW}	-100	NA	547	congruent	NA	NA	NA	0	16	253957	550	1	{RIGHTARROW}	-999999	0	255007	0	{RIGHTARROW}	1082	256089	NA	4	1	2	NA	NA	PracTrialProc	PracTrialList	NA	NA	NA	NA	NA	NA	NA	NA	NA	NA	NA	NA	NA	NA	NA	NA	NA	NA	right	NA	rrrrr.bmp	354	NA	NA	NA	NA	NA	NA	NA	NA	NA	NA	NA	NA	NA	NA	NA	NA	NA	NA	NA	NA	NA
Arrow Flanker 2014	12306	1	"<?xml version=""1.0""?>\n<Clock xmlns:dt=""urn:schemas-microsoft-com:datatypes""><Description dt:dt=""string"">E-Prime Primary Realtime Clock</Description><StartTime><Timestamp dt:dt=""int"">0</Timestamp><DateUtc dt:dt=""string"">2015-05-26T21:17:03Z</DateUtc></StartTime><FrequencyChanges><FrequencyChange><Frequency dt:dt=""r8"">2825664</Frequency><Timestamp dt:dt=""r8"">8867139025749</Timestamp><Current dt:dt=""r8"">0</Current><DateUtc dt:dt=""string"">2015-05-26T21:17:03Z</DateUtc></FrequencyChange></FrequencyChanges></Clock>\n"	Arrow Flanker 2014-12306-1	60.018	1.0.0.100	1	-1967885390	Professional	2.0.10.353	2.0.10.353	05-26-2015	5/26/2015 9:17:03 PM	17:17:03	2.0.10.248	2	NA	NA	NA	NA	NA	NA	NA	NA	NA	NA	NA	NA	NA	NA	NA	NA	NA	NA	NA	NA	NA	NA	NA	NA	1	1	1	PracBlockProc	PracBlockList	NA	3	{LEFTARROW}	-100	NA	492	congruent	NA	NA	NA	0	16	257622	500	1	{LEFTARROW}	-999999	0	258622	0	{LEFTARROW}	1082	259704	NA	1	1	3	NA	NA	PracTrialProc	PracTrialList	NA	NA	NA	NA	NA	NA	NA	NA	NA	NA	NA	NA	NA	NA	NA	NA	NA	NA	left	NA	lllll.bmp	354	NA	NA	NA	NA	NA	NA	NA	NA	NA	NA	NA	NA	NA	NA	NA	NA	NA	NA	NA	NA	NA
Arrow Flanker 2014	12306	1	"<?xml version=""1.0""?>\n<Clock xmlns:dt=""urn:schemas-microsoft-com:datatypes""><Description dt:dt=""string"">E-Prime Primary Realtime Clock</Description><StartTime><Timestamp dt:dt=""int"">0</Timestamp><DateUtc dt:dt=""string"">2015-05-26T21:17:03Z</DateUtc></StartTime><FrequencyChanges><FrequencyChange><Frequency dt:dt=""r8"">2825664</Frequency><Timestamp dt:dt=""r8"">8867139025749</Timestamp><Current dt:dt=""r8"">0</Current><DateUtc dt:dt=""string"">2015-05-26T21:17:03Z</DateUtc></FrequencyChange></FrequencyChanges></Clock>\n"	Arrow Flanker 2014-12306-1	60.018	1.0.0.100	1	-1967885390	Professional	2.0.10.353	2.0.10.353	05-26-2015	5/26/2015 9:17:03 PM	17:17:03	2.0.10.248	2	NA	NA	NA	NA	NA	NA	NA	NA	NA	NA	NA	NA	NA	NA	NA	NA	NA	NA	NA	NA	NA	NA	NA	NA	1	1	1	PracBlockProc	PracBlockList	NA	4	{RIGHTARROW}	-100	NA	803	neutral	NA	NA	NA	0	16	261238	816	1	{RIGHTARROW}	-999999	0	262554	0	{RIGHTARROW}	1166	263720	NA	6	1	4	NA	NA	PracTrialProc	PracTrialList	NA	NA	NA	NA	NA	NA	NA	NA	NA	NA	NA	NA	NA	NA	NA	NA	NA	NA	right	NA	ooroo.bmp	354	NA	NA	NA	NA	NA	NA	NA	NA	NA	NA	NA	NA	NA	NA	NA	NA	NA	NA	NA	NA	NA
Arrow Flanker 2014	12306	1	"<?xml version=""1.0""?>\n<Clock xmlns:dt=""urn:schemas-microsoft-com:datatypes""><Description dt:dt=""string"">E-Prime Primary Realtime Clock</Description><StartTime><Timestamp dt:dt=""int"">0</Timestamp><DateUtc dt:dt=""string"">2015-05-26T21:17:03Z</DateUtc></StartTime><FrequencyChanges><FrequencyChange><Frequency dt:dt=""r8"">2825664</Frequency><Timestamp dt:dt=""r8"">8867139025749</Timestamp><Current dt:dt=""r8"">0</Current><DateUtc dt:dt=""string"">2015-05-26T21:17:03Z</DateUtc></FrequencyChange></FrequencyChanges></Clock>\n"	Arrow Flanker 2014-12306-1	60.018	1.0.0.100	1	-1967885390	Professional	2.0.10.353	2.0.10.353	05-26-2015	5/26/2015 9:17:03 PM	17:17:03	2.0.10.248	2	NA	NA	NA	NA	NA	NA	NA	NA	NA	NA	NA	NA	NA	NA	NA	NA	NA	NA	NA	NA	NA	NA	NA	NA	1	1	1	PracBlockProc	PracBlockList	NA	5	{LEFTARROW}	-100	NA	1132	neutral	NA	NA	NA	0	16	265253	1133	1	{LEFTARROW}	-999999	0	266886	0	{LEFTARROW}	786	267672	NA	3	1	5	NA	NA	PracTrialProc	PracTrialList	NA	NA	NA	NA	NA	NA	NA	NA	NA	NA	NA	NA	NA	NA	NA	NA	NA	NA	left	NA	ooloo.bmp	354	NA	NA	NA	NA	NA	NA	NA	NA	NA	NA	NA	NA	NA	NA	NA	NA	NA	NA	NA	NA	NA
Arrow Flanker 2014	12306	1	"<?xml version=""1.0""?>\n<Clock xmlns:dt=""urn:schemas-microsoft-com:datatypes""><Description dt:dt=""string"">E-Prime Primary Realtime Clock</Description><StartTime><Timestamp dt:dt=""int"">0</Timestamp><DateUtc dt:dt=""string"">2015-05-26T21:17:03Z</DateUtc></StartTime><FrequencyChanges><FrequencyChange><Frequency dt:dt=""r8"">2825664</Frequency><Timestamp dt:dt=""r8"">8867139025749</Timestamp><Current dt:dt=""r8"">0</Current><DateUtc dt:dt=""string"">2015-05-26T21:17:03Z</DateUtc></FrequencyChange></FrequencyChanges></Clock>\n"	Arrow Flanker 2014-12306-1	60.018	1.0.0.100	1	-1967885390	Professional	2.0.10.353	2.0.10.353	05-26-2015	5/26/2015 9:17:03 PM	17:17:03	2.0.10.248	2	NA	NA	NA	NA	NA	NA	NA	NA	NA	NA	NA	NA	NA	NA	NA	NA	NA	NA	NA	NA	NA	NA	NA	NA	1	1	1	PracBlockProc	PracBlockList	NA	6	{LEFTARROW}	-100	NA	1332	incongruent	NA	NA	NA	0	16	269202	1333	1	{LEFTARROW}	-999999	0	271035	0	{LEFTARROW}	749	271784	NA	2	1	6	NA	NA	PracTrialProc	PracTrialList	NA	NA	NA	NA	NA	NA	NA	NA	NA	NA	NA	NA	NA	NA	NA	NA	NA	NA	left	NA	rrlrr.bmp	354	NA	NA	NA	NA	NA	NA	NA	NA	NA	NA	NA	NA	NA	NA	NA	NA	NA	NA	NA	NA	NA
Arrow Flanker 2014	12306	1	"<?xml version=""1.0""?>\n<Clock xmlns:dt=""urn:schemas-microsoft-com:datatypes""><Description dt:dt=""string"">E-Prime Primary Realtime Clock</Description><StartTime><Timestamp dt:dt=""int"">0</Timestamp><DateUtc dt:dt=""string"">2015-05-26T21:17:03Z</DateUtc></StartTime><FrequencyChanges><FrequencyChange><Frequency dt:dt=""r8"">2825664</Frequency><Timestamp dt:dt=""r8"">8867139025749</Timestamp><Current dt:dt=""r8"">0</Current><DateUtc dt:dt=""string"">2015-05-26T21:17:03Z</DateUtc></FrequencyChange></FrequencyChanges></Clock>\n"	Arrow Flanker 2014-12306-1	60.018	1.0.0.100	1	-1967885390	Professional	2.0.10.353	2.0.10.353	05-26-2015	5/26/2015 9:17:03 PM	17:17:03	2.0.10.248	3	NA	NA	NA	NA	NA	NA	NA	NA	NA	NA	NA	NA	NA	NA	NA	NA	NA	NA	NA	NA	NA	NA	NA	NA	1	2	2	PracBlockProc	PracBlockList	NA	1	{RIGHTARROW}	-100	NA	1047	incongruent	NA	NA	NA	0	11	286514	1049	1	{RIGHTARROW}	-999999	0	288063	0	{RIGHTARROW}	712	288775	NA	5	2	7	NA	NA	PracTrialProc	PracTrialList	NA	NA	NA	NA	NA	NA	NA	NA	NA	NA	NA	NA	NA	NA	NA	NA	NA	NA	right	NA	llrll.bmp	354	NA	NA	NA	NA	NA	NA	NA	NA	NA	NA	NA	NA	NA	NA	NA	NA	NA	NA	NA	NA	NA
Arrow Flanker 2014	12306	1	"<?xml version=""1.0""?>\n<Clock xmlns:dt=""urn:schemas-microsoft-com:datatypes""><Description dt:dt=""string"">E-Prime Primary Realtime Clock</Description><StartTime><Timestamp dt:dt=""int"">0</Timestamp><DateUtc dt:dt=""string"">2015-05-26T21:17:03Z</DateUtc></StartTime><FrequencyChanges><FrequencyChange><Frequency dt:dt=""r8"">2825664</Frequency><Timestamp dt:dt=""r8"">8867139025749</Timestamp><Current dt:dt=""r8"">0</Current><DateUtc dt:dt=""string"">2015-05-26T21:17:03Z</DateUtc></FrequencyChange></FrequencyChanges></Clock>\n"	Arrow Flanker 2014-12306-1	60.018	1.0.0.100	1	-1967885390	Professional	2.0.10.353	2.0.10.353	05-26-2015	5/26/2015 9:17:03 PM	17:17:03	2.0.10.248	3	NA	NA	NA	NA	NA	NA	NA	NA	NA	NA	NA	NA	NA	NA	NA	NA	NA	NA	NA	NA	NA	NA	NA	NA	1	2	2	PracBlockProc	PracBlockList	NA	2	{RIGHTARROW}	-100	NA	659	congruent	NA	NA	NA	0	17	290313	666	1	{RIGHTARROW}	-999999	0	291479	0	{RIGHTARROW}	703	292182	NA	4	2	8	NA	NA	PracTrialProc	PracTrialList	NA	NA	NA	NA	NA	NA	NA	NA	NA	NA	NA	NA	NA	NA	NA	NA	NA	NA	right	NA	rrrrr.bmp	354	NA	NA	NA	NA	NA	NA	NA	NA	NA	NA	NA	NA	NA	NA	NA	NA	NA	NA	NA	NA	NA
Arrow Flanker 2014	12306	1	"<?xml version=""1.0""?>\n<Clock xmlns:dt=""urn:schemas-microsoft-com:datatypes""><Description dt:dt=""string"">E-Prime Primary Realtime Clock</Description><StartTime><Timestamp dt:dt=""int"">0</Timestamp><DateUtc dt:dt=""string"">2015-05-26T21:17:03Z</DateUtc></StartTime><FrequencyChanges><FrequencyChange><Frequency dt:dt=""r8"">2825664</Frequency><Timestamp dt:dt=""r8"">8867139025749</Timestamp><Current dt:dt=""r8"">0</Current><DateUtc dt:dt=""string"">2015-05-26T21:17:03Z</DateUtc></FrequencyChange></FrequencyChanges></Clock>\n"	Arrow Flanker 2014-12306-1	60.018	1.0.0.100	1	-1967885390	Professional	2.0.10.353	2.0.10.353	05-26-2015	5/26/2015 9:17:03 PM	17:17:03	2.0.10.248	3	NA	NA	NA	NA	NA	NA	NA	NA	NA	NA	NA	NA	NA	NA	NA	NA	NA	NA	NA	NA	NA	NA	NA	NA	1	2	2	PracBlockProc	PracBlockList	NA	3	{LEFTARROW}	-100	NA	509	neutral	NA	NA	NA	0	17	293712	516	1	{LEFTARROW}	-999999	0	294728	0	{LEFTARROW}	558	295286	NA	3	2	9	NA	NA	PracTrialProc	PracTrialList	NA	NA	NA	NA	NA	NA	NA	NA	NA	NA	NA	NA	NA	NA	NA	NA	NA	NA	left	NA	ooloo.bmp	354	NA	NA	NA	NA	NA	NA	NA	NA	NA	NA	NA	NA	NA	NA	NA	NA	NA	NA	NA	NA	NA
Arrow Flanker 2014	12306	1	"<?xml version=""1.0""?>\n<Clock xmlns:dt=""urn:schemas-microsoft-com:datatypes""><Description dt:dt=""string"">E-Prime Primary Realtime Clock</Description><StartTime><Timestamp dt:dt=""int"">0</Timestamp><DateUtc dt:dt=""string"">2015-05-26T21:17:03Z</DateUtc></StartTime><FrequencyChanges><FrequencyChange><Frequency dt:dt=""r8"">2825664</Frequency><Timestamp dt:dt=""r8"">8867139025749</Timestamp><Current dt:dt=""r8"">0</Current><DateUtc dt:dt=""string"">2015-05-26T21:17:03Z</DateUtc></FrequencyChange></FrequencyChanges></Clock>\n"	Arrow Flanker 2014-12306-1	60.018	1.0.0.100	1	-1967885390	Professional	2.0.10.353	2.0.10.353	05-26-2015	5/26/2015 9:17:03 PM	17:17:03	2.0.10.248	3	NA	NA	NA	NA	NA	NA	NA	NA	NA	NA	NA	NA	NA	NA	NA	NA	NA	NA	NA	NA	NA	NA	NA	NA	1	2	2	PracBlockProc	PracBlockList	NA	4	{RIGHTARROW}	-100	NA	949	neutral	NA	NA	NA	0	16	296827	950	1	{RIGHTARROW}	-999999	0	298277	0	{RIGHTARROW}	529	298806	NA	6	2	10	NA	NA	PracTrialProc	PracTrialList	NA	NA	NA	NA	NA	NA	NA	NA	NA	NA	NA	NA	NA	NA	NA	NA	NA	NA	right	NA	ooroo.bmp	354	NA	NA	NA	NA	NA	NA	NA	NA	NA	NA	NA	NA	NA	NA	NA	NA	NA	NA	NA	NA	NA
Arrow Flanker 2014	12306	1	"<?xml version=""1.0""?>\n<Clock xmlns:dt=""urn:schemas-microsoft-com:datatypes""><Description dt:dt=""string"">E-Prime Primary Realtime Clock</Description><StartTime><Timestamp dt:dt=""int"">0</Timestamp><DateUtc dt:dt=""string"">2015-05-26T21:17:03Z</DateUtc></StartTime><FrequencyChanges><FrequencyChange><Frequency dt:dt=""r8"">2825664</Frequency><Timestamp dt:dt=""r8"">8867139025749</Timestamp><Current dt:dt=""r8"">0</Current><DateUtc dt:dt=""string"">2015-05-26T21:17:03Z</DateUtc></FrequencyChange></FrequencyChanges></Clock>\n"	Arrow Flanker 2014-12306-1	60.018	1.0.0.100	1	-1967885390	Professional	2.0.10.353	2.0.10.353	05-26-2015	5/26/2015 9:17:03 PM	17:17:03	2.0.10.248	3	NA	NA	NA	NA	NA	NA	NA	NA	NA	NA	NA	NA	NA	NA	NA	NA	NA	NA	NA	NA	NA	NA	NA	NA	1	2	2	PracBlockProc	PracBlockList	NA	5	{LEFTARROW}	-100	NA	615	incongruent	NA	NA	NA	0	16	300343	617	1	{LEFTARROW}	-999999	0	301459	0	{LEFTARROW}	515	301974	NA	2	2	11	NA	NA	PracTrialProc	PracTrialList	NA	NA	NA	NA	NA	NA	NA	NA	NA	NA	NA	NA	NA	NA	NA	NA	NA	NA	left	NA	rrlrr.bmp	354	NA	NA	NA	NA	NA	NA	NA	NA	NA	NA	NA	NA	NA	NA	NA	NA	NA	NA	NA	NA	NA
Arrow Flanker 2014	12306	1	"<?xml version=""1.0""?>\n<Clock xmlns:dt=""urn:schemas-microsoft-com:datatypes""><Description dt:dt=""string"">E-Prime Primary Realtime Clock</Description><StartTime><Timestamp dt:dt=""int"">0</Timestamp><DateUtc dt:dt=""string"">2015-05-26T21:17:03Z</DateUtc></StartTime><FrequencyChanges><FrequencyChange><Frequency dt:dt=""r8"">2825664</Frequency><Timestamp dt:dt=""r8"">8867139025749</Timestamp><Current dt:dt=""r8"">0</Current><DateUtc dt:dt=""string"">2015-05-26T21:17:03Z</DateUtc></FrequencyChange></FrequencyChanges></Clock>\n"	Arrow Flanker 2014-12306-1	60.018	1.0.0.100	1	-1967885390	Professional	2.0.10.353	2.0.10.353	05-26-2015	5/26/2015 9:17:03 PM	17:17:03	2.0.10.248	3	NA	NA	NA	NA	NA	NA	NA	NA	NA	NA	NA	NA	NA	NA	NA	NA	NA	NA	NA	NA	NA	NA	NA	NA	1	2	2	PracBlockProc	PracBlockList	NA	6	{LEFTARROW}	-100	NA	1348	congruent	NA	NA	NA	0	16	303509	1349	1	{LEFTARROW}	-999999	0	305358	0	{LEFTARROW}	552	305910	NA	1	2	12	NA	NA	PracTrialProc	PracTrialList	NA	NA	NA	NA	NA	NA	NA	NA	NA	NA	NA	NA	NA	NA	NA	NA	NA	NA	left	NA	lllll.bmp	354	NA	NA	NA	NA	NA	NA	NA	NA	NA	NA	NA	NA	NA	NA	NA	NA	NA	NA	NA	NA	NA
Arrow Flanker 2014	12306	1	"<?xml version=""1.0""?>\n<Clock xmlns:dt=""urn:schemas-microsoft-com:datatypes""><Description dt:dt=""string"">E-Prime Primary Realtime Clock</Description><StartTime><Timestamp dt:dt=""int"">0</Timestamp><DateUtc dt:dt=""string"">2015-05-26T21:17:03Z</DateUtc></StartTime><FrequencyChanges><FrequencyChange><Frequency dt:dt=""r8"">2825664</Frequency><Timestamp dt:dt=""r8"">8867139025749</Timestamp><Current dt:dt=""r8"">0</Current><DateUtc dt:dt=""string"">2015-05-26T21:17:03Z</DateUtc></FrequencyChange></FrequencyChanges></Clock>\n"	Arrow Flanker 2014-12306-1	60.018	1.0.0.100	1	-1967885390	Professional	2.0.10.353	2.0.10.353	05-26-2015	5/26/2015 9:17:03 PM	17:17:03	2.0.10.248	4	1	1	1	NA	NA	NA	NA	NA	NA	NA	NA	NA	NA	NA	NA	NA	NA	NA	NA	NA	NA	NA	NA	NA	NA	NA	NA	BlockProc	BlockList	NA	1	{LEFTARROW}	NA	-100	2113	neutral	NA	NA	NA	NA	NA	NA	NA	NA	NA	NA	NA	NA	NA	NA	NA	NA	NA	NA	NA	NA	NA	NA	TrialProc	TrialList	0	16	312773	16	0	17	310790	999	1	{LEFTARROW}	-999999	0	312289	0	{LEFTARROW}	468	312757	NA	NA	left	ooloo.bmp	354	0	NA	0	0	0	0	NA	0	0	0	NA	0	0	0	0	NA	0	0	5	1	1
Arrow Flanker 2014	12306	1	"<?xml version=""1.0""?>\n<Clock xmlns:dt=""urn:schemas-microsoft-com:datatypes""><Description dt:dt=""string"">E-Prime Primary Realtime Clock</Description><StartTime><Timestamp dt:dt=""int"">0</Timestamp><DateUtc dt:dt=""string"">2015-05-26T21:17:03Z</DateUtc></StartTime><FrequencyChanges><FrequencyChange><Frequency dt:dt=""r8"">2825664</Frequency><Timestamp dt:dt=""r8"">8867139025749</Timestamp><Current dt:dt=""r8"">0</Current><DateUtc dt:dt=""string"">2015-05-26T21:17:03Z</DateUtc></FrequencyChange></FrequencyChanges></Clock>\n"	Arrow Flanker 2014-12306-1	60.018	1.0.0.100	1	-1967885390	Professional	2.0.10.353	2.0.10.353	05-26-2015	5/26/2015 9:17:03 PM	17:17:03	2.0.10.248	4	1	1	1	NA	NA	NA	NA	NA	NA	NA	NA	NA	NA	NA	NA	NA	NA	NA	NA	NA	NA	NA	NA	NA	NA	NA	NA	BlockProc	BlockList	NA	2	{LEFTARROW}	NA	-100	1568	neutral	NA	NA	NA	NA	NA	NA	NA	NA	NA	NA	NA	NA	NA	NA	NA	NA	NA	NA	NA	NA	NA	NA	TrialProc	TrialList	0	8	315405	17	0	17	313306	1100	1	{LEFTARROW}	-999999	0	314922	0	{LEFTARROW}	475	315397	NA	NA	left	ooloo.bmp	354	0	NA	0	0	0	0	NA	0	0	0	NA	0	0	0	0	NA	0	0	5	1	2
Arrow Flanker 2014	12306	1	"<?xml version=""1.0""?>\n<Clock xmlns:dt=""urn:schemas-microsoft-com:datatypes""><Description dt:dt=""string"">E-Prime Primary Realtime Clock</Description><StartTime><Timestamp dt:dt=""int"">0</Timestamp><DateUtc dt:dt=""string"">2015-05-26T21:17:03Z</DateUtc></StartTime><FrequencyChanges><FrequencyChange><Frequency dt:dt=""r8"">2825664</Frequency><Timestamp dt:dt=""r8"">8867139025749</Timestamp><Current dt:dt=""r8"">0</Current><DateUtc dt:dt=""string"">2015-05-26T21:17:03Z</DateUtc></FrequencyChange></FrequencyChanges></Clock>\n"	Arrow Flanker 2014-12306-1	60.018	1.0.0.100	1	-1967885390	Professional	2.0.10.353	2.0.10.353	05-26-2015	5/26/2015 9:17:03 PM	17:17:03	2.0.10.248	4	1	1	1	NA	NA	NA	NA	NA	NA	NA	NA	NA	NA	NA	NA	NA	NA	NA	NA	NA	NA	NA	NA	NA	NA	NA	NA	BlockProc	BlockList	NA	3	{LEFTARROW}	NA	-100	2539	congruent	NA	NA	NA	NA	NA	NA	NA	NA	NA	NA	NA	NA	NA	NA	NA	NA	NA	NA	NA	NA	NA	NA	TrialProc	TrialList	0	8	318221	17	0	16	315938	1367	1	{LEFTARROW}	-999999	16	317821	0	{LEFTARROW}	392	318213	NA	NA	left	lllll.bmp	354	0	NA	0	0	0	0	NA	0	0	0	NA	0	0	0	0	NA	0	0	1	1	3
Arrow Flanker 2014	12306	1	"<?xml version=""1.0""?>\n<Clock xmlns:dt=""urn:schemas-microsoft-com:datatypes""><Description dt:dt=""string"">E-Prime Primary Realtime Clock</Description><StartTime><Timestamp dt:dt=""int"">0</Timestamp><DateUtc dt:dt=""string"">2015-05-26T21:17:03Z</DateUtc></StartTime><FrequencyChanges><FrequencyChange><Frequency dt:dt=""r8"">2825664</Frequency><Timestamp dt:dt=""r8"">8867139025749</Timestamp><Current dt:dt=""r8"">0</Current><DateUtc dt:dt=""string"">2015-05-26T21:17:03Z</DateUtc></FrequencyChange></FrequencyChanges></Clock>\n"	Arrow Flanker 2014-12306-1	60.018	1.0.0.100	1	-1967885390	Professional	2.0.10.353	2.0.10.353	05-26-2015	5/26/2015 9:17:03 PM	17:17:03	2.0.10.248	4	1	1	1	NA	NA	NA	NA	NA	NA	NA	NA	NA	NA	NA	NA	NA	NA	NA	NA	NA	NA	NA	NA	NA	NA	NA	NA	BlockProc	BlockList	NA	4	{RIGHTARROW}	NA	-100	1554	congruent	NA	NA	NA	NA	NA	NA	NA	NA	NA	NA	NA	NA	NA	NA	NA	NA	NA	NA	NA	NA	NA	NA	TrialProc	TrialList	0	8	320637	17	0	16	318754	916	1	{RIGHTARROW}	-999999	16	320187	0	{RIGHTARROW}	442	320629	NA	NA	right	rrrrr.bmp	354	0	NA	0	0	0	0	NA	0	0	0	NA	0	0	0	0	NA	0	0	2	1	4
Arrow Flanker 2014	12306	1	"<?xml version=""1.0""?>\n<Clock xmlns:dt=""urn:schemas-microsoft-com:datatypes""><Description dt:dt=""string"">E-Prime Primary Realtime Clock</Description><StartTime><Timestamp dt:dt=""int"">0</Timestamp><DateUtc dt:dt=""string"">2015-05-26T21:17:03Z</DateUtc></StartTime><FrequencyChanges><FrequencyChange><Frequency dt:dt=""r8"">2825664</Frequency><Timestamp dt:dt=""r8"">8867139025749</Timestamp><Current dt:dt=""r8"">0</Current><DateUtc dt:dt=""string"">2015-05-26T21:17:03Z</DateUtc></FrequencyChange></FrequencyChanges></Clock>\n"	Arrow Flanker 2014-12306-1	60.018	1.0.0.100	1	-1967885390	Professional	2.0.10.353	2.0.10.353	05-26-2015	5/26/2015 9:17:03 PM	17:17:03	2.0.10.248	4	1	1	1	NA	NA	NA	NA	NA	NA	NA	NA	NA	NA	NA	NA	NA	NA	NA	NA	NA	NA	NA	NA	NA	NA	NA	NA	BlockProc	BlockList	NA	5	{RIGHTARROW}	NA	-100	1166	neutral	NA	NA	NA	NA	NA	NA	NA	NA	NA	NA	NA	NA	NA	NA	NA	NA	NA	NA	NA	NA	NA	NA	TrialProc	TrialList	0	13	323186	17	0	16	321170	1033	1	{RIGHTARROW}	-999999	0	322703	0	{RIGHTARROW}	470	323173	NA	NA	right	ooroo.bmp	354	0	NA	0	0	0	0	NA	0	0	0	NA	0	0	0	0	NA	0	0	6	1	5
Arrow Flanker 2014	12306	1	"<?xml version=""1.0""?>\n<Clock xmlns:dt=""urn:schemas-microsoft-com:datatypes""><Description dt:dt=""string"">E-Prime Primary Realtime Clock</Description><StartTime><Timestamp dt:dt=""int"">0</Timestamp><DateUtc dt:dt=""string"">2015-05-26T21:17:03Z</DateUtc></StartTime><FrequencyChanges><FrequencyChange><Frequency dt:dt=""r8"">2825664</Frequency><Timestamp dt:dt=""r8"">8867139025749</Timestamp><Current dt:dt=""r8"">0</Current><DateUtc dt:dt=""string"">2015-05-26T21:17:03Z</DateUtc></FrequencyChange></FrequencyChanges></Clock>\n"	Arrow Flanker 2014-12306-1	60.018	1.0.0.100	1	-1967885390	Professional	2.0.10.353	2.0.10.353	05-26-2015	5/26/2015 9:17:03 PM	17:17:03	2.0.10.248	4	1	1	1	NA	NA	NA	NA	NA	NA	NA	NA	NA	NA	NA	NA	NA	NA	NA	NA	NA	NA	NA	NA	NA	NA	NA	NA	BlockProc	BlockList	NA	6	{RIGHTARROW}	NA	-100	1323	neutral	NA	NA	NA	NA	NA	NA	NA	NA	NA	NA	NA	NA	NA	NA	NA	NA	NA	NA	NA	NA	NA	NA	TrialProc	TrialList	1	4	325385	17	0	16	323719	767	1	{RIGHTARROW}	-999999	0	324986	0	{RIGHTARROW}	394	325380	NA	NA	right	ooroo.bmp	354	0	NA	0	0	0	0	NA	0	0	0	NA	0	0	0	0	NA	0	0	6	1	6
Arrow Flanker 2014	12306	1	"<?xml version=""1.0""?>\n<Clock xmlns:dt=""urn:schemas-microsoft-com:datatypes""><Description dt:dt=""string"">E-Prime Primary Realtime Clock</Description><StartTime><Timestamp dt:dt=""int"">0</Timestamp><DateUtc dt:dt=""string"">2015-05-26T21:17:03Z</DateUtc></StartTime><FrequencyChanges><FrequencyChange><Frequency dt:dt=""r8"">2825664</Frequency><Timestamp dt:dt=""r8"">8867139025749</Timestamp><Current dt:dt=""r8"">0</Current><DateUtc dt:dt=""string"">2015-05-26T21:17:03Z</DateUtc></FrequencyChange></FrequencyChanges></Clock>\n"	Arrow Flanker 2014-12306-1	60.018	1.0.0.100	1	-1967885390	Professional	2.0.10.353	2.0.10.353	05-26-2015	5/26/2015 9:17:03 PM	17:17:03	2.0.10.248	4	1	1	1	NA	NA	NA	NA	NA	NA	NA	NA	NA	NA	NA	NA	NA	NA	NA	NA	NA	NA	NA	NA	NA	NA	NA	NA	BlockProc	BlockList	NA	7	{RIGHTARROW}	NA	-100	1366	incongruent	NA	NA	NA	NA	NA	NA	NA	NA	NA	NA	NA	NA	NA	NA	NA	NA	NA	NA	NA	NA	NA	NA	TrialProc	TrialList	1	15	327651	17	0	17	325919	583	1	{RIGHTARROW}	-999999	0	327002	0	{RIGHTARROW}	634	327636	NA	NA	right	llrll.bmp	354	0	NA	0	0	0	0	NA	0	0	0	NA	0	0	0	0	NA	0	0	4	1	7
Arrow Flanker 2014	12306	1	"<?xml version=""1.0""?>\n<Clock xmlns:dt=""urn:schemas-microsoft-com:datatypes""><Description dt:dt=""string"">E-Prime Primary Realtime Clock</Description><StartTime><Timestamp dt:dt=""int"">0</Timestamp><DateUtc dt:dt=""string"">2015-05-26T21:17:03Z</DateUtc></StartTime><FrequencyChanges><FrequencyChange><Frequency dt:dt=""r8"">2825664</Frequency><Timestamp dt:dt=""r8"">8867139025749</Timestamp><Current dt:dt=""r8"">0</Current><DateUtc dt:dt=""string"">2015-05-26T21:17:03Z</DateUtc></FrequencyChange></FrequencyChanges></Clock>\n"	Arrow Flanker 2014-12306-1	60.018	1.0.0.100	1	-1967885390	Professional	2.0.10.353	2.0.10.353	05-26-2015	5/26/2015 9:17:03 PM	17:17:03	2.0.10.248	4	1	1	1	NA	NA	NA	NA	NA	NA	NA	NA	NA	NA	NA	NA	NA	NA	NA	NA	NA	NA	NA	NA	NA	NA	NA	NA	BlockProc	BlockList	NA	8	{RIGHTARROW}	NA	-100	1594	incongruent	NA	NA	NA	NA	NA	NA	NA	NA	NA	NA	NA	NA	NA	NA	NA	NA	NA	NA	NA	NA	NA	NA	TrialProc	TrialList	0	13	330401	16	0	17	328185	1149	1	{RIGHTARROW}	-999999	0	329834	0	{RIGHTARROW}	554	330388	NA	NA	right	llrll.bmp	354	0	NA	0	0	0	0	NA	0	0	0	NA	0	0	0	0	NA	0	0	4	1	8
Arrow Flanker 2014	12306	1	"<?xml version=""1.0""?>\n<Clock xmlns:dt=""urn:schemas-microsoft-com:datatypes""><Description dt:dt=""string"">E-Prime Primary Realtime Clock</Description><StartTime><Timestamp dt:dt=""int"">0</Timestamp><DateUtc dt:dt=""string"">2015-05-26T21:17:03Z</DateUtc></StartTime><FrequencyChanges><FrequencyChange><Frequency dt:dt=""r8"">2825664</Frequency><Timestamp dt:dt=""r8"">8867139025749</Timestamp><Current dt:dt=""r8"">0</Current><DateUtc dt:dt=""string"">2015-05-26T21:17:03Z</DateUtc></FrequencyChange></FrequencyChanges></Clock>\n"	Arrow Flanker 2014-12306-1	60.018	1.0.0.100	1	-1967885390	Professional	2.0.10.353	2.0.10.353	05-26-2015	5/26/2015 9:17:03 PM	17:17:03	2.0.10.248	4	1	1	1	NA	NA	NA	NA	NA	NA	NA	NA	NA	NA	NA	NA	NA	NA	NA	NA	NA	NA	NA	NA	NA	NA	NA	NA	BlockProc	BlockList	NA	9	{LEFTARROW}	NA	-100	2121	incongruent	NA	NA	NA	NA	NA	NA	NA	NA	NA	NA	NA	NA	NA	NA	NA	NA	NA	NA	NA	NA	NA	NA	TrialProc	TrialList	0	20	333400	16	0	17	330934	1449	1	{LEFTARROW}	-999999	0	332883	0	{LEFTARROW}	497	333380	NA	NA	left	rrlrr.bmp	354	0	NA	0	0	0	0	NA	0	0	0	NA	0	0	0	0	NA	0	0	3	1	9
Arrow Flanker 2014	12306	1	"<?xml version=""1.0""?>\n<Clock xmlns:dt=""urn:schemas-microsoft-com:datatypes""><Description dt:dt=""string"">E-Prime Primary Realtime Clock</Description><StartTime><Timestamp dt:dt=""int"">0</Timestamp><DateUtc dt:dt=""string"">2015-05-26T21:17:03Z</DateUtc></StartTime><FrequencyChanges><FrequencyChange><Frequency dt:dt=""r8"">2825664</Frequency><Timestamp dt:dt=""r8"">8867139025749</Timestamp><Current dt:dt=""r8"">0</Current><DateUtc dt:dt=""string"">2015-05-26T21:17:03Z</DateUtc></FrequencyChange></FrequencyChanges></Clock>\n"	Arrow Flanker 2014-12306-1	60.018	1.0.0.100	1	-1967885390	Professional	2.0.10.353	2.0.10.353	05-26-2015	5/26/2015 9:17:03 PM	17:17:03	2.0.10.248	4	1	1	1	NA	NA	NA	NA	NA	NA	NA	NA	NA	NA	NA	NA	NA	NA	NA	NA	NA	NA	NA	NA	NA	NA	NA	NA	BlockProc	BlockList	NA	10	{RIGHTARROW}	NA	-100	1643	congruent	NA	NA	NA	NA	NA	NA	NA	NA	NA	NA	NA	NA	NA	NA	NA	NA	NA	NA	NA	NA	NA	NA	TrialProc	TrialList	1	12	335632	17	0	17	333933	716	1	{RIGHTARROW}	-999999	0	335149	0	{RIGHTARROW}	471	335620	NA	NA	right	rrrrr.bmp	354	0	NA	0	0	0	0	NA	0	0	0	NA	0	0	0	0	NA	0	0	2	1	10
Arrow Flanker 2014	12306	1	"<?xml version=""1.0""?>\n<Clock xmlns:dt=""urn:schemas-microsoft-com:datatypes""><Description dt:dt=""string"">E-Prime Primary Realtime Clock</Description><StartTime><Timestamp dt:dt=""int"">0</Timestamp><DateUtc dt:dt=""string"">2015-05-26T21:17:03Z</DateUtc></StartTime><FrequencyChanges><FrequencyChange><Frequency dt:dt=""r8"">2825664</Frequency><Timestamp dt:dt=""r8"">8867139025749</Timestamp><Current dt:dt=""r8"">0</Current><DateUtc dt:dt=""string"">2015-05-26T21:17:03Z</DateUtc></FrequencyChange></FrequencyChanges></Clock>\n"	Arrow Flanker 2014-12306-1	60.018	1.0.0.100	1	-1967885390	Professional	2.0.10.353	2.0.10.353	05-26-2015	5/26/2015 9:17:03 PM	17:17:03	2.0.10.248	4	1	1	1	NA	NA	NA	NA	NA	NA	NA	NA	NA	NA	NA	NA	NA	NA	NA	NA	NA	NA	NA	NA	NA	NA	NA	NA	BlockProc	BlockList	NA	11	{RIGHTARROW}	NA	-100	1936	congruent	NA	NA	NA	NA	NA	NA	NA	NA	NA	NA	NA	NA	NA	NA	NA	NA	NA	NA	NA	NA	NA	NA	TrialProc	TrialList	0	11	338415	17	0	17	336166	1249	1	{RIGHTARROW}	-999999	0	337915	0	{RIGHTARROW}	489	338404	NA	NA	right	rrrrr.bmp	354	0	NA	0	0	0	0	NA	0	0	0	NA	0	0	0	0	NA	0	0	2	1	11
Arrow Flanker 2014	12306	1	"<?xml version=""1.0""?>\n<Clock xmlns:dt=""urn:schemas-microsoft-com:datatypes""><Description dt:dt=""string"">E-Prime Primary Realtime Clock</Description><StartTime><Timestamp dt:dt=""int"">0</Timestamp><DateUtc dt:dt=""string"">2015-05-26T21:17:03Z</DateUtc></StartTime><FrequencyChanges><FrequencyChange><Frequency dt:dt=""r8"">2825664</Frequency><Timestamp dt:dt=""r8"">8867139025749</Timestamp><Current dt:dt=""r8"">0</Current><DateUtc dt:dt=""string"">2015-05-26T21:17:03Z</DateUtc></FrequencyChange></FrequencyChanges></Clock>\n"	Arrow Flanker 2014-12306-1	60.018	1.0.0.100	1	-1967885390	Professional	2.0.10.353	2.0.10.353	05-26-2015	5/26/2015 9:17:03 PM	17:17:03	2.0.10.248	4	1	1	1	NA	NA	NA	NA	NA	NA	NA	NA	NA	NA	NA	NA	NA	NA	NA	NA	NA	NA	NA	NA	NA	NA	NA	NA	BlockProc	BlockList	NA	12	{LEFTARROW}	NA	-100	1004	neutral	NA	NA	NA	NA	NA	NA	NA	NA	NA	NA	NA	NA	NA	NA	NA	NA	NA	NA	NA	NA	NA	NA	TrialProc	TrialList	0	6	340698	16	0	16	338948	833	1	{LEFTARROW}	-999999	0	340281	0	{LEFTARROW}	410	340691	NA	NA	left	ooloo.bmp	354	0	NA	0	0	0	0	NA	0	0	0	NA	0	0	0	0	NA	0	0	5	1	12
Arrow Flanker 2014	12306	1	"<?xml version=""1.0""?>\n<Clock xmlns:dt=""urn:schemas-microsoft-com:datatypes""><Description dt:dt=""string"">E-Prime Primary Realtime Clock</Description><StartTime><Timestamp dt:dt=""int"">0</Timestamp><DateUtc dt:dt=""string"">2015-05-26T21:17:03Z</DateUtc></StartTime><FrequencyChanges><FrequencyChange><Frequency dt:dt=""r8"">2825664</Frequency><Timestamp dt:dt=""r8"">8867139025749</Timestamp><Current dt:dt=""r8"">0</Current><DateUtc dt:dt=""string"">2015-05-26T21:17:03Z</DateUtc></FrequencyChange></FrequencyChanges></Clock>\n"	Arrow Flanker 2014-12306-1	60.018	1.0.0.100	1	-1967885390	Professional	2.0.10.353	2.0.10.353	05-26-2015	5/26/2015 9:17:03 PM	17:17:03	2.0.10.248	4	1	1	1	NA	NA	NA	NA	NA	NA	NA	NA	NA	NA	NA	NA	NA	NA	NA	NA	NA	NA	NA	NA	NA	NA	NA	NA	BlockProc	BlockList	NA	13	{RIGHTARROW}	NA	-100	961	neutral	NA	NA	NA	NA	NA	NA	NA	NA	NA	NA	NA	NA	NA	NA	NA	NA	NA	NA	NA	NA	NA	NA	TrialProc	TrialList	1	16	342580	17	0	17	341231	500	1	{RIGHTARROW}	-999999	-1	342230	0	{RIGHTARROW}	333	342563	NA	NA	right	ooroo.bmp	354	0	NA	0	0	0	0	NA	0	0	0	NA	0	0	0	0	NA	0	0	6	1	13
Arrow Flanker 2014	12306	1	"<?xml version=""1.0""?>\n<Clock xmlns:dt=""urn:schemas-microsoft-com:datatypes""><Description dt:dt=""string"">E-Prime Primary Realtime Clock</Description><StartTime><Timestamp dt:dt=""int"">0</Timestamp><DateUtc dt:dt=""string"">2015-05-26T21:17:03Z</DateUtc></StartTime><FrequencyChanges><FrequencyChange><Frequency dt:dt=""r8"">2825664</Frequency><Timestamp dt:dt=""r8"">8867139025749</Timestamp><Current dt:dt=""r8"">0</Current><DateUtc dt:dt=""string"">2015-05-26T21:17:03Z</DateUtc></FrequencyChange></FrequencyChanges></Clock>\n"	Arrow Flanker 2014-12306-1	60.018	1.0.0.100	1	-1967885390	Professional	2.0.10.353	2.0.10.353	05-26-2015	5/26/2015 9:17:03 PM	17:17:03	2.0.10.248	4	1	1	1	NA	NA	NA	NA	NA	NA	NA	NA	NA	NA	NA	NA	NA	NA	NA	NA	NA	NA	NA	NA	NA	NA	NA	NA	BlockProc	BlockList	NA	14	{LEFTARROW}	NA	-100	1127	congruent	NA	NA	NA	NA	NA	NA	NA	NA	NA	NA	NA	NA	NA	NA	NA	NA	NA	NA	NA	NA	NA	NA	TrialProc	TrialList	1	15	344946	17	0	16	343113	950	1	{LEFTARROW}	-999999	0	344563	0	{LEFTARROW}	368	344931	NA	NA	left	lllll.bmp	354	0	NA	0	0	0	0	NA	0	0	0	NA	0	0	0	0	NA	0	0	1	1	14
Arrow Flanker 2014	12306	1	"<?xml version=""1.0""?>\n<Clock xmlns:dt=""urn:schemas-microsoft-com:datatypes""><Description dt:dt=""string"">E-Prime Primary Realtime Clock</Description><StartTime><Timestamp dt:dt=""int"">0</Timestamp><DateUtc dt:dt=""string"">2015-05-26T21:17:03Z</DateUtc></StartTime><FrequencyChanges><FrequencyChange><Frequency dt:dt=""r8"">2825664</Frequency><Timestamp dt:dt=""r8"">8867139025749</Timestamp><Current dt:dt=""r8"">0</Current><DateUtc dt:dt=""string"">2015-05-26T21:17:03Z</DateUtc></FrequencyChange></FrequencyChanges></Clock>\n"	Arrow Flanker 2014-12306-1	60.018	1.0.0.100	1	-1967885390	Professional	2.0.10.353	2.0.10.353	05-26-2015	5/26/2015 9:17:03 PM	17:17:03	2.0.10.248	4	1	1	1	NA	NA	NA	NA	NA	NA	NA	NA	NA	NA	NA	NA	NA	NA	NA	NA	NA	NA	NA	NA	NA	NA	NA	NA	BlockProc	BlockList	NA	15	{RIGHTARROW}	NA	-100	1470	congruent	NA	NA	NA	NA	NA	NA	NA	NA	NA	NA	NA	NA	NA	NA	NA	NA	NA	NA	NA	NA	NA	NA	TrialProc	TrialList	0	10	347629	16	0	16	345479	1300	1	{RIGHTARROW}	-999999	0	347279	0	{RIGHTARROW}	340	347619	NA	NA	right	rrrrr.bmp	354	0	NA	0	0	0	0	NA	0	0	0	NA	0	0	0	0	NA	0	0	2	1	15
Arrow Flanker 2014	12306	1	"<?xml version=""1.0""?>\n<Clock xmlns:dt=""urn:schemas-microsoft-com:datatypes""><Description dt:dt=""string"">E-Prime Primary Realtime Clock</Description><StartTime><Timestamp dt:dt=""int"">0</Timestamp><DateUtc dt:dt=""string"">2015-05-26T21:17:03Z</DateUtc></StartTime><FrequencyChanges><FrequencyChange><Frequency dt:dt=""r8"">2825664</Frequency><Timestamp dt:dt=""r8"">8867139025749</Timestamp><Current dt:dt=""r8"">0</Current><DateUtc dt:dt=""string"">2015-05-26T21:17:03Z</DateUtc></FrequencyChange></FrequencyChanges></Clock>\n"	Arrow Flanker 2014-12306-1	60.018	1.0.0.100	1	-1967885390	Professional	2.0.10.353	2.0.10.353	05-26-2015	5/26/2015 9:17:03 PM	17:17:03	2.0.10.248	4	1	1	1	NA	NA	NA	NA	NA	NA	NA	NA	NA	NA	NA	NA	NA	NA	NA	NA	NA	NA	NA	NA	NA	NA	NA	NA	BlockProc	BlockList	NA	16	{RIGHTARROW}	NA	-100	851	neutral	NA	NA	NA	NA	NA	NA	NA	NA	NA	NA	NA	NA	NA	NA	NA	NA	NA	NA	NA	NA	NA	NA	TrialProc	TrialList	1	9	349628	17	0	17	348162	516	1	{RIGHTARROW}	-999999	0	349178	0	{RIGHTARROW}	441	349619	NA	NA	right	ooroo.bmp	354	0	NA	0	0	0	0	NA	0	0	0	NA	0	0	0	0	NA	0	0	6	1	16
Arrow Flanker 2014	12306	1	"<?xml version=""1.0""?>\n<Clock xmlns:dt=""urn:schemas-microsoft-com:datatypes""><Description dt:dt=""string"">E-Prime Primary Realtime Clock</Description><StartTime><Timestamp dt:dt=""int"">0</Timestamp><DateUtc dt:dt=""string"">2015-05-26T21:17:03Z</DateUtc></StartTime><FrequencyChanges><FrequencyChange><Frequency dt:dt=""r8"">2825664</Frequency><Timestamp dt:dt=""r8"">8867139025749</Timestamp><Current dt:dt=""r8"">0</Current><DateUtc dt:dt=""string"">2015-05-26T21:17:03Z</DateUtc></FrequencyChange></FrequencyChanges></Clock>\n"	Arrow Flanker 2014-12306-1	60.018	1.0.0.100	1	-1967885390	Professional	2.0.10.353	2.0.10.353	05-26-2015	5/26/2015 9:17:03 PM	17:17:03	2.0.10.248	4	1	1	1	NA	NA	NA	NA	NA	NA	NA	NA	NA	NA	NA	NA	NA	NA	NA	NA	NA	NA	NA	NA	NA	NA	NA	NA	BlockProc	BlockList	NA	17	{LEFTARROW}	NA	-100	1758	congruent	NA	NA	NA	NA	NA	NA	NA	NA	NA	NA	NA	NA	NA	NA	NA	NA	NA	NA	NA	NA	NA	NA	TrialProc	TrialList	1	9	351644	17	0	16	350161	650	1	{LEFTARROW}	-999999	0	351311	0	{LEFTARROW}	324	351635	NA	NA	left	lllll.bmp	354	0	NA	0	0	0	0	NA	0	0	0	NA	0	0	0	0	NA	0	0	1	1	17
Arrow Flanker 2014	12306	1	"<?xml version=""1.0""?>\n<Clock xmlns:dt=""urn:schemas-microsoft-com:datatypes""><Description dt:dt=""string"">E-Prime Primary Realtime Clock</Description><StartTime><Timestamp dt:dt=""int"">0</Timestamp><DateUtc dt:dt=""string"">2015-05-26T21:17:03Z</DateUtc></StartTime><FrequencyChanges><FrequencyChange><Frequency dt:dt=""r8"">2825664</Frequency><Timestamp dt:dt=""r8"">8867139025749</Timestamp><Current dt:dt=""r8"">0</Current><DateUtc dt:dt=""string"">2015-05-26T21:17:03Z</DateUtc></FrequencyChange></FrequencyChanges></Clock>\n"	Arrow Flanker 2014-12306-1	60.018	1.0.0.100	1	-1967885390	Professional	2.0.10.353	2.0.10.353	05-26-2015	5/26/2015 9:17:03 PM	17:17:03	2.0.10.248	4	1	1	1	NA	NA	NA	NA	NA	NA	NA	NA	NA	NA	NA	NA	NA	NA	NA	NA	NA	NA	NA	NA	NA	NA	NA	NA	BlockProc	BlockList	NA	18	{RIGHTARROW}	NA	-100	1378	incongruent	NA	NA	NA	NA	NA	NA	NA	NA	NA	NA	NA	NA	NA	NA	NA	NA	NA	NA	NA	NA	NA	NA	TrialProc	TrialList	0	5	353544	16	0	16	352177	567	1	{RIGHTARROW}	-999999	0	353244	0	{RIGHTARROW}	295	353539	NA	NA	right	llrll.bmp	354	0	NA	0	0	0	0	NA	0	0	0	NA	0	0	0	0	NA	0	0	4	1	18
Arrow Flanker 2014	12306	1	"<?xml version=""1.0""?>\n<Clock xmlns:dt=""urn:schemas-microsoft-com:datatypes""><Description dt:dt=""string"">E-Prime Primary Realtime Clock</Description><StartTime><Timestamp dt:dt=""int"">0</Timestamp><DateUtc dt:dt=""string"">2015-05-26T21:17:03Z</DateUtc></StartTime><FrequencyChanges><FrequencyChange><Frequency dt:dt=""r8"">2825664</Frequency><Timestamp dt:dt=""r8"">8867139025749</Timestamp><Current dt:dt=""r8"">0</Current><DateUtc dt:dt=""string"">2015-05-26T21:17:03Z</DateUtc></FrequencyChange></FrequencyChanges></Clock>\n"	Arrow Flanker 2014-12306-1	60.018	1.0.0.100	1	-1967885390	Professional	2.0.10.353	2.0.10.353	05-26-2015	5/26/2015 9:17:03 PM	17:17:03	2.0.10.248	4	1	1	1	NA	NA	NA	NA	NA	NA	NA	NA	NA	NA	NA	NA	NA	NA	NA	NA	NA	NA	NA	NA	NA	NA	NA	NA	BlockProc	BlockList	NA	19	{LEFTARROW}	NA	-100	1861	incongruent	NA	NA	NA	NA	NA	NA	NA	NA	NA	NA	NA	NA	NA	NA	NA	NA	NA	NA	NA	NA	NA	NA	TrialProc	TrialList	0	9	355660	16	0	17	354077	716	1	{LEFTARROW}	-999999	0	355293	0	{LEFTARROW}	357	355650	NA	NA	left	rrlrr.bmp	354	0	NA	0	0	0	0	NA	0	0	0	NA	0	0	0	0	NA	0	0	3	1	19
Arrow Flanker 2014	12306	1	"<?xml version=""1.0""?>\n<Clock xmlns:dt=""urn:schemas-microsoft-com:datatypes""><Description dt:dt=""string"">E-Prime Primary Realtime Clock</Description><StartTime><Timestamp dt:dt=""int"">0</Timestamp><DateUtc dt:dt=""string"">2015-05-26T21:17:03Z</DateUtc></StartTime><FrequencyChanges><FrequencyChange><Frequency dt:dt=""r8"">2825664</Frequency><Timestamp dt:dt=""r8"">8867139025749</Timestamp><Current dt:dt=""r8"">0</Current><DateUtc dt:dt=""string"">2015-05-26T21:17:03Z</DateUtc></FrequencyChange></FrequencyChanges></Clock>\n"	Arrow Flanker 2014-12306-1	60.018	1.0.0.100	1	-1967885390	Professional	2.0.10.353	2.0.10.353	05-26-2015	5/26/2015 9:17:03 PM	17:17:03	2.0.10.248	4	1	1	1	NA	NA	NA	NA	NA	NA	NA	NA	NA	NA	NA	NA	NA	NA	NA	NA	NA	NA	NA	NA	NA	NA	NA	NA	BlockProc	BlockList	NA	20	{RIGHTARROW}	NA	-100	1559	incongruent	NA	NA	NA	NA	NA	NA	NA	NA	NA	NA	NA	NA	NA	NA	NA	NA	NA	NA	NA	NA	NA	NA	TrialProc	TrialList	0	15	358226	16	0	17	356193	950	1	{RIGHTARROW}	-999999	16	357659	0	{RIGHTARROW}	551	358210	NA	NA	right	llrll.bmp	354	0	NA	0	0	0	0	NA	0	0	0	NA	0	0	0	0	NA	0	0	4	1	20
Arrow Flanker 2014	12306	1	"<?xml version=""1.0""?>\n<Clock xmlns:dt=""urn:schemas-microsoft-com:datatypes""><Description dt:dt=""string"">E-Prime Primary Realtime Clock</Description><StartTime><Timestamp dt:dt=""int"">0</Timestamp><DateUtc dt:dt=""string"">2015-05-26T21:17:03Z</DateUtc></StartTime><FrequencyChanges><FrequencyChange><Frequency dt:dt=""r8"">2825664</Frequency><Timestamp dt:dt=""r8"">8867139025749</Timestamp><Current dt:dt=""r8"">0</Current><DateUtc dt:dt=""string"">2015-05-26T21:17:03Z</DateUtc></FrequencyChange></FrequencyChanges></Clock>\n"	Arrow Flanker 2014-12306-1	60.018	1.0.0.100	1	-1967885390	Professional	2.0.10.353	2.0.10.353	05-26-2015	5/26/2015 9:17:03 PM	17:17:03	2.0.10.248	4	1	1	1	NA	NA	NA	NA	NA	NA	NA	NA	NA	NA	NA	NA	NA	NA	NA	NA	NA	NA	NA	NA	NA	NA	NA	NA	BlockProc	BlockList	NA	21	{LEFTARROW}	NA	-100	1128	neutral	NA	NA	NA	NA	NA	NA	NA	NA	NA	NA	NA	NA	NA	NA	NA	NA	NA	NA	NA	NA	NA	NA	TrialProc	TrialList	1	16	360658	17	0	17	358759	1050	1	{LEFTARROW}	-999999	0	360308	0	{LEFTARROW}	334	360642	NA	NA	left	ooloo.bmp	354	0	NA	0	0	0	0	NA	0	0	0	NA	0	0	0	0	NA	0	0	5	1	21
Arrow Flanker 2014	12306	1	"<?xml version=""1.0""?>\n<Clock xmlns:dt=""urn:schemas-microsoft-com:datatypes""><Description dt:dt=""string"">E-Prime Primary Realtime Clock</Description><StartTime><Timestamp dt:dt=""int"">0</Timestamp><DateUtc dt:dt=""string"">2015-05-26T21:17:03Z</DateUtc></StartTime><FrequencyChanges><FrequencyChange><Frequency dt:dt=""r8"">2825664</Frequency><Timestamp dt:dt=""r8"">8867139025749</Timestamp><Current dt:dt=""r8"">0</Current><DateUtc dt:dt=""string"">2015-05-26T21:17:03Z</DateUtc></FrequencyChange></FrequencyChanges></Clock>\n"	Arrow Flanker 2014-12306-1	60.018	1.0.0.100	1	-1967885390	Professional	2.0.10.353	2.0.10.353	05-26-2015	5/26/2015 9:17:03 PM	17:17:03	2.0.10.248	4	1	1	1	NA	NA	NA	NA	NA	NA	NA	NA	NA	NA	NA	NA	NA	NA	NA	NA	NA	NA	NA	NA	NA	NA	NA	NA	BlockProc	BlockList	NA	22	{LEFTARROW}	NA	-100	2399	incongruent	NA	NA	NA	NA	NA	NA	NA	NA	NA	NA	NA	NA	NA	NA	NA	NA	NA	NA	NA	NA	1	NA	TrialProc	TrialList	0	6	363624	17	0	16	361191	1317	1	{LEFTARROW}	-999999	0	363008	0	{LEFTARROW}	610	363618	NA	NA	left	rrlrr.bmp	354	0	NA	-999999	16	364157	0	1	6637	370794	0	NA	0	0	0	0	NA	0	0	3	1	22
Arrow Flanker 2014	12306	1	"<?xml version=""1.0""?>\n<Clock xmlns:dt=""urn:schemas-microsoft-com:datatypes""><Description dt:dt=""string"">E-Prime Primary Realtime Clock</Description><StartTime><Timestamp dt:dt=""int"">0</Timestamp><DateUtc dt:dt=""string"">2015-05-26T21:17:03Z</DateUtc></StartTime><FrequencyChanges><FrequencyChange><Frequency dt:dt=""r8"">2825664</Frequency><Timestamp dt:dt=""r8"">8867139025749</Timestamp><Current dt:dt=""r8"">0</Current><DateUtc dt:dt=""string"">2015-05-26T21:17:03Z</DateUtc></FrequencyChange></FrequencyChanges></Clock>\n"	Arrow Flanker 2014-12306-1	60.018	1.0.0.100	1	-1967885390	Professional	2.0.10.353	2.0.10.353	05-26-2015	5/26/2015 9:17:03 PM	17:17:03	2.0.10.248	4	1	1	1	NA	NA	NA	NA	NA	NA	NA	NA	NA	NA	NA	NA	NA	NA	NA	NA	NA	NA	NA	NA	NA	NA	NA	NA	BlockProc	BlockList	NA	23	{RIGHTARROW}	NA	-100	1960	congruent	NA	NA	NA	NA	NA	NA	NA	NA	NA	NA	NA	NA	NA	NA	NA	NA	NA	NA	NA	NA	NA	NA	TrialProc	TrialList	0	12	377037	16	0	24	374954	850	1	{RIGHTARROW}	-999999	0	376304	0	{RIGHTARROW}	721	377025	NA	NA	right	rrrrr.bmp	354	0	NA	0	0	0	0	NA	0	0	0	NA	0	0	0	0	NA	0	0	2	1	23
Arrow Flanker 2014	12306	1	"<?xml version=""1.0""?>\n<Clock xmlns:dt=""urn:schemas-microsoft-com:datatypes""><Description dt:dt=""string"">E-Prime Primary Realtime Clock</Description><StartTime><Timestamp dt:dt=""int"">0</Timestamp><DateUtc dt:dt=""string"">2015-05-26T21:17:03Z</DateUtc></StartTime><FrequencyChanges><FrequencyChange><Frequency dt:dt=""r8"">2825664</Frequency><Timestamp dt:dt=""r8"">8867139025749</Timestamp><Current dt:dt=""r8"">0</Current><DateUtc dt:dt=""string"">2015-05-26T21:17:03Z</DateUtc></FrequencyChange></FrequencyChanges></Clock>\n"	Arrow Flanker 2014-12306-1	60.018	1.0.0.100	1	-1967885390	Professional	2.0.10.353	2.0.10.353	05-26-2015	5/26/2015 9:17:03 PM	17:17:03	2.0.10.248	4	1	1	1	NA	NA	NA	NA	NA	NA	NA	NA	NA	NA	NA	NA	NA	NA	NA	NA	NA	NA	NA	NA	NA	NA	NA	NA	BlockProc	BlockList	NA	24	{LEFTARROW}	NA	-100	1683	incongruent	NA	NA	NA	NA	NA	NA	NA	NA	NA	NA	NA	NA	NA	NA	NA	NA	NA	NA	NA	NA	NA	NA	TrialProc	TrialList	1	6	379319	17	0	17	377570	650	1	{LEFTARROW}	-999999	-1	378719	0	{LEFTARROW}	594	379313	NA	NA	left	rrlrr.bmp	354	0	NA	0	0	0	0	NA	0	0	0	NA	0	0	0	0	NA	0	0	3	1	24
Arrow Flanker 2014	12306	1	"<?xml version=""1.0""?>\n<Clock xmlns:dt=""urn:schemas-microsoft-com:datatypes""><Description dt:dt=""string"">E-Prime Primary Realtime Clock</Description><StartTime><Timestamp dt:dt=""int"">0</Timestamp><DateUtc dt:dt=""string"">2015-05-26T21:17:03Z</DateUtc></StartTime><FrequencyChanges><FrequencyChange><Frequency dt:dt=""r8"">2825664</Frequency><Timestamp dt:dt=""r8"">8867139025749</Timestamp><Current dt:dt=""r8"">0</Current><DateUtc dt:dt=""string"">2015-05-26T21:17:03Z</DateUtc></FrequencyChange></FrequencyChanges></Clock>\n"	Arrow Flanker 2014-12306-1	60.018	1.0.0.100	1	-1967885390	Professional	2.0.10.353	2.0.10.353	05-26-2015	5/26/2015 9:17:03 PM	17:17:03	2.0.10.248	4	1	1	1	NA	NA	NA	NA	NA	NA	NA	NA	NA	NA	NA	NA	NA	NA	NA	NA	NA	NA	NA	NA	NA	NA	NA	NA	BlockProc	BlockList	NA	25	{LEFTARROW}	NA	-100	2395	neutral	NA	NA	NA	NA	NA	NA	NA	NA	NA	NA	NA	NA	NA	NA	NA	NA	NA	NA	NA	NA	NA	NA	TrialProc	TrialList	0	15	382352	16	0	17	379853	1516	1	{LEFTARROW}	-999999	0	381869	0	{LEFTARROW}	468	382337	NA	NA	left	ooloo.bmp	354	0	NA	0	0	0	0	NA	0	0	0	NA	0	0	0	0	NA	0	0	5	1	25
Arrow Flanker 2014	12306	1	"<?xml version=""1.0""?>\n<Clock xmlns:dt=""urn:schemas-microsoft-com:datatypes""><Description dt:dt=""string"">E-Prime Primary Realtime Clock</Description><StartTime><Timestamp dt:dt=""int"">0</Timestamp><DateUtc dt:dt=""string"">2015-05-26T21:17:03Z</DateUtc></StartTime><FrequencyChanges><FrequencyChange><Frequency dt:dt=""r8"">2825664</Frequency><Timestamp dt:dt=""r8"">8867139025749</Timestamp><Current dt:dt=""r8"">0</Current><DateUtc dt:dt=""string"">2015-05-26T21:17:03Z</DateUtc></FrequencyChange></FrequencyChanges></Clock>\n"	Arrow Flanker 2014-12306-1	60.018	1.0.0.100	1	-1967885390	Professional	2.0.10.353	2.0.10.353	05-26-2015	5/26/2015 9:17:03 PM	17:17:03	2.0.10.248	4	1	1	1	NA	NA	NA	NA	NA	NA	NA	NA	NA	NA	NA	NA	NA	NA	NA	NA	NA	NA	NA	NA	NA	NA	NA	NA	BlockProc	BlockList	NA	26	{LEFTARROW}	NA	-100	1422	neutral	NA	NA	NA	NA	NA	NA	NA	NA	NA	NA	NA	NA	NA	NA	NA	NA	NA	NA	NA	NA	NA	NA	TrialProc	TrialList	0	19	385268	16	0	17	382885	0	1	{LEFTARROW}	-999999	0	384818	0	{LEFTARROW}	431	385249	NA	NA	left	ooloo.bmp	354	0	NA	0	0	0	0	NA	0	0	0	NA	0	0	0	0	NA	0	0	5	1	26
Arrow Flanker 2014	12306	1	"<?xml version=""1.0""?>\n<Clock xmlns:dt=""urn:schemas-microsoft-com:datatypes""><Description dt:dt=""string"">E-Prime Primary Realtime Clock</Description><StartTime><Timestamp dt:dt=""int"">0</Timestamp><DateUtc dt:dt=""string"">2015-05-26T21:17:03Z</DateUtc></StartTime><FrequencyChanges><FrequencyChange><Frequency dt:dt=""r8"">2825664</Frequency><Timestamp dt:dt=""r8"">8867139025749</Timestamp><Current dt:dt=""r8"">0</Current><DateUtc dt:dt=""string"">2015-05-26T21:17:03Z</DateUtc></FrequencyChange></FrequencyChanges></Clock>\n"	Arrow Flanker 2014-12306-1	60.018	1.0.0.100	1	-1967885390	Professional	2.0.10.353	2.0.10.353	05-26-2015	5/26/2015 9:17:03 PM	17:17:03	2.0.10.248	4	1	1	1	NA	NA	NA	NA	NA	NA	NA	NA	NA	NA	NA	NA	NA	NA	NA	NA	NA	NA	NA	NA	NA	NA	NA	NA	BlockProc	BlockList	NA	27	{RIGHTARROW}	NA	-100	922	congruent	NA	NA	NA	NA	NA	NA	NA	NA	NA	NA	NA	NA	NA	NA	NA	NA	NA	NA	NA	NA	NA	NA	TrialProc	TrialList	0	9	387434	16	0	17	385801	0	1	{RIGHTARROW}	-999999	0	386934	0	{RIGHTARROW}	491	387425	NA	NA	right	rrrrr.bmp	354	0	NA	0	0	0	0	NA	0	0	0	NA	0	0	0	0	NA	0	0	2	1	27
Arrow Flanker 2014	12306	1	"<?xml version=""1.0""?>\n<Clock xmlns:dt=""urn:schemas-microsoft-com:datatypes""><Description dt:dt=""string"">E-Prime Primary Realtime Clock</Description><StartTime><Timestamp dt:dt=""int"">0</Timestamp><DateUtc dt:dt=""string"">2015-05-26T21:17:03Z</DateUtc></StartTime><FrequencyChanges><FrequencyChange><Frequency dt:dt=""r8"">2825664</Frequency><Timestamp dt:dt=""r8"">8867139025749</Timestamp><Current dt:dt=""r8"">0</Current><DateUtc dt:dt=""string"">2015-05-26T21:17:03Z</DateUtc></FrequencyChange></FrequencyChanges></Clock>\n"	Arrow Flanker 2014-12306-1	60.018	1.0.0.100	1	-1967885390	Professional	2.0.10.353	2.0.10.353	05-26-2015	5/26/2015 9:17:03 PM	17:17:03	2.0.10.248	4	1	1	1	NA	NA	NA	NA	NA	NA	NA	NA	NA	NA	NA	NA	NA	NA	NA	NA	NA	NA	NA	NA	NA	NA	NA	NA	BlockProc	BlockList	NA	28	{RIGHTARROW}	NA	-100	1556	incongruent	NA	NA	NA	NA	NA	NA	NA	NA	NA	NA	NA	NA	NA	NA	NA	NA	NA	NA	NA	NA	NA	NA	TrialProc	TrialList	1	17	389666	17	0	17	387967	0	1	{RIGHTARROW}	-999999	16	389083	0	{RIGHTARROW}	565	389648	NA	NA	right	llrll.bmp	354	0	NA	0	0	0	0	NA	0	0	0	NA	0	0	0	0	NA	0	0	4	1	28
Arrow Flanker 2014	12306	1	"<?xml version=""1.0""?>\n<Clock xmlns:dt=""urn:schemas-microsoft-com:datatypes""><Description dt:dt=""string"">E-Prime Primary Realtime Clock</Description><StartTime><Timestamp dt:dt=""int"">0</Timestamp><DateUtc dt:dt=""string"">2015-05-26T21:17:03Z</DateUtc></StartTime><FrequencyChanges><FrequencyChange><Frequency dt:dt=""r8"">2825664</Frequency><Timestamp dt:dt=""r8"">8867139025749</Timestamp><Current dt:dt=""r8"">0</Current><DateUtc dt:dt=""string"">2015-05-26T21:17:03Z</DateUtc></FrequencyChange></FrequencyChanges></Clock>\n"	Arrow Flanker 2014-12306-1	60.018	1.0.0.100	1	-1967885390	Professional	2.0.10.353	2.0.10.353	05-26-2015	5/26/2015 9:17:03 PM	17:17:03	2.0.10.248	4	1	1	1	NA	NA	NA	NA	NA	NA	NA	NA	NA	NA	NA	NA	NA	NA	NA	NA	NA	NA	NA	NA	NA	NA	NA	NA	BlockProc	BlockList	NA	29	{LEFTARROW}	NA	-100	1615	incongruent	NA	NA	NA	NA	NA	NA	NA	NA	NA	NA	NA	NA	NA	NA	NA	NA	NA	NA	NA	NA	NA	NA	TrialProc	TrialList	0	14	392799	16	0	16	390199	0	1	{LEFTARROW}	-999999	0	392299	0	{LEFTARROW}	485	392784	NA	NA	left	rrlrr.bmp	354	0	NA	0	0	0	0	NA	0	0	0	NA	0	0	0	0	NA	0	0	3	1	29
Arrow Flanker 2014	12306	1	"<?xml version=""1.0""?>\n<Clock xmlns:dt=""urn:schemas-microsoft-com:datatypes""><Description dt:dt=""string"">E-Prime Primary Realtime Clock</Description><StartTime><Timestamp dt:dt=""int"">0</Timestamp><DateUtc dt:dt=""string"">2015-05-26T21:17:03Z</DateUtc></StartTime><FrequencyChanges><FrequencyChange><Frequency dt:dt=""r8"">2825664</Frequency><Timestamp dt:dt=""r8"">8867139025749</Timestamp><Current dt:dt=""r8"">0</Current><DateUtc dt:dt=""string"">2015-05-26T21:17:03Z</DateUtc></FrequencyChange></FrequencyChanges></Clock>\n"	Arrow Flanker 2014-12306-1	60.018	1.0.0.100	1	-1967885390	Professional	2.0.10.353	2.0.10.353	05-26-2015	5/26/2015 9:17:03 PM	17:17:03	2.0.10.248	4	1	1	1	NA	NA	NA	NA	NA	NA	NA	NA	NA	NA	NA	NA	NA	NA	NA	NA	NA	NA	NA	NA	NA	NA	NA	NA	BlockProc	BlockList	NA	30	{RIGHTARROW}	NA	-100	1817	congruent	NA	NA	NA	NA	NA	NA	NA	NA	NA	NA	NA	NA	NA	NA	NA	NA	NA	NA	NA	NA	NA	NA	TrialProc	TrialList	0	9	395065	16	0	17	393332	0	1	{RIGHTARROW}	-999999	0	394615	0	{RIGHTARROW}	441	395056	NA	NA	right	rrrrr.bmp	354	0	NA	0	0	0	0	NA	0	0	0	NA	0	0	0	0	NA	0	0	2	1	30
Arrow Flanker 2014	12306	1	"<?xml version=""1.0""?>\n<Clock xmlns:dt=""urn:schemas-microsoft-com:datatypes""><Description dt:dt=""string"">E-Prime Primary Realtime Clock</Description><StartTime><Timestamp dt:dt=""int"">0</Timestamp><DateUtc dt:dt=""string"">2015-05-26T21:17:03Z</DateUtc></StartTime><FrequencyChanges><FrequencyChange><Frequency dt:dt=""r8"">2825664</Frequency><Timestamp dt:dt=""r8"">8867139025749</Timestamp><Current dt:dt=""r8"">0</Current><DateUtc dt:dt=""string"">2015-05-26T21:17:03Z</DateUtc></FrequencyChange></FrequencyChanges></Clock>\n"	Arrow Flanker 2014-12306-1	60.018	1.0.0.100	1	-1967885390	Professional	2.0.10.353	2.0.10.353	05-26-2015	5/26/2015 9:17:03 PM	17:17:03	2.0.10.248	4	1	1	1	NA	NA	NA	NA	NA	NA	NA	NA	NA	NA	NA	NA	NA	NA	NA	NA	NA	NA	NA	NA	NA	NA	NA	NA	BlockProc	BlockList	NA	31	{RIGHTARROW}	NA	-100	1559	incongruent	NA	NA	NA	NA	NA	NA	NA	NA	NA	NA	NA	NA	NA	NA	NA	NA	NA	NA	NA	NA	NA	NA	TrialProc	TrialList	0	18	396914	17	0	17	395598	0	0	{RIGHTARROW}	-999999	0	396564	0	{LEFTARROW}	332	396896	NA	NA	right	llrll.bmp	354	0	NA	0	0	0	0	NA	0	0	0	NA	0	0	0	0	NA	0	0	4	1	31
Arrow Flanker 2014	12306	1	"<?xml version=""1.0""?>\n<Clock xmlns:dt=""urn:schemas-microsoft-com:datatypes""><Description dt:dt=""string"">E-Prime Primary Realtime Clock</Description><StartTime><Timestamp dt:dt=""int"">0</Timestamp><DateUtc dt:dt=""string"">2015-05-26T21:17:03Z</DateUtc></StartTime><FrequencyChanges><FrequencyChange><Frequency dt:dt=""r8"">2825664</Frequency><Timestamp dt:dt=""r8"">8867139025749</Timestamp><Current dt:dt=""r8"">0</Current><DateUtc dt:dt=""string"">2015-05-26T21:17:03Z</DateUtc></FrequencyChange></FrequencyChanges></Clock>\n"	Arrow Flanker 2014-12306-1	60.018	1.0.0.100	1	-1967885390	Professional	2.0.10.353	2.0.10.353	05-26-2015	5/26/2015 9:17:03 PM	17:17:03	2.0.10.248	4	1	1	1	NA	NA	NA	NA	NA	NA	NA	NA	NA	NA	NA	NA	NA	NA	NA	NA	NA	NA	NA	NA	NA	NA	NA	NA	BlockProc	BlockList	NA	32	{RIGHTARROW}	NA	-100	737	congruent	NA	NA	NA	NA	NA	NA	NA	NA	NA	NA	NA	NA	NA	NA	NA	NA	NA	NA	NA	NA	NA	NA	TrialProc	TrialList	0	13	399197	16	0	16	397447	0	1	{RIGHTARROW}	-999999	0	398514	0	{RIGHTARROW}	670	399184	NA	NA	right	rrrrr.bmp	354	0	NA	0	0	0	0	NA	0	0	0	NA	0	0	0	0	NA	0	0	2	1	32
Arrow Flanker 2014	12306	1	"<?xml version=""1.0""?>\n<Clock xmlns:dt=""urn:schemas-microsoft-com:datatypes""><Description dt:dt=""string"">E-Prime Primary Realtime Clock</Description><StartTime><Timestamp dt:dt=""int"">0</Timestamp><DateUtc dt:dt=""string"">2015-05-26T21:17:03Z</DateUtc></StartTime><FrequencyChanges><FrequencyChange><Frequency dt:dt=""r8"">2825664</Frequency><Timestamp dt:dt=""r8"">8867139025749</Timestamp><Current dt:dt=""r8"">0</Current><DateUtc dt:dt=""string"">2015-05-26T21:17:03Z</DateUtc></FrequencyChange></FrequencyChanges></Clock>\n"	Arrow Flanker 2014-12306-1	60.018	1.0.0.100	1	-1967885390	Professional	2.0.10.353	2.0.10.353	05-26-2015	5/26/2015 9:17:03 PM	17:17:03	2.0.10.248	4	1	1	1	NA	NA	NA	NA	NA	NA	NA	NA	NA	NA	NA	NA	NA	NA	NA	NA	NA	NA	NA	NA	NA	NA	NA	NA	BlockProc	BlockList	NA	33	{LEFTARROW}	NA	-100	1799	incongruent	NA	NA	NA	NA	NA	NA	NA	NA	NA	NA	NA	NA	NA	NA	NA	NA	NA	NA	NA	NA	NA	NA	TrialProc	TrialList	1	5	401429	17	0	17	399730	0	1	{LEFTARROW}	-999999	0	400863	0	{LEFTARROW}	561	401424	NA	NA	left	rrlrr.bmp	354	0	NA	0	0	0	0	NA	0	0	0	NA	0	0	0	0	NA	0	0	3	1	33
Arrow Flanker 2014	12306	1	"<?xml version=""1.0""?>\n<Clock xmlns:dt=""urn:schemas-microsoft-com:datatypes""><Description dt:dt=""string"">E-Prime Primary Realtime Clock</Description><StartTime><Timestamp dt:dt=""int"">0</Timestamp><DateUtc dt:dt=""string"">2015-05-26T21:17:03Z</DateUtc></StartTime><FrequencyChanges><FrequencyChange><Frequency dt:dt=""r8"">2825664</Frequency><Timestamp dt:dt=""r8"">8867139025749</Timestamp><Current dt:dt=""r8"">0</Current><DateUtc dt:dt=""string"">2015-05-26T21:17:03Z</DateUtc></FrequencyChange></FrequencyChanges></Clock>\n"	Arrow Flanker 2014-12306-1	60.018	1.0.0.100	1	-1967885390	Professional	2.0.10.353	2.0.10.353	05-26-2015	5/26/2015 9:17:03 PM	17:17:03	2.0.10.248	4	1	1	1	NA	NA	NA	NA	NA	NA	NA	NA	NA	NA	NA	NA	NA	NA	NA	NA	NA	NA	NA	NA	NA	NA	NA	NA	BlockProc	BlockList	NA	34	{LEFTARROW}	NA	-100	1537	neutral	NA	NA	NA	NA	NA	NA	NA	NA	NA	NA	NA	NA	NA	NA	NA	NA	NA	NA	NA	NA	NA	NA	TrialProc	TrialList	1	5	404245	17	0	17	401963	0	1	{LEFTARROW}	-999999	0	403712	0	{LEFTARROW}	527	404239	NA	NA	left	ooloo.bmp	354	0	NA	0	0	0	0	NA	0	0	0	NA	0	0	0	0	NA	0	0	5	1	34
Arrow Flanker 2014	12306	1	"<?xml version=""1.0""?>\n<Clock xmlns:dt=""urn:schemas-microsoft-com:datatypes""><Description dt:dt=""string"">E-Prime Primary Realtime Clock</Description><StartTime><Timestamp dt:dt=""int"">0</Timestamp><DateUtc dt:dt=""string"">2015-05-26T21:17:03Z</DateUtc></StartTime><FrequencyChanges><FrequencyChange><Frequency dt:dt=""r8"">2825664</Frequency><Timestamp dt:dt=""r8"">8867139025749</Timestamp><Current dt:dt=""r8"">0</Current><DateUtc dt:dt=""string"">2015-05-26T21:17:03Z</DateUtc></FrequencyChange></FrequencyChanges></Clock>\n"	Arrow Flanker 2014-12306-1	60.018	1.0.0.100	1	-1967885390	Professional	2.0.10.353	2.0.10.353	05-26-2015	5/26/2015 9:17:03 PM	17:17:03	2.0.10.248	4	1	1	1	NA	NA	NA	NA	NA	NA	NA	NA	NA	NA	NA	NA	NA	NA	NA	NA	NA	NA	NA	NA	NA	NA	NA	NA	BlockProc	BlockList	NA	35	{LEFTARROW}	NA	-100	2057	incongruent	NA	NA	NA	NA	NA	NA	NA	NA	NA	NA	NA	NA	NA	NA	NA	NA	NA	NA	NA	NA	NA	NA	TrialProc	TrialList	1	9	406744	17	0	16	404778	0	1	{LEFTARROW}	-999999	0	406161	0	{LEFTARROW}	574	406735	NA	NA	left	rrlrr.bmp	354	0	NA	0	0	0	0	NA	0	0	0	NA	0	0	0	0	NA	0	0	3	1	35
Arrow Flanker 2014	12306	1	"<?xml version=""1.0""?>\n<Clock xmlns:dt=""urn:schemas-microsoft-com:datatypes""><Description dt:dt=""string"">E-Prime Primary Realtime Clock</Description><StartTime><Timestamp dt:dt=""int"">0</Timestamp><DateUtc dt:dt=""string"">2015-05-26T21:17:03Z</DateUtc></StartTime><FrequencyChanges><FrequencyChange><Frequency dt:dt=""r8"">2825664</Frequency><Timestamp dt:dt=""r8"">8867139025749</Timestamp><Current dt:dt=""r8"">0</Current><DateUtc dt:dt=""string"">2015-05-26T21:17:03Z</DateUtc></FrequencyChange></FrequencyChanges></Clock>\n"	Arrow Flanker 2014-12306-1	60.018	1.0.0.100	1	-1967885390	Professional	2.0.10.353	2.0.10.353	05-26-2015	5/26/2015 9:17:03 PM	17:17:03	2.0.10.248	4	1	1	1	NA	NA	NA	NA	NA	NA	NA	NA	NA	NA	NA	NA	NA	NA	NA	NA	NA	NA	NA	NA	NA	NA	NA	NA	BlockProc	BlockList	NA	36	{LEFTARROW}	NA	-100	1767	neutral	NA	NA	NA	NA	NA	NA	NA	NA	NA	NA	NA	NA	NA	NA	NA	NA	NA	NA	NA	NA	NA	NA	TrialProc	TrialList	1	5	409060	17	0	17	407278	0	1	{LEFTARROW}	-999999	0	408644	0	{LEFTARROW}	411	409055	NA	NA	left	ooloo.bmp	354	0	NA	0	0	0	0	NA	0	0	0	NA	0	0	0	0	NA	0	0	5	1	36
Arrow Flanker 2014	12306	1	"<?xml version=""1.0""?>\n<Clock xmlns:dt=""urn:schemas-microsoft-com:datatypes""><Description dt:dt=""string"">E-Prime Primary Realtime Clock</Description><StartTime><Timestamp dt:dt=""int"">0</Timestamp><DateUtc dt:dt=""string"">2015-05-26T21:17:03Z</DateUtc></StartTime><FrequencyChanges><FrequencyChange><Frequency dt:dt=""r8"">2825664</Frequency><Timestamp dt:dt=""r8"">8867139025749</Timestamp><Current dt:dt=""r8"">0</Current><DateUtc dt:dt=""string"">2015-05-26T21:17:03Z</DateUtc></FrequencyChange></FrequencyChanges></Clock>\n"	Arrow Flanker 2014-12306-1	60.018	1.0.0.100	1	-1967885390	Professional	2.0.10.353	2.0.10.353	05-26-2015	5/26/2015 9:17:03 PM	17:17:03	2.0.10.248	4	1	1	1	NA	NA	NA	NA	NA	NA	NA	NA	NA	NA	NA	NA	NA	NA	NA	NA	NA	NA	NA	NA	NA	NA	NA	NA	BlockProc	BlockList	NA	37	{RIGHTARROW}	NA	-100	1365	congruent	NA	NA	NA	NA	NA	NA	NA	NA	NA	NA	NA	NA	NA	NA	NA	NA	NA	NA	NA	NA	2	1	TrialProc	TrialList	0	3	411794	16	0	17	409594	0	1	{RIGHTARROW}	-999999	0	411343	0	{RIGHTARROW}	448	411791	NA	NA	right	rrrrr.bmp	354	0	NA	-999999	16	412326	0	1	2273	414599	0	NA	-999999	10	414609	0	1	4398	419007	2	1	37
Arrow Flanker 2014	12306	1	"<?xml version=""1.0""?>\n<Clock xmlns:dt=""urn:schemas-microsoft-com:datatypes""><Description dt:dt=""string"">E-Prime Primary Realtime Clock</Description><StartTime><Timestamp dt:dt=""int"">0</Timestamp><DateUtc dt:dt=""string"">2015-05-26T21:17:03Z</DateUtc></StartTime><FrequencyChanges><FrequencyChange><Frequency dt:dt=""r8"">2825664</Frequency><Timestamp dt:dt=""r8"">8867139025749</Timestamp><Current dt:dt=""r8"">0</Current><DateUtc dt:dt=""string"">2015-05-26T21:17:03Z</DateUtc></FrequencyChange></FrequencyChanges></Clock>\n"	Arrow Flanker 2014-12306-1	60.018	1.0.0.100	1	-1967885390	Professional	2.0.10.353	2.0.10.353	05-26-2015	5/26/2015 9:17:03 PM	17:17:03	2.0.10.248	4	1	1	1	NA	NA	NA	NA	NA	NA	NA	NA	NA	NA	NA	NA	NA	NA	NA	NA	NA	NA	NA	NA	NA	NA	NA	NA	BlockProc	BlockList	NA	38	{LEFTARROW}	NA	-100	2363	incongruent	NA	NA	NA	NA	NA	NA	NA	NA	NA	NA	NA	NA	NA	NA	NA	NA	NA	NA	NA	NA	NA	NA	TrialProc	TrialList	0	5	423523	16	0	11	420874	0	1	{LEFTARROW}	-999999	0	422973	0	{LEFTARROW}	545	423518	NA	NA	left	rrlrr.bmp	354	0	NA	0	0	0	0	NA	0	0	0	NA	0	0	0	0	NA	0	0	3	1	38
Arrow Flanker 2014	12306	1	"<?xml version=""1.0""?>\n<Clock xmlns:dt=""urn:schemas-microsoft-com:datatypes""><Description dt:dt=""string"">E-Prime Primary Realtime Clock</Description><StartTime><Timestamp dt:dt=""int"">0</Timestamp><DateUtc dt:dt=""string"">2015-05-26T21:17:03Z</DateUtc></StartTime><FrequencyChanges><FrequencyChange><Frequency dt:dt=""r8"">2825664</Frequency><Timestamp dt:dt=""r8"">8867139025749</Timestamp><Current dt:dt=""r8"">0</Current><DateUtc dt:dt=""string"">2015-05-26T21:17:03Z</DateUtc></FrequencyChange></FrequencyChanges></Clock>\n"	Arrow Flanker 2014-12306-1	60.018	1.0.0.100	1	-1967885390	Professional	2.0.10.353	2.0.10.353	05-26-2015	5/26/2015 9:17:03 PM	17:17:03	2.0.10.248	4	1	1	1	NA	NA	NA	NA	NA	NA	NA	NA	NA	NA	NA	NA	NA	NA	NA	NA	NA	NA	NA	NA	NA	NA	NA	NA	BlockProc	BlockList	NA	39	{RIGHTARROW}	NA	-100	2116	neutral	NA	NA	NA	NA	NA	NA	NA	NA	NA	NA	NA	NA	NA	NA	NA	NA	NA	NA	NA	NA	NA	NA	TrialProc	TrialList	1	9	426455	17	0	17	424056	0	1	{RIGHTARROW}	-999999	0	426005	0	{RIGHTARROW}	441	426446	NA	NA	right	ooroo.bmp	354	0	NA	0	0	0	0	NA	0	0	0	NA	0	0	0	0	NA	0	0	6	1	39
Arrow Flanker 2014	12306	1	"<?xml version=""1.0""?>\n<Clock xmlns:dt=""urn:schemas-microsoft-com:datatypes""><Description dt:dt=""string"">E-Prime Primary Realtime Clock</Description><StartTime><Timestamp dt:dt=""int"">0</Timestamp><DateUtc dt:dt=""string"">2015-05-26T21:17:03Z</DateUtc></StartTime><FrequencyChanges><FrequencyChange><Frequency dt:dt=""r8"">2825664</Frequency><Timestamp dt:dt=""r8"">8867139025749</Timestamp><Current dt:dt=""r8"">0</Current><DateUtc dt:dt=""string"">2015-05-26T21:17:03Z</DateUtc></FrequencyChange></FrequencyChanges></Clock>\n"	Arrow Flanker 2014-12306-1	60.018	1.0.0.100	1	-1967885390	Professional	2.0.10.353	2.0.10.353	05-26-2015	5/26/2015 9:17:03 PM	17:17:03	2.0.10.248	4	1	1	1	NA	NA	NA	NA	NA	NA	NA	NA	NA	NA	NA	NA	NA	NA	NA	NA	NA	NA	NA	NA	NA	NA	NA	NA	BlockProc	BlockList	NA	40	{RIGHTARROW}	NA	-100	901	incongruent	NA	NA	NA	NA	NA	NA	NA	NA	NA	NA	NA	NA	NA	NA	NA	NA	NA	NA	NA	NA	NA	NA	TrialProc	TrialList	0	13	428555	16	0	16	426988	0	1	{RIGHTARROW}	-999999	0	428055	0	{RIGHTARROW}	487	428542	NA	NA	right	llrll.bmp	354	0	NA	0	0	0	0	NA	0	0	0	NA	0	0	0	0	NA	0	0	4	1	40
Arrow Flanker 2014	12306	1	"<?xml version=""1.0""?>\n<Clock xmlns:dt=""urn:schemas-microsoft-com:datatypes""><Description dt:dt=""string"">E-Prime Primary Realtime Clock</Description><StartTime><Timestamp dt:dt=""int"">0</Timestamp><DateUtc dt:dt=""string"">2015-05-26T21:17:03Z</DateUtc></StartTime><FrequencyChanges><FrequencyChange><Frequency dt:dt=""r8"">2825664</Frequency><Timestamp dt:dt=""r8"">8867139025749</Timestamp><Current dt:dt=""r8"">0</Current><DateUtc dt:dt=""string"">2015-05-26T21:17:03Z</DateUtc></FrequencyChange></FrequencyChanges></Clock>\n"	Arrow Flanker 2014-12306-1	60.018	1.0.0.100	1	-1967885390	Professional	2.0.10.353	2.0.10.353	05-26-2015	5/26/2015 9:17:03 PM	17:17:03	2.0.10.248	4	1	1	1	NA	NA	NA	NA	NA	NA	NA	NA	NA	NA	NA	NA	NA	NA	NA	NA	NA	NA	NA	NA	NA	NA	NA	NA	BlockProc	BlockList	NA	41	{LEFTARROW}	NA	-100	2088	incongruent	NA	NA	NA	NA	NA	NA	NA	NA	NA	NA	NA	NA	NA	NA	NA	NA	NA	NA	NA	NA	NA	NA	TrialProc	TrialList	0	5	431587	17	0	17	429088	0	1	{LEFTARROW}	-999999	16	431187	0	{LEFTARROW}	395	431582	NA	NA	left	rrlrr.bmp	354	0	NA	0	0	0	0	NA	0	0	0	NA	0	0	0	0	NA	0	0	3	1	41
Arrow Flanker 2014	12306	1	"<?xml version=""1.0""?>\n<Clock xmlns:dt=""urn:schemas-microsoft-com:datatypes""><Description dt:dt=""string"">E-Prime Primary Realtime Clock</Description><StartTime><Timestamp dt:dt=""int"">0</Timestamp><DateUtc dt:dt=""string"">2015-05-26T21:17:03Z</DateUtc></StartTime><FrequencyChanges><FrequencyChange><Frequency dt:dt=""r8"">2825664</Frequency><Timestamp dt:dt=""r8"">8867139025749</Timestamp><Current dt:dt=""r8"">0</Current><DateUtc dt:dt=""string"">2015-05-26T21:17:03Z</DateUtc></FrequencyChange></FrequencyChanges></Clock>\n"	Arrow Flanker 2014-12306-1	60.018	1.0.0.100	1	-1967885390	Professional	2.0.10.353	2.0.10.353	05-26-2015	5/26/2015 9:17:03 PM	17:17:03	2.0.10.248	4	1	1	1	NA	NA	NA	NA	NA	NA	NA	NA	NA	NA	NA	NA	NA	NA	NA	NA	NA	NA	NA	NA	NA	NA	NA	NA	BlockProc	BlockList	NA	42	{RIGHTARROW}	NA	-100	2264	neutral	NA	NA	NA	NA	NA	NA	NA	NA	NA	NA	NA	NA	NA	NA	NA	NA	NA	NA	NA	NA	NA	NA	TrialProc	TrialList	0	14	434220	16	0	16	432120	0	1	{RIGHTARROW}	-999999	0	433786	0	{RIGHTARROW}	420	434206	NA	NA	right	ooroo.bmp	354	0	NA	0	0	0	0	NA	0	0	0	NA	0	0	0	0	NA	0	0	6	1	42
Arrow Flanker 2014	12306	1	"<?xml version=""1.0""?>\n<Clock xmlns:dt=""urn:schemas-microsoft-com:datatypes""><Description dt:dt=""string"">E-Prime Primary Realtime Clock</Description><StartTime><Timestamp dt:dt=""int"">0</Timestamp><DateUtc dt:dt=""string"">2015-05-26T21:17:03Z</DateUtc></StartTime><FrequencyChanges><FrequencyChange><Frequency dt:dt=""r8"">2825664</Frequency><Timestamp dt:dt=""r8"">8867139025749</Timestamp><Current dt:dt=""r8"">0</Current><DateUtc dt:dt=""string"">2015-05-26T21:17:03Z</DateUtc></FrequencyChange></FrequencyChanges></Clock>\n"	Arrow Flanker 2014-12306-1	60.018	1.0.0.100	1	-1967885390	Professional	2.0.10.353	2.0.10.353	05-26-2015	5/26/2015 9:17:03 PM	17:17:03	2.0.10.248	4	1	1	1	NA	NA	NA	NA	NA	NA	NA	NA	NA	NA	NA	NA	NA	NA	NA	NA	NA	NA	NA	NA	NA	NA	NA	NA	BlockProc	BlockList	NA	43	{LEFTARROW}	NA	-100	1754	congruent	NA	NA	NA	NA	NA	NA	NA	NA	NA	NA	NA	NA	NA	NA	NA	NA	NA	NA	NA	NA	NA	NA	TrialProc	TrialList	0	3	436769	16	0	17	434753	0	1	{LEFTARROW}	-999999	0	436436	0	{LEFTARROW}	329	436765	NA	NA	left	lllll.bmp	354	0	NA	0	0	0	0	NA	0	0	0	NA	0	0	0	0	NA	0	0	1	1	43
Arrow Flanker 2014	12306	1	"<?xml version=""1.0""?>\n<Clock xmlns:dt=""urn:schemas-microsoft-com:datatypes""><Description dt:dt=""string"">E-Prime Primary Realtime Clock</Description><StartTime><Timestamp dt:dt=""int"">0</Timestamp><DateUtc dt:dt=""string"">2015-05-26T21:17:03Z</DateUtc></StartTime><FrequencyChanges><FrequencyChange><Frequency dt:dt=""r8"">2825664</Frequency><Timestamp dt:dt=""r8"">8867139025749</Timestamp><Current dt:dt=""r8"">0</Current><DateUtc dt:dt=""string"">2015-05-26T21:17:03Z</DateUtc></FrequencyChange></FrequencyChanges></Clock>\n"	Arrow Flanker 2014-12306-1	60.018	1.0.0.100	1	-1967885390	Professional	2.0.10.353	2.0.10.353	05-26-2015	5/26/2015 9:17:03 PM	17:17:03	2.0.10.248	4	1	1	1	NA	NA	NA	NA	NA	NA	NA	NA	NA	NA	NA	NA	NA	NA	NA	NA	NA	NA	NA	NA	NA	NA	NA	NA	BlockProc	BlockList	NA	44	{RIGHTARROW}	NA	-100	1651	neutral	NA	NA	NA	NA	NA	NA	NA	NA	NA	NA	NA	NA	NA	NA	NA	NA	NA	NA	NA	NA	NA	NA	TrialProc	TrialList	0	18	439135	16	0	17	437302	0	1	{RIGHTARROW}	-999999	0	438768	0	{RIGHTARROW}	349	439117	NA	NA	right	ooroo.bmp	354	0	NA	0	0	0	0	NA	0	0	0	NA	0	0	0	0	NA	0	0	6	1	44
Arrow Flanker 2014	12306	1	"<?xml version=""1.0""?>\n<Clock xmlns:dt=""urn:schemas-microsoft-com:datatypes""><Description dt:dt=""string"">E-Prime Primary Realtime Clock</Description><StartTime><Timestamp dt:dt=""int"">0</Timestamp><DateUtc dt:dt=""string"">2015-05-26T21:17:03Z</DateUtc></StartTime><FrequencyChanges><FrequencyChange><Frequency dt:dt=""r8"">2825664</Frequency><Timestamp dt:dt=""r8"">8867139025749</Timestamp><Current dt:dt=""r8"">0</Current><DateUtc dt:dt=""string"">2015-05-26T21:17:03Z</DateUtc></FrequencyChange></FrequencyChanges></Clock>\n"	Arrow Flanker 2014-12306-1	60.018	1.0.0.100	1	-1967885390	Professional	2.0.10.353	2.0.10.353	05-26-2015	5/26/2015 9:17:03 PM	17:17:03	2.0.10.248	4	1	1	1	NA	NA	NA	NA	NA	NA	NA	NA	NA	NA	NA	NA	NA	NA	NA	NA	NA	NA	NA	NA	NA	NA	NA	NA	BlockProc	BlockList	NA	45	{RIGHTARROW}	NA	-100	1563	congruent	NA	NA	NA	NA	NA	NA	NA	NA	NA	NA	NA	NA	NA	NA	NA	NA	NA	NA	NA	NA	NA	NA	TrialProc	TrialList	0	18	441551	16	0	17	439668	0	1	{RIGHTARROW}	-999999	-1	441067	0	{RIGHTARROW}	466	441533	NA	NA	right	rrrrr.bmp	354	0	NA	0	0	0	0	NA	0	0	0	NA	0	0	0	0	NA	0	0	2	1	45
Arrow Flanker 2014	12306	1	"<?xml version=""1.0""?>\n<Clock xmlns:dt=""urn:schemas-microsoft-com:datatypes""><Description dt:dt=""string"">E-Prime Primary Realtime Clock</Description><StartTime><Timestamp dt:dt=""int"">0</Timestamp><DateUtc dt:dt=""string"">2015-05-26T21:17:03Z</DateUtc></StartTime><FrequencyChanges><FrequencyChange><Frequency dt:dt=""r8"">2825664</Frequency><Timestamp dt:dt=""r8"">8867139025749</Timestamp><Current dt:dt=""r8"">0</Current><DateUtc dt:dt=""string"">2015-05-26T21:17:03Z</DateUtc></FrequencyChange></FrequencyChanges></Clock>\n"	Arrow Flanker 2014-12306-1	60.018	1.0.0.100	1	-1967885390	Professional	2.0.10.353	2.0.10.353	05-26-2015	5/26/2015 9:17:03 PM	17:17:03	2.0.10.248	4	1	1	1	NA	NA	NA	NA	NA	NA	NA	NA	NA	NA	NA	NA	NA	NA	NA	NA	NA	NA	NA	NA	NA	NA	NA	NA	BlockProc	BlockList	NA	46	{RIGHTARROW}	NA	-100	1785	incongruent	NA	NA	NA	NA	NA	NA	NA	NA	NA	NA	NA	NA	NA	NA	NA	NA	NA	NA	NA	NA	NA	NA	TrialProc	TrialList	0	7	444500	16	0	17	442084	0	1	{RIGHTARROW}	-999999	0	443883	0	{RIGHTARROW}	610	444493	NA	NA	right	llrll.bmp	354	0	NA	0	0	0	0	NA	0	0	0	NA	0	0	0	0	NA	0	0	4	1	46
Arrow Flanker 2014	12306	1	"<?xml version=""1.0""?>\n<Clock xmlns:dt=""urn:schemas-microsoft-com:datatypes""><Description dt:dt=""string"">E-Prime Primary Realtime Clock</Description><StartTime><Timestamp dt:dt=""int"">0</Timestamp><DateUtc dt:dt=""string"">2015-05-26T21:17:03Z</DateUtc></StartTime><FrequencyChanges><FrequencyChange><Frequency dt:dt=""r8"">2825664</Frequency><Timestamp dt:dt=""r8"">8867139025749</Timestamp><Current dt:dt=""r8"">0</Current><DateUtc dt:dt=""string"">2015-05-26T21:17:03Z</DateUtc></FrequencyChange></FrequencyChanges></Clock>\n"	Arrow Flanker 2014-12306-1	60.018	1.0.0.100	1	-1967885390	Professional	2.0.10.353	2.0.10.353	05-26-2015	5/26/2015 9:17:03 PM	17:17:03	2.0.10.248	4	1	1	1	NA	NA	NA	NA	NA	NA	NA	NA	NA	NA	NA	NA	NA	NA	NA	NA	NA	NA	NA	NA	NA	NA	NA	NA	BlockProc	BlockList	NA	47	{LEFTARROW}	NA	-100	2086	incongruent	NA	NA	NA	NA	NA	NA	NA	NA	NA	NA	NA	NA	NA	NA	NA	NA	NA	NA	NA	NA	NA	NA	TrialProc	TrialList	1	17	447582	17	0	17	445033	0	1	{LEFTARROW}	-999999	16	446999	0	{LEFTARROW}	566	447565	NA	NA	left	rrlrr.bmp	354	0	NA	0	0	0	0	NA	0	0	0	NA	0	0	0	0	NA	0	0	3	1	47
Arrow Flanker 2014	12306	1	"<?xml version=""1.0""?>\n<Clock xmlns:dt=""urn:schemas-microsoft-com:datatypes""><Description dt:dt=""string"">E-Prime Primary Realtime Clock</Description><StartTime><Timestamp dt:dt=""int"">0</Timestamp><DateUtc dt:dt=""string"">2015-05-26T21:17:03Z</DateUtc></StartTime><FrequencyChanges><FrequencyChange><Frequency dt:dt=""r8"">2825664</Frequency><Timestamp dt:dt=""r8"">8867139025749</Timestamp><Current dt:dt=""r8"">0</Current><DateUtc dt:dt=""string"">2015-05-26T21:17:03Z</DateUtc></FrequencyChange></FrequencyChanges></Clock>\n"	Arrow Flanker 2014-12306-1	60.018	1.0.0.100	1	-1967885390	Professional	2.0.10.353	2.0.10.353	05-26-2015	5/26/2015 9:17:03 PM	17:17:03	2.0.10.248	4	1	1	1	NA	NA	NA	NA	NA	NA	NA	NA	NA	NA	NA	NA	NA	NA	NA	NA	NA	NA	NA	NA	NA	NA	NA	NA	BlockProc	BlockList	NA	48	{RIGHTARROW}	NA	-100	965	congruent	NA	NA	NA	NA	NA	NA	NA	NA	NA	NA	NA	NA	NA	NA	NA	NA	NA	NA	NA	NA	NA	NA	TrialProc	TrialList	1	2	449615	17	0	16	448115	0	1	{RIGHTARROW}	-999999	0	449182	0	{RIGHTARROW}	431	449613	NA	NA	right	rrrrr.bmp	354	0	NA	0	0	0	0	NA	0	0	0	NA	0	0	0	0	NA	0	0	2	1	48
Arrow Flanker 2014	12306	1	"<?xml version=""1.0""?>\n<Clock xmlns:dt=""urn:schemas-microsoft-com:datatypes""><Description dt:dt=""string"">E-Prime Primary Realtime Clock</Description><StartTime><Timestamp dt:dt=""int"">0</Timestamp><DateUtc dt:dt=""string"">2015-05-26T21:17:03Z</DateUtc></StartTime><FrequencyChanges><FrequencyChange><Frequency dt:dt=""r8"">2825664</Frequency><Timestamp dt:dt=""r8"">8867139025749</Timestamp><Current dt:dt=""r8"">0</Current><DateUtc dt:dt=""string"">2015-05-26T21:17:03Z</DateUtc></FrequencyChange></FrequencyChanges></Clock>\n"	Arrow Flanker 2014-12306-1	60.018	1.0.0.100	1	-1967885390	Professional	2.0.10.353	2.0.10.353	05-26-2015	5/26/2015 9:17:03 PM	17:17:03	2.0.10.248	4	1	1	1	NA	NA	NA	NA	NA	NA	NA	NA	NA	NA	NA	NA	NA	NA	NA	NA	NA	NA	NA	NA	NA	NA	NA	NA	BlockProc	BlockList	NA	49	{LEFTARROW}	NA	-100	1415	congruent	NA	NA	NA	NA	NA	NA	NA	NA	NA	NA	NA	NA	NA	NA	NA	NA	NA	NA	NA	NA	NA	NA	TrialProc	TrialList	0	10	452231	16	0	16	450148	0	1	{LEFTARROW}	-999999	0	451781	0	{LEFTARROW}	440	452221	NA	NA	left	lllll.bmp	354	0	NA	0	0	0	0	NA	0	0	0	NA	0	0	0	0	NA	0	0	1	1	49
Arrow Flanker 2014	12306	1	"<?xml version=""1.0""?>\n<Clock xmlns:dt=""urn:schemas-microsoft-com:datatypes""><Description dt:dt=""string"">E-Prime Primary Realtime Clock</Description><StartTime><Timestamp dt:dt=""int"">0</Timestamp><DateUtc dt:dt=""string"">2015-05-26T21:17:03Z</DateUtc></StartTime><FrequencyChanges><FrequencyChange><Frequency dt:dt=""r8"">2825664</Frequency><Timestamp dt:dt=""r8"">8867139025749</Timestamp><Current dt:dt=""r8"">0</Current><DateUtc dt:dt=""string"">2015-05-26T21:17:03Z</DateUtc></FrequencyChange></FrequencyChanges></Clock>\n"	Arrow Flanker 2014-12306-1	60.018	1.0.0.100	1	-1967885390	Professional	2.0.10.353	2.0.10.353	05-26-2015	5/26/2015 9:17:03 PM	17:17:03	2.0.10.248	4	1	1	1	NA	NA	NA	NA	NA	NA	NA	NA	NA	NA	NA	NA	NA	NA	NA	NA	NA	NA	NA	NA	NA	NA	NA	NA	BlockProc	BlockList	NA	50	{RIGHTARROW}	NA	-100	2509	congruent	NA	NA	NA	NA	NA	NA	NA	NA	NA	NA	NA	NA	NA	NA	NA	NA	NA	NA	NA	NA	NA	NA	TrialProc	TrialList	0	9	454997	16	0	17	452764	0	1	{RIGHTARROW}	-999999	16	454630	0	{RIGHTARROW}	358	454988	NA	NA	right	rrrrr.bmp	354	0	NA	0	0	0	0	NA	0	0	0	NA	0	0	0	0	NA	0	0	2	1	50
Arrow Flanker 2014	12306	1	"<?xml version=""1.0""?>\n<Clock xmlns:dt=""urn:schemas-microsoft-com:datatypes""><Description dt:dt=""string"">E-Prime Primary Realtime Clock</Description><StartTime><Timestamp dt:dt=""int"">0</Timestamp><DateUtc dt:dt=""string"">2015-05-26T21:17:03Z</DateUtc></StartTime><FrequencyChanges><FrequencyChange><Frequency dt:dt=""r8"">2825664</Frequency><Timestamp dt:dt=""r8"">8867139025749</Timestamp><Current dt:dt=""r8"">0</Current><DateUtc dt:dt=""string"">2015-05-26T21:17:03Z</DateUtc></FrequencyChange></FrequencyChanges></Clock>\n"	Arrow Flanker 2014-12306-1	60.018	1.0.0.100	1	-1967885390	Professional	2.0.10.353	2.0.10.353	05-26-2015	5/26/2015 9:17:03 PM	17:17:03	2.0.10.248	4	1	1	1	NA	NA	NA	NA	NA	NA	NA	NA	NA	NA	NA	NA	NA	NA	NA	NA	NA	NA	NA	NA	NA	NA	NA	NA	BlockProc	BlockList	NA	51	{RIGHTARROW}	NA	-100	2159	incongruent	NA	NA	NA	NA	NA	NA	NA	NA	NA	NA	NA	NA	NA	NA	NA	NA	NA	NA	NA	NA	NA	NA	TrialProc	TrialList	0	6	457746	17	0	17	455530	0	0	{RIGHTARROW}	-999999	0	457279	0	{LEFTARROW}	461	457740	NA	NA	right	llrll.bmp	354	0	NA	0	0	0	0	NA	0	0	0	NA	0	0	0	0	NA	0	0	4	1	51
Arrow Flanker 2014	12306	1	"<?xml version=""1.0""?>\n<Clock xmlns:dt=""urn:schemas-microsoft-com:datatypes""><Description dt:dt=""string"">E-Prime Primary Realtime Clock</Description><StartTime><Timestamp dt:dt=""int"">0</Timestamp><DateUtc dt:dt=""string"">2015-05-26T21:17:03Z</DateUtc></StartTime><FrequencyChanges><FrequencyChange><Frequency dt:dt=""r8"">2825664</Frequency><Timestamp dt:dt=""r8"">8867139025749</Timestamp><Current dt:dt=""r8"">0</Current><DateUtc dt:dt=""string"">2015-05-26T21:17:03Z</DateUtc></FrequencyChange></FrequencyChanges></Clock>\n"	Arrow Flanker 2014-12306-1	60.018	1.0.0.100	1	-1967885390	Professional	2.0.10.353	2.0.10.353	05-26-2015	5/26/2015 9:17:03 PM	17:17:03	2.0.10.248	4	1	1	1	NA	NA	NA	NA	NA	NA	NA	NA	NA	NA	NA	NA	NA	NA	NA	NA	NA	NA	NA	NA	NA	NA	NA	NA	BlockProc	BlockList	NA	52	{LEFTARROW}	NA	-100	1034	incongruent	NA	NA	NA	NA	NA	NA	NA	NA	NA	NA	NA	NA	NA	NA	NA	NA	NA	NA	NA	NA	NA	NA	TrialProc	TrialList	0	13	459929	16	0	16	458279	0	1	{LEFTARROW}	-999999	16	459262	0	{LEFTARROW}	654	459916	NA	NA	left	rrlrr.bmp	354	0	NA	0	0	0	0	NA	0	0	0	NA	0	0	0	0	NA	0	0	3	1	52
Arrow Flanker 2014	12306	1	"<?xml version=""1.0""?>\n<Clock xmlns:dt=""urn:schemas-microsoft-com:datatypes""><Description dt:dt=""string"">E-Prime Primary Realtime Clock</Description><StartTime><Timestamp dt:dt=""int"">0</Timestamp><DateUtc dt:dt=""string"">2015-05-26T21:17:03Z</DateUtc></StartTime><FrequencyChanges><FrequencyChange><Frequency dt:dt=""r8"">2825664</Frequency><Timestamp dt:dt=""r8"">8867139025749</Timestamp><Current dt:dt=""r8"">0</Current><DateUtc dt:dt=""string"">2015-05-26T21:17:03Z</DateUtc></FrequencyChange></FrequencyChanges></Clock>\n"	Arrow Flanker 2014-12306-1	60.018	1.0.0.100	1	-1967885390	Professional	2.0.10.353	2.0.10.353	05-26-2015	5/26/2015 9:17:03 PM	17:17:03	2.0.10.248	4	1	1	1	NA	NA	NA	NA	NA	NA	NA	NA	NA	NA	NA	NA	NA	NA	NA	NA	NA	NA	NA	NA	NA	NA	NA	NA	BlockProc	BlockList	NA	53	{LEFTARROW}	NA	-100	1222	congruent	NA	NA	NA	NA	NA	NA	NA	NA	NA	NA	NA	NA	NA	NA	NA	NA	NA	NA	NA	NA	NA	NA	TrialProc	TrialList	0	11	462711	17	0	17	460462	0	1	{LEFTARROW}	-999999	0	462111	0	{LEFTARROW}	589	462700	NA	NA	left	lllll.bmp	354	0	NA	0	0	0	0	NA	0	0	0	NA	0	0	0	0	NA	0	0	1	1	53
Arrow Flanker 2014	12306	1	"<?xml version=""1.0""?>\n<Clock xmlns:dt=""urn:schemas-microsoft-com:datatypes""><Description dt:dt=""string"">E-Prime Primary Realtime Clock</Description><StartTime><Timestamp dt:dt=""int"">0</Timestamp><DateUtc dt:dt=""string"">2015-05-26T21:17:03Z</DateUtc></StartTime><FrequencyChanges><FrequencyChange><Frequency dt:dt=""r8"">2825664</Frequency><Timestamp dt:dt=""r8"">8867139025749</Timestamp><Current dt:dt=""r8"">0</Current><DateUtc dt:dt=""string"">2015-05-26T21:17:03Z</DateUtc></FrequencyChange></FrequencyChanges></Clock>\n"	Arrow Flanker 2014-12306-1	60.018	1.0.0.100	1	-1967885390	Professional	2.0.10.353	2.0.10.353	05-26-2015	5/26/2015 9:17:03 PM	17:17:03	2.0.10.248	4	1	1	1	NA	NA	NA	NA	NA	NA	NA	NA	NA	NA	NA	NA	NA	NA	NA	NA	NA	NA	NA	NA	NA	NA	NA	NA	BlockProc	BlockList	NA	54	{LEFTARROW}	NA	-100	2289	neutral	NA	NA	NA	NA	NA	NA	NA	NA	NA	NA	NA	NA	NA	NA	NA	NA	NA	NA	NA	NA	2	1	TrialProc	TrialList	0	17	465677	16	0	16	463244	0	1	{LEFTARROW}	-999999	0	465194	0	{LEFTARROW}	466	465660	NA	NA	left	ooloo.bmp	354	0	NA	-999999	17	466210	0	1	2090	468300	0	NA	-999999	9	468309	0	1	6366	474675	5	1	54
Arrow Flanker 2014	12306	1	"<?xml version=""1.0""?>\n<Clock xmlns:dt=""urn:schemas-microsoft-com:datatypes""><Description dt:dt=""string"">E-Prime Primary Realtime Clock</Description><StartTime><Timestamp dt:dt=""int"">0</Timestamp><DateUtc dt:dt=""string"">2015-05-26T21:17:03Z</DateUtc></StartTime><FrequencyChanges><FrequencyChange><Frequency dt:dt=""r8"">2825664</Frequency><Timestamp dt:dt=""r8"">8867139025749</Timestamp><Current dt:dt=""r8"">0</Current><DateUtc dt:dt=""string"">2015-05-26T21:17:03Z</DateUtc></FrequencyChange></FrequencyChanges></Clock>\n"	Arrow Flanker 2014-12306-1	60.018	1.0.0.100	1	-1967885390	Professional	2.0.10.353	2.0.10.353	05-26-2015	5/26/2015 9:17:03 PM	17:17:03	2.0.10.248	4	1	1	1	NA	NA	NA	NA	NA	NA	NA	NA	NA	NA	NA	NA	NA	NA	NA	NA	NA	NA	NA	NA	NA	NA	NA	NA	BlockProc	BlockList	NA	55	{LEFTARROW}	NA	-100	1474	congruent	NA	NA	NA	NA	NA	NA	NA	NA	NA	NA	NA	NA	NA	NA	NA	NA	NA	NA	NA	NA	NA	NA	TrialProc	TrialList	0	7	486721	16	0	8	484355	0	1	{LEFTARROW}	-999999	0	486154	0	{LEFTARROW}	560	486714	NA	NA	left	lllll.bmp	354	0	NA	0	0	0	0	NA	0	0	0	NA	0	0	0	0	NA	0	0	1	1	55
Arrow Flanker 2014	12306	1	"<?xml version=""1.0""?>\n<Clock xmlns:dt=""urn:schemas-microsoft-com:datatypes""><Description dt:dt=""string"">E-Prime Primary Realtime Clock</Description><StartTime><Timestamp dt:dt=""int"">0</Timestamp><DateUtc dt:dt=""string"">2015-05-26T21:17:03Z</DateUtc></StartTime><FrequencyChanges><FrequencyChange><Frequency dt:dt=""r8"">2825664</Frequency><Timestamp dt:dt=""r8"">8867139025749</Timestamp><Current dt:dt=""r8"">0</Current><DateUtc dt:dt=""string"">2015-05-26T21:17:03Z</DateUtc></FrequencyChange></FrequencyChanges></Clock>\n"	Arrow Flanker 2014-12306-1	60.018	1.0.0.100	1	-1967885390	Professional	2.0.10.353	2.0.10.353	05-26-2015	5/26/2015 9:17:03 PM	17:17:03	2.0.10.248	4	1	1	1	NA	NA	NA	NA	NA	NA	NA	NA	NA	NA	NA	NA	NA	NA	NA	NA	NA	NA	NA	NA	NA	NA	NA	NA	BlockProc	BlockList	NA	56	{RIGHTARROW}	NA	-100	1475	congruent	NA	NA	NA	NA	NA	NA	NA	NA	NA	NA	NA	NA	NA	NA	NA	NA	NA	NA	NA	NA	NA	NA	TrialProc	TrialList	0	18	489820	16	0	17	487254	0	1	{RIGHTARROW}	-999999	0	489220	0	{RIGHTARROW}	582	489802	NA	NA	right	rrrrr.bmp	354	0	NA	0	0	0	0	NA	0	0	0	NA	0	0	0	0	NA	0	0	2	1	56
Arrow Flanker 2014	12306	1	"<?xml version=""1.0""?>\n<Clock xmlns:dt=""urn:schemas-microsoft-com:datatypes""><Description dt:dt=""string"">E-Prime Primary Realtime Clock</Description><StartTime><Timestamp dt:dt=""int"">0</Timestamp><DateUtc dt:dt=""string"">2015-05-26T21:17:03Z</DateUtc></StartTime><FrequencyChanges><FrequencyChange><Frequency dt:dt=""r8"">2825664</Frequency><Timestamp dt:dt=""r8"">8867139025749</Timestamp><Current dt:dt=""r8"">0</Current><DateUtc dt:dt=""string"">2015-05-26T21:17:03Z</DateUtc></FrequencyChange></FrequencyChanges></Clock>\n"	Arrow Flanker 2014-12306-1	60.018	1.0.0.100	1	-1967885390	Professional	2.0.10.353	2.0.10.353	05-26-2015	5/26/2015 9:17:03 PM	17:17:03	2.0.10.248	4	1	1	1	NA	NA	NA	NA	NA	NA	NA	NA	NA	NA	NA	NA	NA	NA	NA	NA	NA	NA	NA	NA	NA	NA	NA	NA	BlockProc	BlockList	NA	57	{RIGHTARROW}	NA	-100	1524	incongruent	NA	NA	NA	NA	NA	NA	NA	NA	NA	NA	NA	NA	NA	NA	NA	NA	NA	NA	NA	NA	NA	NA	TrialProc	TrialList	1	9	492835	17	0	17	490353	0	1	{RIGHTARROW}	-999999	0	492252	0	{RIGHTARROW}	574	492826	NA	NA	right	llrll.bmp	354	0	NA	0	0	0	0	NA	0	0	0	NA	0	0	0	0	NA	0	0	4	1	57
Arrow Flanker 2014	12306	1	"<?xml version=""1.0""?>\n<Clock xmlns:dt=""urn:schemas-microsoft-com:datatypes""><Description dt:dt=""string"">E-Prime Primary Realtime Clock</Description><StartTime><Timestamp dt:dt=""int"">0</Timestamp><DateUtc dt:dt=""string"">2015-05-26T21:17:03Z</DateUtc></StartTime><FrequencyChanges><FrequencyChange><Frequency dt:dt=""r8"">2825664</Frequency><Timestamp dt:dt=""r8"">8867139025749</Timestamp><Current dt:dt=""r8"">0</Current><DateUtc dt:dt=""string"">2015-05-26T21:17:03Z</DateUtc></FrequencyChange></FrequencyChanges></Clock>\n"	Arrow Flanker 2014-12306-1	60.018	1.0.0.100	1	-1967885390	Professional	2.0.10.353	2.0.10.353	05-26-2015	5/26/2015 9:17:03 PM	17:17:03	2.0.10.248	4	1	1	1	NA	NA	NA	NA	NA	NA	NA	NA	NA	NA	NA	NA	NA	NA	NA	NA	NA	NA	NA	NA	NA	NA	NA	NA	BlockProc	BlockList	NA	58	{LEFTARROW}	NA	-100	1016	neutral	NA	NA	NA	NA	NA	NA	NA	NA	NA	NA	NA	NA	NA	NA	NA	NA	NA	NA	NA	NA	NA	NA	TrialProc	TrialList	1	13	495351	17	0	17	493369	0	1	{LEFTARROW}	-999999	0	494818	0	{LEFTARROW}	520	495338	NA	NA	left	ooloo.bmp	354	0	NA	0	0	0	0	NA	0	0	0	NA	0	0	0	0	NA	0	0	5	1	58
Arrow Flanker 2014	12306	1	"<?xml version=""1.0""?>\n<Clock xmlns:dt=""urn:schemas-microsoft-com:datatypes""><Description dt:dt=""string"">E-Prime Primary Realtime Clock</Description><StartTime><Timestamp dt:dt=""int"">0</Timestamp><DateUtc dt:dt=""string"">2015-05-26T21:17:03Z</DateUtc></StartTime><FrequencyChanges><FrequencyChange><Frequency dt:dt=""r8"">2825664</Frequency><Timestamp dt:dt=""r8"">8867139025749</Timestamp><Current dt:dt=""r8"">0</Current><DateUtc dt:dt=""string"">2015-05-26T21:17:03Z</DateUtc></FrequencyChange></FrequencyChanges></Clock>\n"	Arrow Flanker 2014-12306-1	60.018	1.0.0.100	1	-1967885390	Professional	2.0.10.353	2.0.10.353	05-26-2015	5/26/2015 9:17:03 PM	17:17:03	2.0.10.248	4	1	1	1	NA	NA	NA	NA	NA	NA	NA	NA	NA	NA	NA	NA	NA	NA	NA	NA	NA	NA	NA	NA	NA	NA	NA	NA	BlockProc	BlockList	NA	59	{LEFTARROW}	NA	-100	2475	congruent	NA	NA	NA	NA	NA	NA	NA	NA	NA	NA	NA	NA	NA	NA	NA	NA	NA	NA	NA	NA	NA	NA	TrialProc	TrialList	0	18	498284	16	0	16	495884	0	1	{LEFTARROW}	-999999	0	497817	0	{LEFTARROW}	449	498266	NA	NA	left	lllll.bmp	354	0	NA	0	0	0	0	NA	0	0	0	NA	0	0	0	0	NA	0	0	1	1	59
Arrow Flanker 2014	12306	1	"<?xml version=""1.0""?>\n<Clock xmlns:dt=""urn:schemas-microsoft-com:datatypes""><Description dt:dt=""string"">E-Prime Primary Realtime Clock</Description><StartTime><Timestamp dt:dt=""int"">0</Timestamp><DateUtc dt:dt=""string"">2015-05-26T21:17:03Z</DateUtc></StartTime><FrequencyChanges><FrequencyChange><Frequency dt:dt=""r8"">2825664</Frequency><Timestamp dt:dt=""r8"">8867139025749</Timestamp><Current dt:dt=""r8"">0</Current><DateUtc dt:dt=""string"">2015-05-26T21:17:03Z</DateUtc></FrequencyChange></FrequencyChanges></Clock>\n"	Arrow Flanker 2014-12306-1	60.018	1.0.0.100	1	-1967885390	Professional	2.0.10.353	2.0.10.353	05-26-2015	5/26/2015 9:17:03 PM	17:17:03	2.0.10.248	4	1	1	1	NA	NA	NA	NA	NA	NA	NA	NA	NA	NA	NA	NA	NA	NA	NA	NA	NA	NA	NA	NA	NA	NA	NA	NA	BlockProc	BlockList	NA	60	{RIGHTARROW}	NA	-100	1374	incongruent	NA	NA	NA	NA	NA	NA	NA	NA	NA	NA	NA	NA	NA	NA	NA	NA	NA	NA	NA	NA	NA	NA	TrialProc	TrialList	1	10	500516	17	0	17	498817	0	1	{RIGHTARROW}	-999999	0	499950	0	{RIGHTARROW}	556	500506	NA	NA	right	llrll.bmp	354	0	NA	0	0	0	0	NA	0	0	0	NA	0	0	0	0	NA	0	0	4	1	60
Arrow Flanker 2014	12306	1	"<?xml version=""1.0""?>\n<Clock xmlns:dt=""urn:schemas-microsoft-com:datatypes""><Description dt:dt=""string"">E-Prime Primary Realtime Clock</Description><StartTime><Timestamp dt:dt=""int"">0</Timestamp><DateUtc dt:dt=""string"">2015-05-26T21:17:03Z</DateUtc></StartTime><FrequencyChanges><FrequencyChange><Frequency dt:dt=""r8"">2825664</Frequency><Timestamp dt:dt=""r8"">8867139025749</Timestamp><Current dt:dt=""r8"">0</Current><DateUtc dt:dt=""string"">2015-05-26T21:17:03Z</DateUtc></FrequencyChange></FrequencyChanges></Clock>\n"	Arrow Flanker 2014-12306-1	60.018	1.0.0.100	1	-1967885390	Professional	2.0.10.353	2.0.10.353	05-26-2015	5/26/2015 9:17:03 PM	17:17:03	2.0.10.248	4	1	1	1	NA	NA	NA	NA	NA	NA	NA	NA	NA	NA	NA	NA	NA	NA	NA	NA	NA	NA	NA	NA	NA	NA	NA	NA	BlockProc	BlockList	NA	61	{RIGHTARROW}	NA	-100	1898	incongruent	NA	NA	NA	NA	NA	NA	NA	NA	NA	NA	NA	NA	NA	NA	NA	NA	NA	NA	NA	NA	NA	NA	TrialProc	TrialList	1	12	503765	17	0	17	501050	0	1	{RIGHTARROW}	-999999	0	503149	0	{RIGHTARROW}	604	503753	NA	NA	right	llrll.bmp	354	0	NA	0	0	0	0	NA	0	0	0	NA	0	0	0	0	NA	0	0	4	1	61
Arrow Flanker 2014	12306	1	"<?xml version=""1.0""?>\n<Clock xmlns:dt=""urn:schemas-microsoft-com:datatypes""><Description dt:dt=""string"">E-Prime Primary Realtime Clock</Description><StartTime><Timestamp dt:dt=""int"">0</Timestamp><DateUtc dt:dt=""string"">2015-05-26T21:17:03Z</DateUtc></StartTime><FrequencyChanges><FrequencyChange><Frequency dt:dt=""r8"">2825664</Frequency><Timestamp dt:dt=""r8"">8867139025749</Timestamp><Current dt:dt=""r8"">0</Current><DateUtc dt:dt=""string"">2015-05-26T21:17:03Z</DateUtc></FrequencyChange></FrequencyChanges></Clock>\n"	Arrow Flanker 2014-12306-1	60.018	1.0.0.100	1	-1967885390	Professional	2.0.10.353	2.0.10.353	05-26-2015	5/26/2015 9:17:03 PM	17:17:03	2.0.10.248	4	1	1	1	NA	NA	NA	NA	NA	NA	NA	NA	NA	NA	NA	NA	NA	NA	NA	NA	NA	NA	NA	NA	NA	NA	NA	NA	BlockProc	BlockList	NA	62	{RIGHTARROW}	NA	-100	1191	neutral	NA	NA	NA	NA	NA	NA	NA	NA	NA	NA	NA	NA	NA	NA	NA	NA	NA	NA	NA	NA	NA	NA	TrialProc	TrialList	1	14	506231	17	0	17	504299	0	1	{RIGHTARROW}	-999999	-1	505731	0	{RIGHTARROW}	486	506217	NA	NA	right	ooroo.bmp	354	0	NA	0	0	0	0	NA	0	0	0	NA	0	0	0	0	NA	0	0	6	1	62
Arrow Flanker 2014	12306	1	"<?xml version=""1.0""?>\n<Clock xmlns:dt=""urn:schemas-microsoft-com:datatypes""><Description dt:dt=""string"">E-Prime Primary Realtime Clock</Description><StartTime><Timestamp dt:dt=""int"">0</Timestamp><DateUtc dt:dt=""string"">2015-05-26T21:17:03Z</DateUtc></StartTime><FrequencyChanges><FrequencyChange><Frequency dt:dt=""r8"">2825664</Frequency><Timestamp dt:dt=""r8"">8867139025749</Timestamp><Current dt:dt=""r8"">0</Current><DateUtc dt:dt=""string"">2015-05-26T21:17:03Z</DateUtc></FrequencyChange></FrequencyChanges></Clock>\n"	Arrow Flanker 2014-12306-1	60.018	1.0.0.100	1	-1967885390	Professional	2.0.10.353	2.0.10.353	05-26-2015	5/26/2015 9:17:03 PM	17:17:03	2.0.10.248	4	1	1	1	NA	NA	NA	NA	NA	NA	NA	NA	NA	NA	NA	NA	NA	NA	NA	NA	NA	NA	NA	NA	NA	NA	NA	NA	BlockProc	BlockList	NA	63	{LEFTARROW}	NA	-100	1169	congruent	NA	NA	NA	NA	NA	NA	NA	NA	NA	NA	NA	NA	NA	NA	NA	NA	NA	NA	NA	NA	NA	NA	TrialProc	TrialList	0	10	508531	16	0	17	506765	0	1	{LEFTARROW}	-999999	0	507964	0	{LEFTARROW}	557	508521	NA	NA	left	lllll.bmp	354	0	NA	0	0	0	0	NA	0	0	0	NA	0	0	0	0	NA	0	0	1	1	63
Arrow Flanker 2014	12306	1	"<?xml version=""1.0""?>\n<Clock xmlns:dt=""urn:schemas-microsoft-com:datatypes""><Description dt:dt=""string"">E-Prime Primary Realtime Clock</Description><StartTime><Timestamp dt:dt=""int"">0</Timestamp><DateUtc dt:dt=""string"">2015-05-26T21:17:03Z</DateUtc></StartTime><FrequencyChanges><FrequencyChange><Frequency dt:dt=""r8"">2825664</Frequency><Timestamp dt:dt=""r8"">8867139025749</Timestamp><Current dt:dt=""r8"">0</Current><DateUtc dt:dt=""string"">2015-05-26T21:17:03Z</DateUtc></FrequencyChange></FrequencyChanges></Clock>\n"	Arrow Flanker 2014-12306-1	60.018	1.0.0.100	1	-1967885390	Professional	2.0.10.353	2.0.10.353	05-26-2015	5/26/2015 9:17:03 PM	17:17:03	2.0.10.248	4	1	1	1	NA	NA	NA	NA	NA	NA	NA	NA	NA	NA	NA	NA	NA	NA	NA	NA	NA	NA	NA	NA	NA	NA	NA	NA	BlockProc	BlockList	NA	64	{RIGHTARROW}	NA	-100	1745	neutral	NA	NA	NA	NA	NA	NA	NA	NA	NA	NA	NA	NA	NA	NA	NA	NA	NA	NA	NA	NA	NA	NA	TrialProc	TrialList	0	17	511130	17	0	17	509064	0	1	{RIGHTARROW}	-999999	0	510630	0	{RIGHTARROW}	483	511113	NA	NA	right	ooroo.bmp	354	0	NA	0	0	0	0	NA	0	0	0	NA	0	0	0	0	NA	0	0	6	1	64
Arrow Flanker 2014	12306	1	"<?xml version=""1.0""?>\n<Clock xmlns:dt=""urn:schemas-microsoft-com:datatypes""><Description dt:dt=""string"">E-Prime Primary Realtime Clock</Description><StartTime><Timestamp dt:dt=""int"">0</Timestamp><DateUtc dt:dt=""string"">2015-05-26T21:17:03Z</DateUtc></StartTime><FrequencyChanges><FrequencyChange><Frequency dt:dt=""r8"">2825664</Frequency><Timestamp dt:dt=""r8"">8867139025749</Timestamp><Current dt:dt=""r8"">0</Current><DateUtc dt:dt=""string"">2015-05-26T21:17:03Z</DateUtc></FrequencyChange></FrequencyChanges></Clock>\n"	Arrow Flanker 2014-12306-1	60.018	1.0.0.100	1	-1967885390	Professional	2.0.10.353	2.0.10.353	05-26-2015	5/26/2015 9:17:03 PM	17:17:03	2.0.10.248	4	1	1	1	NA	NA	NA	NA	NA	NA	NA	NA	NA	NA	NA	NA	NA	NA	NA	NA	NA	NA	NA	NA	NA	NA	NA	NA	BlockProc	BlockList	NA	65	{LEFTARROW}	NA	-100	2215	incongruent	NA	NA	NA	NA	NA	NA	NA	NA	NA	NA	NA	NA	NA	NA	NA	NA	NA	NA	NA	NA	NA	NA	TrialProc	TrialList	0	17	513946	16	0	16	511663	0	1	{LEFTARROW}	-999999	0	513363	0	{LEFTARROW}	566	513929	NA	NA	left	rrlrr.bmp	354	0	NA	0	0	0	0	NA	0	0	0	NA	0	0	0	0	NA	0	0	3	1	65
Arrow Flanker 2014	12306	1	"<?xml version=""1.0""?>\n<Clock xmlns:dt=""urn:schemas-microsoft-com:datatypes""><Description dt:dt=""string"">E-Prime Primary Realtime Clock</Description><StartTime><Timestamp dt:dt=""int"">0</Timestamp><DateUtc dt:dt=""string"">2015-05-26T21:17:03Z</DateUtc></StartTime><FrequencyChanges><FrequencyChange><Frequency dt:dt=""r8"">2825664</Frequency><Timestamp dt:dt=""r8"">8867139025749</Timestamp><Current dt:dt=""r8"">0</Current><DateUtc dt:dt=""string"">2015-05-26T21:17:03Z</DateUtc></FrequencyChange></FrequencyChanges></Clock>\n"	Arrow Flanker 2014-12306-1	60.018	1.0.0.100	1	-1967885390	Professional	2.0.10.353	2.0.10.353	05-26-2015	5/26/2015 9:17:03 PM	17:17:03	2.0.10.248	4	1	1	1	NA	NA	NA	NA	NA	NA	NA	NA	NA	NA	NA	NA	NA	NA	NA	NA	NA	NA	NA	NA	NA	NA	NA	NA	BlockProc	BlockList	NA	66	{LEFTARROW}	NA	-100	788	congruent	NA	NA	NA	NA	NA	NA	NA	NA	NA	NA	NA	NA	NA	NA	NA	NA	NA	NA	NA	NA	NA	NA	TrialProc	TrialList	0	17	515962	16	0	17	514479	0	1	{LEFTARROW}	-999999	0	515429	0	{LEFTARROW}	516	515945	NA	NA	left	lllll.bmp	354	0	NA	0	0	0	0	NA	0	0	0	NA	0	0	0	0	NA	0	0	1	1	66
