ExperimentName	Subject	Session	Clock.Information	DataFile.Basename	Display.RefreshRate	ExperimentVersion	Group	RandomSeed	RuntimeCapabilities	RuntimeVersion	RuntimeVersionExpected	SessionDate	SessionStartDateTimeUtc	SessionTime	StudioVersion	Block	BlockList	BlockList.Cycle	BlockList.Sample	Both	CompletelyMW	CongMeanRT	CongTotal	Fragmented	GoodByeList	GoodByeList.Cycle	GoodByeList.Sample	IncongMeanRT	IncongTotal	MapBlockList	MapBlockList.Cycle	MapBlockList.Sample	Mindwandering	MostlyMW	MostlyOT	NeutralMeanRT	NeutralTotal	NumberProbes1	NumberProbes2	OnTask	PracBlockList	PracBlockList.Cycle	PracBlockList.Sample	Procedure[Block]	Running[Block]	Sequential	Trial	CorrectAnswer	CuePositionY	CuePositionY2	DurationOfFixation	FlankerType	MapTrialList	MapTrialList.Cycle	MapTrialList.Sample	PracSlideFixationStart.DurationError	PracSlideFixationStart.OnsetDelay	PracSlideFixationStart.OnsetTime	PracSlideFixationStart.OnsetToOnsetTime	PracSlideTarget.ACC	PracSlideTarget.CRESP	PracSlideTarget.DurationError	PracSlideTarget.OnsetDelay	PracSlideTarget.OnsetTime	PracSlideTarget.OnsetToOnsetTime	PracSlideTarget.RESP	PracSlideTarget.RT	PracSlideTarget.RTTime	PracSlideTarget.Tag	PracTrialList	PracTrialList.Cycle	PracTrialList.Sample	Probe1Resp	Probe2Resp	Procedure[Trial]	Running[Trial]	SlideFixationEnd.DurationError	SlideFixationEnd.OnsetDelay	SlideFixationEnd.OnsetTime	SlideFixationEnd.OnsetToOnsetTime	SlideFixationStart.DurationError	SlideFixationStart.OnsetDelay	SlideFixationStart.OnsetTime	SlideFixationStart.OnsetToOnsetTime	SlideTarget.ACC	SlideTarget.CRESP	SlideTarget.DurationError	SlideTarget.OnsetDelay	SlideTarget.OnsetTime	SlideTarget.OnsetToOnsetTime	SlideTarget.RESP	SlideTarget.RT	SlideTarget.RTTime	SlideTarget.Tag	TargerDirection	TargetDirection	TargetImage	TargetPosition	ThoughtProbe1.ACC	ThoughtProbe1.CRESP	ThoughtProbe1.DurationError	ThoughtProbe1.OnsetDelay	ThoughtProbe1.OnsetTime	ThoughtProbe1.OnsetToOnsetTime	ThoughtProbe1.RESP	ThoughtProbe1.RT	ThoughtProbe1.RTTime	ThoughtProbe2.ACC	ThoughtProbe2.CRESP	ThoughtProbe2.DurationError	ThoughtProbe2.OnsetDelay	ThoughtProbe2.OnsetTime	ThoughtProbe2.OnsetToOnsetTime	ThoughtProbe2.RESP	ThoughtProbe2.RT	ThoughtProbe2.RTTime	TrialList	TrialList.Cycle	TrialList.Sample
Arrow Flanker 2014	12316	1	"<?xml version=""1.0""?>\n<Clock xmlns:dt=""urn:schemas-microsoft-com:datatypes""><Description dt:dt=""string"">E-Prime Primary Realtime Clock</Description><StartTime><Timestamp dt:dt=""int"">0</Timestamp><DateUtc dt:dt=""string"">2015-06-02T14:33:16Z</DateUtc></StartTime><FrequencyChanges><FrequencyChange><Frequency dt:dt=""r8"">2825664</Frequency><Timestamp dt:dt=""r8"">4653120899626</Timestamp><Current dt:dt=""r8"">0</Current><DateUtc dt:dt=""string"">2015-06-02T14:33:16Z</DateUtc></FrequencyChange></FrequencyChanges></Clock>\n"	Arrow Flanker 2014-12316-1	60.018	1.0.0.98	1	1671870363	Professional	2.0.10.353	2.0.10.353	06-02-2015	6/2/2015 2:33:17 PM	10:33:17	2.0.10.248	1	NA	NA	NA	NA	NA	NA	NA	NA	NA	NA	NA	NA	NA	1	1	1	NA	NA	NA	NA	NA	NA	NA	NA	NA	NA	NA	MapBlockProc	MapBlockList	NA	1	{LEFTARROW}	-100	NA	1198	NA	1	1	1	0	13	373083	1200	1	{LEFTARROW}	-999999	0	374783	0	{LEFTARROW}	1167	375950	NA	NA	NA	NA	NA	NA	MapTrialProc	MapTrialList	NA	NA	NA	NA	NA	NA	NA	NA	NA	NA	NA	NA	NA	NA	NA	NA	NA	NA	left	NA	L.bmp	354	NA	NA	NA	NA	NA	NA	NA	NA	NA	NA	NA	NA	NA	NA	NA	NA	NA	NA	NA	NA	NA
Arrow Flanker 2014	12316	1	"<?xml version=""1.0""?>\n<Clock xmlns:dt=""urn:schemas-microsoft-com:datatypes""><Description dt:dt=""string"">E-Prime Primary Realtime Clock</Description><StartTime><Timestamp dt:dt=""int"">0</Timestamp><DateUtc dt:dt=""string"">2015-06-02T14:33:16Z</DateUtc></StartTime><FrequencyChanges><FrequencyChange><Frequency dt:dt=""r8"">2825664</Frequency><Timestamp dt:dt=""r8"">4653120899626</Timestamp><Current dt:dt=""r8"">0</Current><DateUtc dt:dt=""string"">2015-06-02T14:33:16Z</DateUtc></FrequencyChange></FrequencyChanges></Clock>\n"	Arrow Flanker 2014-12316-1	60.018	1.0.0.98	1	1671870363	Professional	2.0.10.353	2.0.10.353	06-02-2015	6/2/2015 2:33:17 PM	10:33:17	2.0.10.248	1	NA	NA	NA	NA	NA	NA	NA	NA	NA	NA	NA	NA	NA	1	1	1	NA	NA	NA	NA	NA	NA	NA	NA	NA	NA	NA	MapBlockProc	MapBlockList	NA	2	{LEFTARROW}	-100	NA	1584	NA	1	1	2	0	16	377482	1600	1	{LEFTARROW}	-999999	-1	379581	0	{LEFTARROW}	665	380246	NA	NA	NA	NA	NA	NA	MapTrialProc	MapTrialList	NA	NA	NA	NA	NA	NA	NA	NA	NA	NA	NA	NA	NA	NA	NA	NA	NA	NA	left	NA	L.bmp	354	NA	NA	NA	NA	NA	NA	NA	NA	NA	NA	NA	NA	NA	NA	NA	NA	NA	NA	NA	NA	NA
Arrow Flanker 2014	12316	1	"<?xml version=""1.0""?>\n<Clock xmlns:dt=""urn:schemas-microsoft-com:datatypes""><Description dt:dt=""string"">E-Prime Primary Realtime Clock</Description><StartTime><Timestamp dt:dt=""int"">0</Timestamp><DateUtc dt:dt=""string"">2015-06-02T14:33:16Z</DateUtc></StartTime><FrequencyChanges><FrequencyChange><Frequency dt:dt=""r8"">2825664</Frequency><Timestamp dt:dt=""r8"">4653120899626</Timestamp><Current dt:dt=""r8"">0</Current><DateUtc dt:dt=""string"">2015-06-02T14:33:16Z</DateUtc></FrequencyChange></FrequencyChanges></Clock>\n"	Arrow Flanker 2014-12316-1	60.018	1.0.0.98	1	1671870363	Professional	2.0.10.353	2.0.10.353	06-02-2015	6/2/2015 2:33:17 PM	10:33:17	2.0.10.248	1	NA	NA	NA	NA	NA	NA	NA	NA	NA	NA	NA	NA	NA	1	1	1	NA	NA	NA	NA	NA	NA	NA	NA	NA	NA	NA	MapBlockProc	MapBlockList	NA	3	{RIGHTARROW}	-100	NA	1024	NA	2	1	3	0	16	381781	1033	1	{RIGHTARROW}	-999999	0	383314	0	{RIGHTARROW}	907	384221	NA	NA	NA	NA	NA	NA	MapTrialProc	MapTrialList	NA	NA	NA	NA	NA	NA	NA	NA	NA	NA	NA	NA	NA	NA	NA	NA	NA	NA	right	NA	R.bmp	354	NA	NA	NA	NA	NA	NA	NA	NA	NA	NA	NA	NA	NA	NA	NA	NA	NA	NA	NA	NA	NA
Arrow Flanker 2014	12316	1	"<?xml version=""1.0""?>\n<Clock xmlns:dt=""urn:schemas-microsoft-com:datatypes""><Description dt:dt=""string"">E-Prime Primary Realtime Clock</Description><StartTime><Timestamp dt:dt=""int"">0</Timestamp><DateUtc dt:dt=""string"">2015-06-02T14:33:16Z</DateUtc></StartTime><FrequencyChanges><FrequencyChange><Frequency dt:dt=""r8"">2825664</Frequency><Timestamp dt:dt=""r8"">4653120899626</Timestamp><Current dt:dt=""r8"">0</Current><DateUtc dt:dt=""string"">2015-06-02T14:33:16Z</DateUtc></FrequencyChange></FrequencyChanges></Clock>\n"	Arrow Flanker 2014-12316-1	60.018	1.0.0.98	1	1671870363	Professional	2.0.10.353	2.0.10.353	06-02-2015	6/2/2015 2:33:17 PM	10:33:17	2.0.10.248	1	NA	NA	NA	NA	NA	NA	NA	NA	NA	NA	NA	NA	NA	1	1	1	NA	NA	NA	NA	NA	NA	NA	NA	NA	NA	NA	MapBlockProc	MapBlockList	NA	4	{RIGHTARROW}	-100	NA	1091	NA	2	1	4	0	16	385763	1100	1	{RIGHTARROW}	-999999	16	387379	0	{RIGHTARROW}	674	388053	NA	NA	NA	NA	NA	NA	MapTrialProc	MapTrialList	NA	NA	NA	NA	NA	NA	NA	NA	NA	NA	NA	NA	NA	NA	NA	NA	NA	NA	right	NA	R.bmp	354	NA	NA	NA	NA	NA	NA	NA	NA	NA	NA	NA	NA	NA	NA	NA	NA	NA	NA	NA	NA	NA
Arrow Flanker 2014	12316	1	"<?xml version=""1.0""?>\n<Clock xmlns:dt=""urn:schemas-microsoft-com:datatypes""><Description dt:dt=""string"">E-Prime Primary Realtime Clock</Description><StartTime><Timestamp dt:dt=""int"">0</Timestamp><DateUtc dt:dt=""string"">2015-06-02T14:33:16Z</DateUtc></StartTime><FrequencyChanges><FrequencyChange><Frequency dt:dt=""r8"">2825664</Frequency><Timestamp dt:dt=""r8"">4653120899626</Timestamp><Current dt:dt=""r8"">0</Current><DateUtc dt:dt=""string"">2015-06-02T14:33:16Z</DateUtc></FrequencyChange></FrequencyChanges></Clock>\n"	Arrow Flanker 2014-12316-1	60.018	1.0.0.98	1	1671870363	Professional	2.0.10.353	2.0.10.353	06-02-2015	6/2/2015 2:33:17 PM	10:33:17	2.0.10.248	1	NA	NA	NA	NA	NA	NA	NA	NA	NA	NA	NA	NA	NA	1	1	1	NA	NA	NA	NA	NA	NA	NA	NA	NA	NA	NA	MapBlockProc	MapBlockList	NA	5	{LEFTARROW}	-100	NA	1194	NA	1	1	5	0	16	389595	1200	1	{LEFTARROW}	-999999	0	391295	0	{LEFTARROW}	694	391989	NA	NA	NA	NA	NA	NA	MapTrialProc	MapTrialList	NA	NA	NA	NA	NA	NA	NA	NA	NA	NA	NA	NA	NA	NA	NA	NA	NA	NA	left	NA	L.bmp	354	NA	NA	NA	NA	NA	NA	NA	NA	NA	NA	NA	NA	NA	NA	NA	NA	NA	NA	NA	NA	NA
Arrow Flanker 2014	12316	1	"<?xml version=""1.0""?>\n<Clock xmlns:dt=""urn:schemas-microsoft-com:datatypes""><Description dt:dt=""string"">E-Prime Primary Realtime Clock</Description><StartTime><Timestamp dt:dt=""int"">0</Timestamp><DateUtc dt:dt=""string"">2015-06-02T14:33:16Z</DateUtc></StartTime><FrequencyChanges><FrequencyChange><Frequency dt:dt=""r8"">2825664</Frequency><Timestamp dt:dt=""r8"">4653120899626</Timestamp><Current dt:dt=""r8"">0</Current><DateUtc dt:dt=""string"">2015-06-02T14:33:16Z</DateUtc></FrequencyChange></FrequencyChanges></Clock>\n"	Arrow Flanker 2014-12316-1	60.018	1.0.0.98	1	1671870363	Professional	2.0.10.353	2.0.10.353	06-02-2015	6/2/2015 2:33:17 PM	10:33:17	2.0.10.248	1	NA	NA	NA	NA	NA	NA	NA	NA	NA	NA	NA	NA	NA	1	1	1	NA	NA	NA	NA	NA	NA	NA	NA	NA	NA	NA	MapBlockProc	MapBlockList	NA	6	{RIGHTARROW}	-100	NA	1287	NA	2	1	6	0	16	393527	1300	1	{RIGHTARROW}	-999999	0	395327	0	{RIGHTARROW}	790	396117	NA	NA	NA	NA	NA	NA	MapTrialProc	MapTrialList	NA	NA	NA	NA	NA	NA	NA	NA	NA	NA	NA	NA	NA	NA	NA	NA	NA	NA	right	NA	R.bmp	354	NA	NA	NA	NA	NA	NA	NA	NA	NA	NA	NA	NA	NA	NA	NA	NA	NA	NA	NA	NA	NA
Arrow Flanker 2014	12316	1	"<?xml version=""1.0""?>\n<Clock xmlns:dt=""urn:schemas-microsoft-com:datatypes""><Description dt:dt=""string"">E-Prime Primary Realtime Clock</Description><StartTime><Timestamp dt:dt=""int"">0</Timestamp><DateUtc dt:dt=""string"">2015-06-02T14:33:16Z</DateUtc></StartTime><FrequencyChanges><FrequencyChange><Frequency dt:dt=""r8"">2825664</Frequency><Timestamp dt:dt=""r8"">4653120899626</Timestamp><Current dt:dt=""r8"">0</Current><DateUtc dt:dt=""string"">2015-06-02T14:33:16Z</DateUtc></FrequencyChange></FrequencyChanges></Clock>\n"	Arrow Flanker 2014-12316-1	60.018	1.0.0.98	1	1671870363	Professional	2.0.10.353	2.0.10.353	06-02-2015	6/2/2015 2:33:17 PM	10:33:17	2.0.10.248	1	NA	NA	NA	NA	NA	NA	NA	NA	NA	NA	NA	NA	NA	1	1	1	NA	NA	NA	NA	NA	NA	NA	NA	NA	NA	NA	MapBlockProc	MapBlockList	NA	7	{LEFTARROW}	-100	NA	450	NA	1	1	7	0	16	397643	450	1	{LEFTARROW}	-999999	0	398592	0	{LEFTARROW}	1116	399708	NA	NA	NA	NA	NA	NA	MapTrialProc	MapTrialList	NA	NA	NA	NA	NA	NA	NA	NA	NA	NA	NA	NA	NA	NA	NA	NA	NA	NA	left	NA	L.bmp	354	NA	NA	NA	NA	NA	NA	NA	NA	NA	NA	NA	NA	NA	NA	NA	NA	NA	NA	NA	NA	NA
Arrow Flanker 2014	12316	1	"<?xml version=""1.0""?>\n<Clock xmlns:dt=""urn:schemas-microsoft-com:datatypes""><Description dt:dt=""string"">E-Prime Primary Realtime Clock</Description><StartTime><Timestamp dt:dt=""int"">0</Timestamp><DateUtc dt:dt=""string"">2015-06-02T14:33:16Z</DateUtc></StartTime><FrequencyChanges><FrequencyChange><Frequency dt:dt=""r8"">2825664</Frequency><Timestamp dt:dt=""r8"">4653120899626</Timestamp><Current dt:dt=""r8"">0</Current><DateUtc dt:dt=""string"">2015-06-02T14:33:16Z</DateUtc></FrequencyChange></FrequencyChanges></Clock>\n"	Arrow Flanker 2014-12316-1	60.018	1.0.0.98	1	1671870363	Professional	2.0.10.353	2.0.10.353	06-02-2015	6/2/2015 2:33:17 PM	10:33:17	2.0.10.248	1	NA	NA	NA	NA	NA	NA	NA	NA	NA	NA	NA	NA	NA	1	1	1	NA	NA	NA	NA	NA	NA	NA	NA	NA	NA	NA	MapBlockProc	MapBlockList	NA	8	{RIGHTARROW}	-100	NA	877	NA	2	1	8	0	17	401242	883	1	{RIGHTARROW}	-999999	0	402625	0	{RIGHTARROW}	539	403164	NA	NA	NA	NA	NA	NA	MapTrialProc	MapTrialList	NA	NA	NA	NA	NA	NA	NA	NA	NA	NA	NA	NA	NA	NA	NA	NA	NA	NA	right	NA	R.bmp	354	NA	NA	NA	NA	NA	NA	NA	NA	NA	NA	NA	NA	NA	NA	NA	NA	NA	NA	NA	NA	NA
Arrow Flanker 2014	12316	1	"<?xml version=""1.0""?>\n<Clock xmlns:dt=""urn:schemas-microsoft-com:datatypes""><Description dt:dt=""string"">E-Prime Primary Realtime Clock</Description><StartTime><Timestamp dt:dt=""int"">0</Timestamp><DateUtc dt:dt=""string"">2015-06-02T14:33:16Z</DateUtc></StartTime><FrequencyChanges><FrequencyChange><Frequency dt:dt=""r8"">2825664</Frequency><Timestamp dt:dt=""r8"">4653120899626</Timestamp><Current dt:dt=""r8"">0</Current><DateUtc dt:dt=""string"">2015-06-02T14:33:16Z</DateUtc></FrequencyChange></FrequencyChanges></Clock>\n"	Arrow Flanker 2014-12316-1	60.018	1.0.0.98	1	1671870363	Professional	2.0.10.353	2.0.10.353	06-02-2015	6/2/2015 2:33:17 PM	10:33:17	2.0.10.248	1	NA	NA	NA	NA	NA	NA	NA	NA	NA	NA	NA	NA	NA	1	1	1	NA	NA	NA	NA	NA	NA	NA	NA	NA	NA	NA	MapBlockProc	MapBlockList	NA	9	{LEFTARROW}	-100	NA	489	NA	1	1	9	0	17	404691	499	1	{LEFTARROW}	-999999	0	405690	0	{LEFTARROW}	634	406324	NA	NA	NA	NA	NA	NA	MapTrialProc	MapTrialList	NA	NA	NA	NA	NA	NA	NA	NA	NA	NA	NA	NA	NA	NA	NA	NA	NA	NA	left	NA	L.bmp	354	NA	NA	NA	NA	NA	NA	NA	NA	NA	NA	NA	NA	NA	NA	NA	NA	NA	NA	NA	NA	NA
Arrow Flanker 2014	12316	1	"<?xml version=""1.0""?>\n<Clock xmlns:dt=""urn:schemas-microsoft-com:datatypes""><Description dt:dt=""string"">E-Prime Primary Realtime Clock</Description><StartTime><Timestamp dt:dt=""int"">0</Timestamp><DateUtc dt:dt=""string"">2015-06-02T14:33:16Z</DateUtc></StartTime><FrequencyChanges><FrequencyChange><Frequency dt:dt=""r8"">2825664</Frequency><Timestamp dt:dt=""r8"">4653120899626</Timestamp><Current dt:dt=""r8"">0</Current><DateUtc dt:dt=""string"">2015-06-02T14:33:16Z</DateUtc></FrequencyChange></FrequencyChanges></Clock>\n"	Arrow Flanker 2014-12316-1	60.018	1.0.0.98	1	1671870363	Professional	2.0.10.353	2.0.10.353	06-02-2015	6/2/2015 2:33:17 PM	10:33:17	2.0.10.248	1	NA	NA	NA	NA	NA	NA	NA	NA	NA	NA	NA	NA	NA	1	1	1	NA	NA	NA	NA	NA	NA	NA	NA	NA	NA	NA	MapBlockProc	MapBlockList	NA	10	{RIGHTARROW}	-100	NA	1550	NA	2	1	10	0	16	407856	1550	1	{RIGHTARROW}	-999999	0	409906	0	{RIGHTARROW}	418	410324	NA	NA	NA	NA	NA	NA	MapTrialProc	MapTrialList	NA	NA	NA	NA	NA	NA	NA	NA	NA	NA	NA	NA	NA	NA	NA	NA	NA	NA	right	NA	R.bmp	354	NA	NA	NA	NA	NA	NA	NA	NA	NA	NA	NA	NA	NA	NA	NA	NA	NA	NA	NA	NA	NA
Arrow Flanker 2014	12316	1	"<?xml version=""1.0""?>\n<Clock xmlns:dt=""urn:schemas-microsoft-com:datatypes""><Description dt:dt=""string"">E-Prime Primary Realtime Clock</Description><StartTime><Timestamp dt:dt=""int"">0</Timestamp><DateUtc dt:dt=""string"">2015-06-02T14:33:16Z</DateUtc></StartTime><FrequencyChanges><FrequencyChange><Frequency dt:dt=""r8"">2825664</Frequency><Timestamp dt:dt=""r8"">4653120899626</Timestamp><Current dt:dt=""r8"">0</Current><DateUtc dt:dt=""string"">2015-06-02T14:33:16Z</DateUtc></FrequencyChange></FrequencyChanges></Clock>\n"	Arrow Flanker 2014-12316-1	60.018	1.0.0.98	1	1671870363	Professional	2.0.10.353	2.0.10.353	06-02-2015	6/2/2015 2:33:17 PM	10:33:17	2.0.10.248	2	NA	NA	NA	NA	NA	NA	NA	NA	NA	NA	NA	NA	NA	NA	NA	NA	NA	NA	NA	NA	NA	NA	NA	NA	1	1	1	PracBlockProc	PracBlockList	NA	1	{LEFTARROW}	-100	NA	1048	incongruent	NA	NA	NA	0	7	432082	1050	1	{LEFTARROW}	-999999	0	433632	0	{LEFTARROW}	1058	434690	NA	2	1	1	NA	NA	PracTrialProc	PracTrialList	NA	NA	NA	NA	NA	NA	NA	NA	NA	NA	NA	NA	NA	NA	NA	NA	NA	NA	left	NA	rrlrr.bmp	354	NA	NA	NA	NA	NA	NA	NA	NA	NA	NA	NA	NA	NA	NA	NA	NA	NA	NA	NA	NA	NA
Arrow Flanker 2014	12316	1	"<?xml version=""1.0""?>\n<Clock xmlns:dt=""urn:schemas-microsoft-com:datatypes""><Description dt:dt=""string"">E-Prime Primary Realtime Clock</Description><StartTime><Timestamp dt:dt=""int"">0</Timestamp><DateUtc dt:dt=""string"">2015-06-02T14:33:16Z</DateUtc></StartTime><FrequencyChanges><FrequencyChange><Frequency dt:dt=""r8"">2825664</Frequency><Timestamp dt:dt=""r8"">4653120899626</Timestamp><Current dt:dt=""r8"">0</Current><DateUtc dt:dt=""string"">2015-06-02T14:33:16Z</DateUtc></FrequencyChange></FrequencyChanges></Clock>\n"	Arrow Flanker 2014-12316-1	60.018	1.0.0.98	1	1671870363	Professional	2.0.10.353	2.0.10.353	06-02-2015	6/2/2015 2:33:17 PM	10:33:17	2.0.10.248	2	NA	NA	NA	NA	NA	NA	NA	NA	NA	NA	NA	NA	NA	NA	NA	NA	NA	NA	NA	NA	NA	NA	NA	NA	1	1	1	PracBlockProc	PracBlockList	NA	2	{LEFTARROW}	-100	NA	1286	neutral	NA	NA	NA	0	16	436231	1300	1	{LEFTARROW}	-999999	0	438031	0	{LEFTARROW}	867	438898	NA	3	1	2	NA	NA	PracTrialProc	PracTrialList	NA	NA	NA	NA	NA	NA	NA	NA	NA	NA	NA	NA	NA	NA	NA	NA	NA	NA	left	NA	ooloo.bmp	354	NA	NA	NA	NA	NA	NA	NA	NA	NA	NA	NA	NA	NA	NA	NA	NA	NA	NA	NA	NA	NA
Arrow Flanker 2014	12316	1	"<?xml version=""1.0""?>\n<Clock xmlns:dt=""urn:schemas-microsoft-com:datatypes""><Description dt:dt=""string"">E-Prime Primary Realtime Clock</Description><StartTime><Timestamp dt:dt=""int"">0</Timestamp><DateUtc dt:dt=""string"">2015-06-02T14:33:16Z</DateUtc></StartTime><FrequencyChanges><FrequencyChange><Frequency dt:dt=""r8"">2825664</Frequency><Timestamp dt:dt=""r8"">4653120899626</Timestamp><Current dt:dt=""r8"">0</Current><DateUtc dt:dt=""string"">2015-06-02T14:33:16Z</DateUtc></FrequencyChange></FrequencyChanges></Clock>\n"	Arrow Flanker 2014-12316-1	60.018	1.0.0.98	1	1671870363	Professional	2.0.10.353	2.0.10.353	06-02-2015	6/2/2015 2:33:17 PM	10:33:17	2.0.10.248	2	NA	NA	NA	NA	NA	NA	NA	NA	NA	NA	NA	NA	NA	NA	NA	NA	NA	NA	NA	NA	NA	NA	NA	NA	1	1	1	PracBlockProc	PracBlockList	NA	3	{RIGHTARROW}	-100	NA	895	neutral	NA	NA	NA	0	16	440430	900	1	{RIGHTARROW}	-999999	16	441846	0	{RIGHTARROW}	924	442770	NA	6	1	3	NA	NA	PracTrialProc	PracTrialList	NA	NA	NA	NA	NA	NA	NA	NA	NA	NA	NA	NA	NA	NA	NA	NA	NA	NA	right	NA	ooroo.bmp	354	NA	NA	NA	NA	NA	NA	NA	NA	NA	NA	NA	NA	NA	NA	NA	NA	NA	NA	NA	NA	NA
Arrow Flanker 2014	12316	1	"<?xml version=""1.0""?>\n<Clock xmlns:dt=""urn:schemas-microsoft-com:datatypes""><Description dt:dt=""string"">E-Prime Primary Realtime Clock</Description><StartTime><Timestamp dt:dt=""int"">0</Timestamp><DateUtc dt:dt=""string"">2015-06-02T14:33:16Z</DateUtc></StartTime><FrequencyChanges><FrequencyChange><Frequency dt:dt=""r8"">2825664</Frequency><Timestamp dt:dt=""r8"">4653120899626</Timestamp><Current dt:dt=""r8"">0</Current><DateUtc dt:dt=""string"">2015-06-02T14:33:16Z</DateUtc></FrequencyChange></FrequencyChanges></Clock>\n"	Arrow Flanker 2014-12316-1	60.018	1.0.0.98	1	1671870363	Professional	2.0.10.353	2.0.10.353	06-02-2015	6/2/2015 2:33:17 PM	10:33:17	2.0.10.248	2	NA	NA	NA	NA	NA	NA	NA	NA	NA	NA	NA	NA	NA	NA	NA	NA	NA	NA	NA	NA	NA	NA	NA	NA	1	1	1	PracBlockProc	PracBlockList	NA	4	{RIGHTARROW}	-100	NA	1380	incongruent	NA	NA	NA	0	16	444312	1383	1	{RIGHTARROW}	-999999	0	446195	0	{RIGHTARROW}	806	447001	NA	5	1	4	NA	NA	PracTrialProc	PracTrialList	NA	NA	NA	NA	NA	NA	NA	NA	NA	NA	NA	NA	NA	NA	NA	NA	NA	NA	right	NA	llrll.bmp	354	NA	NA	NA	NA	NA	NA	NA	NA	NA	NA	NA	NA	NA	NA	NA	NA	NA	NA	NA	NA	NA
Arrow Flanker 2014	12316	1	"<?xml version=""1.0""?>\n<Clock xmlns:dt=""urn:schemas-microsoft-com:datatypes""><Description dt:dt=""string"">E-Prime Primary Realtime Clock</Description><StartTime><Timestamp dt:dt=""int"">0</Timestamp><DateUtc dt:dt=""string"">2015-06-02T14:33:16Z</DateUtc></StartTime><FrequencyChanges><FrequencyChange><Frequency dt:dt=""r8"">2825664</Frequency><Timestamp dt:dt=""r8"">4653120899626</Timestamp><Current dt:dt=""r8"">0</Current><DateUtc dt:dt=""string"">2015-06-02T14:33:16Z</DateUtc></FrequencyChange></FrequencyChanges></Clock>\n"	Arrow Flanker 2014-12316-1	60.018	1.0.0.98	1	1671870363	Professional	2.0.10.353	2.0.10.353	06-02-2015	6/2/2015 2:33:17 PM	10:33:17	2.0.10.248	2	NA	NA	NA	NA	NA	NA	NA	NA	NA	NA	NA	NA	NA	NA	NA	NA	NA	NA	NA	NA	NA	NA	NA	NA	1	1	1	PracBlockProc	PracBlockList	NA	5	{RIGHTARROW}	-100	NA	998	congruent	NA	NA	NA	0	16	448528	999	1	{RIGHTARROW}	-999999	0	450027	0	{RIGHTARROW}	870	450897	NA	4	1	5	NA	NA	PracTrialProc	PracTrialList	NA	NA	NA	NA	NA	NA	NA	NA	NA	NA	NA	NA	NA	NA	NA	NA	NA	NA	right	NA	rrrrr.bmp	354	NA	NA	NA	NA	NA	NA	NA	NA	NA	NA	NA	NA	NA	NA	NA	NA	NA	NA	NA	NA	NA
Arrow Flanker 2014	12316	1	"<?xml version=""1.0""?>\n<Clock xmlns:dt=""urn:schemas-microsoft-com:datatypes""><Description dt:dt=""string"">E-Prime Primary Realtime Clock</Description><StartTime><Timestamp dt:dt=""int"">0</Timestamp><DateUtc dt:dt=""string"">2015-06-02T14:33:16Z</DateUtc></StartTime><FrequencyChanges><FrequencyChange><Frequency dt:dt=""r8"">2825664</Frequency><Timestamp dt:dt=""r8"">4653120899626</Timestamp><Current dt:dt=""r8"">0</Current><DateUtc dt:dt=""string"">2015-06-02T14:33:16Z</DateUtc></FrequencyChange></FrequencyChanges></Clock>\n"	Arrow Flanker 2014-12316-1	60.018	1.0.0.98	1	1671870363	Professional	2.0.10.353	2.0.10.353	06-02-2015	6/2/2015 2:33:17 PM	10:33:17	2.0.10.248	2	NA	NA	NA	NA	NA	NA	NA	NA	NA	NA	NA	NA	NA	NA	NA	NA	NA	NA	NA	NA	NA	NA	NA	NA	1	1	1	PracBlockProc	PracBlockList	NA	6	{LEFTARROW}	-100	NA	1593	congruent	NA	NA	NA	0	16	452426	1600	1	{LEFTARROW}	-999999	0	454526	0	{LEFTARROW}	627	455153	NA	1	1	6	NA	NA	PracTrialProc	PracTrialList	NA	NA	NA	NA	NA	NA	NA	NA	NA	NA	NA	NA	NA	NA	NA	NA	NA	NA	left	NA	lllll.bmp	354	NA	NA	NA	NA	NA	NA	NA	NA	NA	NA	NA	NA	NA	NA	NA	NA	NA	NA	NA	NA	NA
Arrow Flanker 2014	12316	1	"<?xml version=""1.0""?>\n<Clock xmlns:dt=""urn:schemas-microsoft-com:datatypes""><Description dt:dt=""string"">E-Prime Primary Realtime Clock</Description><StartTime><Timestamp dt:dt=""int"">0</Timestamp><DateUtc dt:dt=""string"">2015-06-02T14:33:16Z</DateUtc></StartTime><FrequencyChanges><FrequencyChange><Frequency dt:dt=""r8"">2825664</Frequency><Timestamp dt:dt=""r8"">4653120899626</Timestamp><Current dt:dt=""r8"">0</Current><DateUtc dt:dt=""string"">2015-06-02T14:33:16Z</DateUtc></FrequencyChange></FrequencyChanges></Clock>\n"	Arrow Flanker 2014-12316-1	60.018	1.0.0.98	1	1671870363	Professional	2.0.10.353	2.0.10.353	06-02-2015	6/2/2015 2:33:17 PM	10:33:17	2.0.10.248	3	1	1	1	NA	NA	NA	NA	NA	NA	NA	NA	NA	NA	NA	NA	NA	NA	NA	NA	NA	NA	NA	NA	NA	NA	NA	NA	BlockProc	BlockList	NA	1	{LEFTARROW}	NA	-100	2014	neutral	NA	NA	NA	NA	NA	NA	NA	NA	NA	NA	NA	NA	NA	NA	NA	NA	NA	NA	NA	NA	NA	NA	TrialProc	TrialList	0	9	472537	17	0	17	470288	1233	1	{LEFTARROW}	-999999	-1	472020	0	{LEFTARROW}	508	472528	NA	NA	left	ooloo.bmp	354	0	NA	0	0	0	0	NA	0	0	0	NA	0	0	0	0	NA	0	0	5	1	1
Arrow Flanker 2014	12316	1	"<?xml version=""1.0""?>\n<Clock xmlns:dt=""urn:schemas-microsoft-com:datatypes""><Description dt:dt=""string"">E-Prime Primary Realtime Clock</Description><StartTime><Timestamp dt:dt=""int"">0</Timestamp><DateUtc dt:dt=""string"">2015-06-02T14:33:16Z</DateUtc></StartTime><FrequencyChanges><FrequencyChange><Frequency dt:dt=""r8"">2825664</Frequency><Timestamp dt:dt=""r8"">4653120899626</Timestamp><Current dt:dt=""r8"">0</Current><DateUtc dt:dt=""string"">2015-06-02T14:33:16Z</DateUtc></FrequencyChange></FrequencyChanges></Clock>\n"	Arrow Flanker 2014-12316-1	60.018	1.0.0.98	1	1671870363	Professional	2.0.10.353	2.0.10.353	06-02-2015	6/2/2015 2:33:17 PM	10:33:17	2.0.10.248	3	1	1	1	NA	NA	NA	NA	NA	NA	NA	NA	NA	NA	NA	NA	NA	NA	NA	NA	NA	NA	NA	NA	NA	NA	NA	NA	BlockProc	BlockList	NA	2	{LEFTARROW}	NA	-100	1451	congruent	NA	NA	NA	NA	NA	NA	NA	NA	NA	NA	NA	NA	NA	NA	NA	NA	NA	NA	NA	NA	NA	NA	TrialProc	TrialList	1	8	474936	17	0	16	473070	600	1	{LEFTARROW}	-999999	0	474170	0	{LEFTARROW}	758	474928	NA	NA	left	lllll.bmp	354	0	NA	0	0	0	0	NA	0	0	0	NA	0	0	0	0	NA	0	0	1	1	2
Arrow Flanker 2014	12316	1	"<?xml version=""1.0""?>\n<Clock xmlns:dt=""urn:schemas-microsoft-com:datatypes""><Description dt:dt=""string"">E-Prime Primary Realtime Clock</Description><StartTime><Timestamp dt:dt=""int"">0</Timestamp><DateUtc dt:dt=""string"">2015-06-02T14:33:16Z</DateUtc></StartTime><FrequencyChanges><FrequencyChange><Frequency dt:dt=""r8"">2825664</Frequency><Timestamp dt:dt=""r8"">4653120899626</Timestamp><Current dt:dt=""r8"">0</Current><DateUtc dt:dt=""string"">2015-06-02T14:33:16Z</DateUtc></FrequencyChange></FrequencyChanges></Clock>\n"	Arrow Flanker 2014-12316-1	60.018	1.0.0.98	1	1671870363	Professional	2.0.10.353	2.0.10.353	06-02-2015	6/2/2015 2:33:17 PM	10:33:17	2.0.10.248	3	1	1	1	NA	NA	NA	NA	NA	NA	NA	NA	NA	NA	NA	NA	NA	NA	NA	NA	NA	NA	NA	NA	NA	NA	NA	NA	BlockProc	BlockList	NA	3	{RIGHTARROW}	NA	-100	1509	incongruent	NA	NA	NA	NA	NA	NA	NA	NA	NA	NA	NA	NA	NA	NA	NA	NA	NA	NA	NA	NA	NA	NA	TrialProc	TrialList	0	17	477769	16	0	16	475469	1167	1	{RIGHTARROW}	-999999	0	477136	0	{RIGHTARROW}	616	477752	NA	NA	right	llrll.bmp	354	0	NA	0	0	0	0	NA	0	0	0	NA	0	0	0	0	NA	0	0	4	1	3
Arrow Flanker 2014	12316	1	"<?xml version=""1.0""?>\n<Clock xmlns:dt=""urn:schemas-microsoft-com:datatypes""><Description dt:dt=""string"">E-Prime Primary Realtime Clock</Description><StartTime><Timestamp dt:dt=""int"">0</Timestamp><DateUtc dt:dt=""string"">2015-06-02T14:33:16Z</DateUtc></StartTime><FrequencyChanges><FrequencyChange><Frequency dt:dt=""r8"">2825664</Frequency><Timestamp dt:dt=""r8"">4653120899626</Timestamp><Current dt:dt=""r8"">0</Current><DateUtc dt:dt=""string"">2015-06-02T14:33:16Z</DateUtc></FrequencyChange></FrequencyChanges></Clock>\n"	Arrow Flanker 2014-12316-1	60.018	1.0.0.98	1	1671870363	Professional	2.0.10.353	2.0.10.353	06-02-2015	6/2/2015 2:33:17 PM	10:33:17	2.0.10.248	3	1	1	1	NA	NA	NA	NA	NA	NA	NA	NA	NA	NA	NA	NA	NA	NA	NA	NA	NA	NA	NA	NA	NA	NA	NA	NA	BlockProc	BlockList	NA	4	{RIGHTARROW}	NA	-100	2512	incongruent	NA	NA	NA	NA	NA	NA	NA	NA	NA	NA	NA	NA	NA	NA	NA	NA	NA	NA	NA	NA	NA	NA	TrialProc	TrialList	0	10	481601	17	0	17	478302	1417	1	{RIGHTARROW}	0	0	480235	0	{RIGHTARROW}	1356	481591	NA	NA	right	llrll.bmp	354	0	NA	0	0	0	0	NA	0	0	0	NA	0	0	0	0	NA	0	0	4	1	4
Arrow Flanker 2014	12316	1	"<?xml version=""1.0""?>\n<Clock xmlns:dt=""urn:schemas-microsoft-com:datatypes""><Description dt:dt=""string"">E-Prime Primary Realtime Clock</Description><StartTime><Timestamp dt:dt=""int"">0</Timestamp><DateUtc dt:dt=""string"">2015-06-02T14:33:16Z</DateUtc></StartTime><FrequencyChanges><FrequencyChange><Frequency dt:dt=""r8"">2825664</Frequency><Timestamp dt:dt=""r8"">4653120899626</Timestamp><Current dt:dt=""r8"">0</Current><DateUtc dt:dt=""string"">2015-06-02T14:33:16Z</DateUtc></FrequencyChange></FrequencyChanges></Clock>\n"	Arrow Flanker 2014-12316-1	60.018	1.0.0.98	1	1671870363	Professional	2.0.10.353	2.0.10.353	06-02-2015	6/2/2015 2:33:17 PM	10:33:17	2.0.10.248	3	1	1	1	NA	NA	NA	NA	NA	NA	NA	NA	NA	NA	NA	NA	NA	NA	NA	NA	NA	NA	NA	NA	NA	NA	NA	NA	BlockProc	BlockList	NA	5	{LEFTARROW}	NA	-100	1964	incongruent	NA	NA	NA	NA	NA	NA	NA	NA	NA	NA	NA	NA	NA	NA	NA	NA	NA	NA	NA	NA	NA	NA	TrialProc	TrialList	0	8	484367	16	0	16	482134	1050	1	{LEFTARROW}	-999999	0	483684	0	{LEFTARROW}	675	484359	NA	NA	left	rrlrr.bmp	354	0	NA	0	0	0	0	NA	0	0	0	NA	0	0	0	0	NA	0	0	3	1	5
Arrow Flanker 2014	12316	1	"<?xml version=""1.0""?>\n<Clock xmlns:dt=""urn:schemas-microsoft-com:datatypes""><Description dt:dt=""string"">E-Prime Primary Realtime Clock</Description><StartTime><Timestamp dt:dt=""int"">0</Timestamp><DateUtc dt:dt=""string"">2015-06-02T14:33:16Z</DateUtc></StartTime><FrequencyChanges><FrequencyChange><Frequency dt:dt=""r8"">2825664</Frequency><Timestamp dt:dt=""r8"">4653120899626</Timestamp><Current dt:dt=""r8"">0</Current><DateUtc dt:dt=""string"">2015-06-02T14:33:16Z</DateUtc></FrequencyChange></FrequencyChanges></Clock>\n"	Arrow Flanker 2014-12316-1	60.018	1.0.0.98	1	1671870363	Professional	2.0.10.353	2.0.10.353	06-02-2015	6/2/2015 2:33:17 PM	10:33:17	2.0.10.248	3	1	1	1	NA	NA	NA	NA	NA	NA	NA	NA	NA	NA	NA	NA	NA	NA	NA	NA	NA	NA	NA	NA	NA	NA	NA	NA	BlockProc	BlockList	NA	6	{LEFTARROW}	NA	-100	1812	incongruent	NA	NA	NA	NA	NA	NA	NA	NA	NA	NA	NA	NA	NA	NA	NA	NA	NA	NA	NA	NA	NA	NA	TrialProc	TrialList	0	18	487233	16	0	17	484900	1200	1	{LEFTARROW}	-999999	16	486616	0	{LEFTARROW}	599	487215	NA	NA	left	rrlrr.bmp	354	0	NA	0	0	0	0	NA	0	0	0	NA	0	0	0	0	NA	0	0	3	1	6
Arrow Flanker 2014	12316	1	"<?xml version=""1.0""?>\n<Clock xmlns:dt=""urn:schemas-microsoft-com:datatypes""><Description dt:dt=""string"">E-Prime Primary Realtime Clock</Description><StartTime><Timestamp dt:dt=""int"">0</Timestamp><DateUtc dt:dt=""string"">2015-06-02T14:33:16Z</DateUtc></StartTime><FrequencyChanges><FrequencyChange><Frequency dt:dt=""r8"">2825664</Frequency><Timestamp dt:dt=""r8"">4653120899626</Timestamp><Current dt:dt=""r8"">0</Current><DateUtc dt:dt=""string"">2015-06-02T14:33:16Z</DateUtc></FrequencyChange></FrequencyChanges></Clock>\n"	Arrow Flanker 2014-12316-1	60.018	1.0.0.98	1	1671870363	Professional	2.0.10.353	2.0.10.353	06-02-2015	6/2/2015 2:33:17 PM	10:33:17	2.0.10.248	3	1	1	1	NA	NA	NA	NA	NA	NA	NA	NA	NA	NA	NA	NA	NA	NA	NA	NA	NA	NA	NA	NA	NA	NA	NA	NA	BlockProc	BlockList	NA	7	{RIGHTARROW}	NA	-100	1991	congruent	NA	NA	NA	NA	NA	NA	NA	NA	NA	NA	NA	NA	NA	NA	NA	NA	NA	NA	NA	NA	NA	NA	TrialProc	TrialList	1	7	489998	17	0	17	487766	1266	1	{RIGHTARROW}	-999999	0	489532	0	{RIGHTARROW}	459	489991	NA	NA	right	rrrrr.bmp	354	0	NA	0	0	0	0	NA	0	0	0	NA	0	0	0	0	NA	0	0	2	1	7
Arrow Flanker 2014	12316	1	"<?xml version=""1.0""?>\n<Clock xmlns:dt=""urn:schemas-microsoft-com:datatypes""><Description dt:dt=""string"">E-Prime Primary Realtime Clock</Description><StartTime><Timestamp dt:dt=""int"">0</Timestamp><DateUtc dt:dt=""string"">2015-06-02T14:33:16Z</DateUtc></StartTime><FrequencyChanges><FrequencyChange><Frequency dt:dt=""r8"">2825664</Frequency><Timestamp dt:dt=""r8"">4653120899626</Timestamp><Current dt:dt=""r8"">0</Current><DateUtc dt:dt=""string"">2015-06-02T14:33:16Z</DateUtc></FrequencyChange></FrequencyChanges></Clock>\n"	Arrow Flanker 2014-12316-1	60.018	1.0.0.98	1	1671870363	Professional	2.0.10.353	2.0.10.353	06-02-2015	6/2/2015 2:33:17 PM	10:33:17	2.0.10.248	3	1	1	1	NA	NA	NA	NA	NA	NA	NA	NA	NA	NA	NA	NA	NA	NA	NA	NA	NA	NA	NA	NA	NA	NA	NA	NA	BlockProc	BlockList	NA	8	{RIGHTARROW}	NA	-100	850	congruent	NA	NA	NA	NA	NA	NA	NA	NA	NA	NA	NA	NA	NA	NA	NA	NA	NA	NA	NA	NA	NA	NA	TrialProc	TrialList	0	17	492248	16	0	17	490532	533	1	{RIGHTARROW}	-999999	0	491565	0	{RIGHTARROW}	666	492231	NA	NA	right	rrrrr.bmp	354	0	NA	0	0	0	0	NA	0	0	0	NA	0	0	0	0	NA	0	0	2	1	8
Arrow Flanker 2014	12316	1	"<?xml version=""1.0""?>\n<Clock xmlns:dt=""urn:schemas-microsoft-com:datatypes""><Description dt:dt=""string"">E-Prime Primary Realtime Clock</Description><StartTime><Timestamp dt:dt=""int"">0</Timestamp><DateUtc dt:dt=""string"">2015-06-02T14:33:16Z</DateUtc></StartTime><FrequencyChanges><FrequencyChange><Frequency dt:dt=""r8"">2825664</Frequency><Timestamp dt:dt=""r8"">4653120899626</Timestamp><Current dt:dt=""r8"">0</Current><DateUtc dt:dt=""string"">2015-06-02T14:33:16Z</DateUtc></FrequencyChange></FrequencyChanges></Clock>\n"	Arrow Flanker 2014-12316-1	60.018	1.0.0.98	1	1671870363	Professional	2.0.10.353	2.0.10.353	06-02-2015	6/2/2015 2:33:17 PM	10:33:17	2.0.10.248	3	1	1	1	NA	NA	NA	NA	NA	NA	NA	NA	NA	NA	NA	NA	NA	NA	NA	NA	NA	NA	NA	NA	NA	NA	NA	NA	BlockProc	BlockList	NA	9	{RIGHTARROW}	NA	-100	1707	neutral	NA	NA	NA	NA	NA	NA	NA	NA	NA	NA	NA	NA	NA	NA	NA	NA	NA	NA	NA	NA	NA	NA	TrialProc	TrialList	1	5	494780	17	0	17	492781	966	1	{RIGHTARROW}	-999999	0	494247	0	{RIGHTARROW}	528	494775	NA	NA	right	ooroo.bmp	354	0	NA	0	0	0	0	NA	0	0	0	NA	0	0	0	0	NA	0	0	6	1	9
Arrow Flanker 2014	12316	1	"<?xml version=""1.0""?>\n<Clock xmlns:dt=""urn:schemas-microsoft-com:datatypes""><Description dt:dt=""string"">E-Prime Primary Realtime Clock</Description><StartTime><Timestamp dt:dt=""int"">0</Timestamp><DateUtc dt:dt=""string"">2015-06-02T14:33:16Z</DateUtc></StartTime><FrequencyChanges><FrequencyChange><Frequency dt:dt=""r8"">2825664</Frequency><Timestamp dt:dt=""r8"">4653120899626</Timestamp><Current dt:dt=""r8"">0</Current><DateUtc dt:dt=""string"">2015-06-02T14:33:16Z</DateUtc></FrequencyChange></FrequencyChanges></Clock>\n"	Arrow Flanker 2014-12316-1	60.018	1.0.0.98	1	1671870363	Professional	2.0.10.353	2.0.10.353	06-02-2015	6/2/2015 2:33:17 PM	10:33:17	2.0.10.248	3	1	1	1	NA	NA	NA	NA	NA	NA	NA	NA	NA	NA	NA	NA	NA	NA	NA	NA	NA	NA	NA	NA	NA	NA	NA	NA	BlockProc	BlockList	NA	10	{LEFTARROW}	NA	-100	2027	congruent	NA	NA	NA	NA	NA	NA	NA	NA	NA	NA	NA	NA	NA	NA	NA	NA	NA	NA	NA	NA	NA	NA	TrialProc	TrialList	0	18	497513	17	0	17	495314	1099	1	{LEFTARROW}	-999999	0	496913	0	{LEFTARROW}	581	497494	NA	NA	left	lllll.bmp	354	0	NA	0	0	0	0	NA	0	0	0	NA	0	0	0	0	NA	0	0	1	1	10
Arrow Flanker 2014	12316	1	"<?xml version=""1.0""?>\n<Clock xmlns:dt=""urn:schemas-microsoft-com:datatypes""><Description dt:dt=""string"">E-Prime Primary Realtime Clock</Description><StartTime><Timestamp dt:dt=""int"">0</Timestamp><DateUtc dt:dt=""string"">2015-06-02T14:33:16Z</DateUtc></StartTime><FrequencyChanges><FrequencyChange><Frequency dt:dt=""r8"">2825664</Frequency><Timestamp dt:dt=""r8"">4653120899626</Timestamp><Current dt:dt=""r8"">0</Current><DateUtc dt:dt=""string"">2015-06-02T14:33:16Z</DateUtc></FrequencyChange></FrequencyChanges></Clock>\n"	Arrow Flanker 2014-12316-1	60.018	1.0.0.98	1	1671870363	Professional	2.0.10.353	2.0.10.353	06-02-2015	6/2/2015 2:33:17 PM	10:33:17	2.0.10.248	3	1	1	1	NA	NA	NA	NA	NA	NA	NA	NA	NA	NA	NA	NA	NA	NA	NA	NA	NA	NA	NA	NA	NA	NA	NA	NA	BlockProc	BlockList	NA	11	{LEFTARROW}	NA	-100	1465	incongruent	NA	NA	NA	NA	NA	NA	NA	NA	NA	NA	NA	NA	NA	NA	NA	NA	NA	NA	NA	NA	NA	NA	TrialProc	TrialList	0	10	499712	17	0	16	498046	483	1	{LEFTARROW}	-999999	0	499029	0	{LEFTARROW}	673	499702	NA	NA	left	rrlrr.bmp	354	0	NA	0	0	0	0	NA	0	0	0	NA	0	0	0	0	NA	0	0	3	1	11
Arrow Flanker 2014	12316	1	"<?xml version=""1.0""?>\n<Clock xmlns:dt=""urn:schemas-microsoft-com:datatypes""><Description dt:dt=""string"">E-Prime Primary Realtime Clock</Description><StartTime><Timestamp dt:dt=""int"">0</Timestamp><DateUtc dt:dt=""string"">2015-06-02T14:33:16Z</DateUtc></StartTime><FrequencyChanges><FrequencyChange><Frequency dt:dt=""r8"">2825664</Frequency><Timestamp dt:dt=""r8"">4653120899626</Timestamp><Current dt:dt=""r8"">0</Current><DateUtc dt:dt=""string"">2015-06-02T14:33:16Z</DateUtc></FrequencyChange></FrequencyChanges></Clock>\n"	Arrow Flanker 2014-12316-1	60.018	1.0.0.98	1	1671870363	Professional	2.0.10.353	2.0.10.353	06-02-2015	6/2/2015 2:33:17 PM	10:33:17	2.0.10.248	3	1	1	1	NA	NA	NA	NA	NA	NA	NA	NA	NA	NA	NA	NA	NA	NA	NA	NA	NA	NA	NA	NA	NA	NA	NA	NA	BlockProc	BlockList	NA	12	{RIGHTARROW}	NA	-100	1574	congruent	NA	NA	NA	NA	NA	NA	NA	NA	NA	NA	NA	NA	NA	NA	NA	NA	NA	NA	NA	NA	NA	NA	TrialProc	TrialList	0	7	502845	16	0	16	500245	1583	1	{RIGHTARROW}	-999999	0	502328	0	{RIGHTARROW}	510	502838	NA	NA	right	rrrrr.bmp	354	0	NA	0	0	0	0	NA	0	0	0	NA	0	0	0	0	NA	0	0	2	1	12
Arrow Flanker 2014	12316	1	"<?xml version=""1.0""?>\n<Clock xmlns:dt=""urn:schemas-microsoft-com:datatypes""><Description dt:dt=""string"">E-Prime Primary Realtime Clock</Description><StartTime><Timestamp dt:dt=""int"">0</Timestamp><DateUtc dt:dt=""string"">2015-06-02T14:33:16Z</DateUtc></StartTime><FrequencyChanges><FrequencyChange><Frequency dt:dt=""r8"">2825664</Frequency><Timestamp dt:dt=""r8"">4653120899626</Timestamp><Current dt:dt=""r8"">0</Current><DateUtc dt:dt=""string"">2015-06-02T14:33:16Z</DateUtc></FrequencyChange></FrequencyChanges></Clock>\n"	Arrow Flanker 2014-12316-1	60.018	1.0.0.98	1	1671870363	Professional	2.0.10.353	2.0.10.353	06-02-2015	6/2/2015 2:33:17 PM	10:33:17	2.0.10.248	3	1	1	1	NA	NA	NA	NA	NA	NA	NA	NA	NA	NA	NA	NA	NA	NA	NA	NA	NA	NA	NA	NA	NA	NA	NA	NA	BlockProc	BlockList	NA	13	{LEFTARROW}	NA	-100	1340	congruent	NA	NA	NA	NA	NA	NA	NA	NA	NA	NA	NA	NA	NA	NA	NA	NA	NA	NA	NA	NA	NA	NA	TrialProc	TrialList	0	20	505594	16	0	17	503378	1133	1	{LEFTARROW}	-999999	0	505011	0	{LEFTARROW}	563	505574	NA	NA	left	lllll.bmp	354	0	NA	0	0	0	0	NA	0	0	0	NA	0	0	0	0	NA	0	0	1	1	13
Arrow Flanker 2014	12316	1	"<?xml version=""1.0""?>\n<Clock xmlns:dt=""urn:schemas-microsoft-com:datatypes""><Description dt:dt=""string"">E-Prime Primary Realtime Clock</Description><StartTime><Timestamp dt:dt=""int"">0</Timestamp><DateUtc dt:dt=""string"">2015-06-02T14:33:16Z</DateUtc></StartTime><FrequencyChanges><FrequencyChange><Frequency dt:dt=""r8"">2825664</Frequency><Timestamp dt:dt=""r8"">4653120899626</Timestamp><Current dt:dt=""r8"">0</Current><DateUtc dt:dt=""string"">2015-06-02T14:33:16Z</DateUtc></FrequencyChange></FrequencyChanges></Clock>\n"	Arrow Flanker 2014-12316-1	60.018	1.0.0.98	1	1671870363	Professional	2.0.10.353	2.0.10.353	06-02-2015	6/2/2015 2:33:17 PM	10:33:17	2.0.10.248	3	1	1	1	NA	NA	NA	NA	NA	NA	NA	NA	NA	NA	NA	NA	NA	NA	NA	NA	NA	NA	NA	NA	NA	NA	NA	NA	BlockProc	BlockList	NA	14	{LEFTARROW}	NA	-100	2076	congruent	NA	NA	NA	NA	NA	NA	NA	NA	NA	NA	NA	NA	NA	NA	NA	NA	NA	NA	NA	NA	NA	NA	TrialProc	TrialList	0	7	508293	17	0	17	506127	1083	1	{LEFTARROW}	-999999	0	507710	0	{LEFTARROW}	576	508286	NA	NA	left	lllll.bmp	354	0	NA	0	0	0	0	NA	0	0	0	NA	0	0	0	0	NA	0	0	1	1	14
Arrow Flanker 2014	12316	1	"<?xml version=""1.0""?>\n<Clock xmlns:dt=""urn:schemas-microsoft-com:datatypes""><Description dt:dt=""string"">E-Prime Primary Realtime Clock</Description><StartTime><Timestamp dt:dt=""int"">0</Timestamp><DateUtc dt:dt=""string"">2015-06-02T14:33:16Z</DateUtc></StartTime><FrequencyChanges><FrequencyChange><Frequency dt:dt=""r8"">2825664</Frequency><Timestamp dt:dt=""r8"">4653120899626</Timestamp><Current dt:dt=""r8"">0</Current><DateUtc dt:dt=""string"">2015-06-02T14:33:16Z</DateUtc></FrequencyChange></FrequencyChanges></Clock>\n"	Arrow Flanker 2014-12316-1	60.018	1.0.0.98	1	1671870363	Professional	2.0.10.353	2.0.10.353	06-02-2015	6/2/2015 2:33:17 PM	10:33:17	2.0.10.248	3	1	1	1	NA	NA	NA	NA	NA	NA	NA	NA	NA	NA	NA	NA	NA	NA	NA	NA	NA	NA	NA	NA	NA	NA	NA	NA	BlockProc	BlockList	NA	15	{LEFTARROW}	NA	-100	2151	neutral	NA	NA	NA	NA	NA	NA	NA	NA	NA	NA	NA	NA	NA	NA	NA	NA	NA	NA	NA	NA	NA	NA	TrialProc	TrialList	0	7	511309	16	0	16	508826	1400	1	{LEFTARROW}	-999999	0	510726	0	{LEFTARROW}	576	511302	NA	NA	left	ooloo.bmp	354	0	NA	0	0	0	0	NA	0	0	0	NA	0	0	0	0	NA	0	0	5	1	15
Arrow Flanker 2014	12316	1	"<?xml version=""1.0""?>\n<Clock xmlns:dt=""urn:schemas-microsoft-com:datatypes""><Description dt:dt=""string"">E-Prime Primary Realtime Clock</Description><StartTime><Timestamp dt:dt=""int"">0</Timestamp><DateUtc dt:dt=""string"">2015-06-02T14:33:16Z</DateUtc></StartTime><FrequencyChanges><FrequencyChange><Frequency dt:dt=""r8"">2825664</Frequency><Timestamp dt:dt=""r8"">4653120899626</Timestamp><Current dt:dt=""r8"">0</Current><DateUtc dt:dt=""string"">2015-06-02T14:33:16Z</DateUtc></FrequencyChange></FrequencyChanges></Clock>\n"	Arrow Flanker 2014-12316-1	60.018	1.0.0.98	1	1671870363	Professional	2.0.10.353	2.0.10.353	06-02-2015	6/2/2015 2:33:17 PM	10:33:17	2.0.10.248	3	1	1	1	NA	NA	NA	NA	NA	NA	NA	NA	NA	NA	NA	NA	NA	NA	NA	NA	NA	NA	NA	NA	NA	NA	NA	NA	BlockProc	BlockList	NA	16	{RIGHTARROW}	NA	-100	1601	incongruent	NA	NA	NA	NA	NA	NA	NA	NA	NA	NA	NA	NA	NA	NA	NA	NA	NA	NA	NA	NA	NA	NA	TrialProc	TrialList	1	9	513391	17	0	17	511842	416	1	{RIGHTARROW}	-999999	0	512758	0	{RIGHTARROW}	623	513381	NA	NA	right	llrll.bmp	354	0	NA	0	0	0	0	NA	0	0	0	NA	0	0	0	0	NA	0	0	4	1	16
Arrow Flanker 2014	12316	1	"<?xml version=""1.0""?>\n<Clock xmlns:dt=""urn:schemas-microsoft-com:datatypes""><Description dt:dt=""string"">E-Prime Primary Realtime Clock</Description><StartTime><Timestamp dt:dt=""int"">0</Timestamp><DateUtc dt:dt=""string"">2015-06-02T14:33:16Z</DateUtc></StartTime><FrequencyChanges><FrequencyChange><Frequency dt:dt=""r8"">2825664</Frequency><Timestamp dt:dt=""r8"">4653120899626</Timestamp><Current dt:dt=""r8"">0</Current><DateUtc dt:dt=""string"">2015-06-02T14:33:16Z</DateUtc></FrequencyChange></FrequencyChanges></Clock>\n"	Arrow Flanker 2014-12316-1	60.018	1.0.0.98	1	1671870363	Professional	2.0.10.353	2.0.10.353	06-02-2015	6/2/2015 2:33:17 PM	10:33:17	2.0.10.248	3	1	1	1	NA	NA	NA	NA	NA	NA	NA	NA	NA	NA	NA	NA	NA	NA	NA	NA	NA	NA	NA	NA	NA	NA	NA	NA	BlockProc	BlockList	NA	17	{RIGHTARROW}	NA	-100	2286	neutral	NA	NA	NA	NA	NA	NA	NA	NA	NA	NA	NA	NA	NA	NA	NA	NA	NA	NA	NA	NA	NA	NA	TrialProc	TrialList	1	6	516107	17	0	17	513925	1149	1	{RIGHTARROW}	-999999	0	515574	0	{RIGHTARROW}	527	516101	NA	NA	right	ooroo.bmp	354	0	NA	0	0	0	0	NA	0	0	0	NA	0	0	0	0	NA	0	0	6	1	17
Arrow Flanker 2014	12316	1	"<?xml version=""1.0""?>\n<Clock xmlns:dt=""urn:schemas-microsoft-com:datatypes""><Description dt:dt=""string"">E-Prime Primary Realtime Clock</Description><StartTime><Timestamp dt:dt=""int"">0</Timestamp><DateUtc dt:dt=""string"">2015-06-02T14:33:16Z</DateUtc></StartTime><FrequencyChanges><FrequencyChange><Frequency dt:dt=""r8"">2825664</Frequency><Timestamp dt:dt=""r8"">4653120899626</Timestamp><Current dt:dt=""r8"">0</Current><DateUtc dt:dt=""string"">2015-06-02T14:33:16Z</DateUtc></FrequencyChange></FrequencyChanges></Clock>\n"	Arrow Flanker 2014-12316-1	60.018	1.0.0.98	1	1671870363	Professional	2.0.10.353	2.0.10.353	06-02-2015	6/2/2015 2:33:17 PM	10:33:17	2.0.10.248	3	1	1	1	NA	NA	NA	NA	NA	NA	NA	NA	NA	NA	NA	NA	NA	NA	NA	NA	NA	NA	NA	NA	NA	NA	NA	NA	BlockProc	BlockList	NA	18	{LEFTARROW}	NA	-100	1514	incongruent	NA	NA	NA	NA	NA	NA	NA	NA	NA	NA	NA	NA	NA	NA	NA	NA	NA	NA	NA	NA	NA	NA	TrialProc	TrialList	1	12	518273	17	0	17	516641	416	1	{LEFTARROW}	-999999	0	517557	0	{LEFTARROW}	704	518261	NA	NA	left	rrlrr.bmp	354	0	NA	0	0	0	0	NA	0	0	0	NA	0	0	0	0	NA	0	0	3	1	18
Arrow Flanker 2014	12316	1	"<?xml version=""1.0""?>\n<Clock xmlns:dt=""urn:schemas-microsoft-com:datatypes""><Description dt:dt=""string"">E-Prime Primary Realtime Clock</Description><StartTime><Timestamp dt:dt=""int"">0</Timestamp><DateUtc dt:dt=""string"">2015-06-02T14:33:16Z</DateUtc></StartTime><FrequencyChanges><FrequencyChange><Frequency dt:dt=""r8"">2825664</Frequency><Timestamp dt:dt=""r8"">4653120899626</Timestamp><Current dt:dt=""r8"">0</Current><DateUtc dt:dt=""string"">2015-06-02T14:33:16Z</DateUtc></FrequencyChange></FrequencyChanges></Clock>\n"	Arrow Flanker 2014-12316-1	60.018	1.0.0.98	1	1671870363	Professional	2.0.10.353	2.0.10.353	06-02-2015	6/2/2015 2:33:17 PM	10:33:17	2.0.10.248	3	1	1	1	NA	NA	NA	NA	NA	NA	NA	NA	NA	NA	NA	NA	NA	NA	NA	NA	NA	NA	NA	NA	NA	NA	NA	NA	BlockProc	BlockList	NA	19	{LEFTARROW}	NA	-100	1487	incongruent	NA	NA	NA	NA	NA	NA	NA	NA	NA	NA	NA	NA	NA	NA	NA	NA	NA	NA	NA	NA	NA	NA	TrialProc	TrialList	0	7	521156	16	0	17	518807	1249	1	{LEFTARROW}	-999999	0	520556	0	{LEFTARROW}	593	521149	NA	NA	left	rrlrr.bmp	354	0	NA	0	0	0	0	NA	0	0	0	NA	0	0	0	0	NA	0	0	3	1	19
Arrow Flanker 2014	12316	1	"<?xml version=""1.0""?>\n<Clock xmlns:dt=""urn:schemas-microsoft-com:datatypes""><Description dt:dt=""string"">E-Prime Primary Realtime Clock</Description><StartTime><Timestamp dt:dt=""int"">0</Timestamp><DateUtc dt:dt=""string"">2015-06-02T14:33:16Z</DateUtc></StartTime><FrequencyChanges><FrequencyChange><Frequency dt:dt=""r8"">2825664</Frequency><Timestamp dt:dt=""r8"">4653120899626</Timestamp><Current dt:dt=""r8"">0</Current><DateUtc dt:dt=""string"">2015-06-02T14:33:16Z</DateUtc></FrequencyChange></FrequencyChanges></Clock>\n"	Arrow Flanker 2014-12316-1	60.018	1.0.0.98	1	1671870363	Professional	2.0.10.353	2.0.10.353	06-02-2015	6/2/2015 2:33:17 PM	10:33:17	2.0.10.248	3	1	1	1	NA	NA	NA	NA	NA	NA	NA	NA	NA	NA	NA	NA	NA	NA	NA	NA	NA	NA	NA	NA	NA	NA	NA	NA	BlockProc	BlockList	NA	20	{RIGHTARROW}	NA	-100	2042	neutral	NA	NA	NA	NA	NA	NA	NA	NA	NA	NA	NA	NA	NA	NA	NA	NA	NA	NA	NA	NA	NA	NA	TrialProc	TrialList	1	9	523638	17	0	17	521689	883	1	{RIGHTARROW}	-999999	0	523072	0	{RIGHTARROW}	557	523629	NA	NA	right	ooroo.bmp	354	0	NA	0	0	0	0	NA	0	0	0	NA	0	0	0	0	NA	0	0	6	1	20
Arrow Flanker 2014	12316	1	"<?xml version=""1.0""?>\n<Clock xmlns:dt=""urn:schemas-microsoft-com:datatypes""><Description dt:dt=""string"">E-Prime Primary Realtime Clock</Description><StartTime><Timestamp dt:dt=""int"">0</Timestamp><DateUtc dt:dt=""string"">2015-06-02T14:33:16Z</DateUtc></StartTime><FrequencyChanges><FrequencyChange><Frequency dt:dt=""r8"">2825664</Frequency><Timestamp dt:dt=""r8"">4653120899626</Timestamp><Current dt:dt=""r8"">0</Current><DateUtc dt:dt=""string"">2015-06-02T14:33:16Z</DateUtc></FrequencyChange></FrequencyChanges></Clock>\n"	Arrow Flanker 2014-12316-1	60.018	1.0.0.98	1	1671870363	Professional	2.0.10.353	2.0.10.353	06-02-2015	6/2/2015 2:33:17 PM	10:33:17	2.0.10.248	3	1	1	1	NA	NA	NA	NA	NA	NA	NA	NA	NA	NA	NA	NA	NA	NA	NA	NA	NA	NA	NA	NA	NA	NA	NA	NA	BlockProc	BlockList	NA	21	{RIGHTARROW}	NA	-100	1958	neutral	NA	NA	NA	NA	NA	NA	NA	NA	NA	NA	NA	NA	NA	NA	NA	NA	NA	NA	NA	NA	NA	NA	TrialProc	TrialList	0	11	526488	16	0	17	524172	1282	1	{RIGHTARROW}	-999999	16	525971	0	{RIGHTARROW}	506	526477	NA	NA	right	ooroo.bmp	354	0	NA	0	0	0	0	NA	0	0	0	NA	0	0	0	0	NA	0	0	6	1	21
Arrow Flanker 2014	12316	1	"<?xml version=""1.0""?>\n<Clock xmlns:dt=""urn:schemas-microsoft-com:datatypes""><Description dt:dt=""string"">E-Prime Primary Realtime Clock</Description><StartTime><Timestamp dt:dt=""int"">0</Timestamp><DateUtc dt:dt=""string"">2015-06-02T14:33:16Z</DateUtc></StartTime><FrequencyChanges><FrequencyChange><Frequency dt:dt=""r8"">2825664</Frequency><Timestamp dt:dt=""r8"">4653120899626</Timestamp><Current dt:dt=""r8"">0</Current><DateUtc dt:dt=""string"">2015-06-02T14:33:16Z</DateUtc></FrequencyChange></FrequencyChanges></Clock>\n"	Arrow Flanker 2014-12316-1	60.018	1.0.0.98	1	1671870363	Professional	2.0.10.353	2.0.10.353	06-02-2015	6/2/2015 2:33:17 PM	10:33:17	2.0.10.248	3	1	1	1	NA	NA	NA	NA	NA	NA	NA	NA	NA	NA	NA	NA	NA	NA	NA	NA	NA	NA	NA	NA	NA	NA	NA	NA	BlockProc	BlockList	NA	22	{LEFTARROW}	NA	-100	2090	neutral	NA	NA	NA	NA	NA	NA	NA	NA	NA	NA	NA	NA	NA	NA	NA	NA	NA	NA	NA	NA	3	1	TrialProc	TrialList	0	12	529137	16	0	17	527021	966	1	{LEFTARROW}	-999999	0	528487	0	{LEFTARROW}	637	529124	NA	NA	left	ooloo.bmp	354	0	NA	-999999	17	529670	0	1	16658	546328	0	NA	-999999	20	546348	0	1	3252	549600	5	1	22
Arrow Flanker 2014	12316	1	"<?xml version=""1.0""?>\n<Clock xmlns:dt=""urn:schemas-microsoft-com:datatypes""><Description dt:dt=""string"">E-Prime Primary Realtime Clock</Description><StartTime><Timestamp dt:dt=""int"">0</Timestamp><DateUtc dt:dt=""string"">2015-06-02T14:33:16Z</DateUtc></StartTime><FrequencyChanges><FrequencyChange><Frequency dt:dt=""r8"">2825664</Frequency><Timestamp dt:dt=""r8"">4653120899626</Timestamp><Current dt:dt=""r8"">0</Current><DateUtc dt:dt=""string"">2015-06-02T14:33:16Z</DateUtc></FrequencyChange></FrequencyChanges></Clock>\n"	Arrow Flanker 2014-12316-1	60.018	1.0.0.98	1	1671870363	Professional	2.0.10.353	2.0.10.353	06-02-2015	6/2/2015 2:33:17 PM	10:33:17	2.0.10.248	3	1	1	1	NA	NA	NA	NA	NA	NA	NA	NA	NA	NA	NA	NA	NA	NA	NA	NA	NA	NA	NA	NA	NA	NA	NA	NA	BlockProc	BlockList	NA	23	{LEFTARROW}	NA	-100	1921	congruent	NA	NA	NA	NA	NA	NA	NA	NA	NA	NA	NA	NA	NA	NA	NA	NA	NA	NA	NA	NA	NA	NA	TrialProc	TrialList	0	19	554046	17	0	26	552013	950	1	{LEFTARROW}	-999999	0	553463	0	{LEFTARROW}	564	554027	NA	NA	left	lllll.bmp	354	0	NA	0	0	0	0	NA	0	0	0	NA	0	0	0	0	NA	0	0	1	1	23
Arrow Flanker 2014	12316	1	"<?xml version=""1.0""?>\n<Clock xmlns:dt=""urn:schemas-microsoft-com:datatypes""><Description dt:dt=""string"">E-Prime Primary Realtime Clock</Description><StartTime><Timestamp dt:dt=""int"">0</Timestamp><DateUtc dt:dt=""string"">2015-06-02T14:33:16Z</DateUtc></StartTime><FrequencyChanges><FrequencyChange><Frequency dt:dt=""r8"">2825664</Frequency><Timestamp dt:dt=""r8"">4653120899626</Timestamp><Current dt:dt=""r8"">0</Current><DateUtc dt:dt=""string"">2015-06-02T14:33:16Z</DateUtc></FrequencyChange></FrequencyChanges></Clock>\n"	Arrow Flanker 2014-12316-1	60.018	1.0.0.98	1	1671870363	Professional	2.0.10.353	2.0.10.353	06-02-2015	6/2/2015 2:33:17 PM	10:33:17	2.0.10.248	3	1	1	1	NA	NA	NA	NA	NA	NA	NA	NA	NA	NA	NA	NA	NA	NA	NA	NA	NA	NA	NA	NA	NA	NA	NA	NA	BlockProc	BlockList	NA	24	{LEFTARROW}	NA	-100	2226	congruent	NA	NA	NA	NA	NA	NA	NA	NA	NA	NA	NA	NA	NA	NA	NA	NA	NA	NA	NA	NA	NA	NA	TrialProc	TrialList	0	18	557045	17	0	16	554579	1366	1	{LEFTARROW}	-999999	0	556445	0	{LEFTARROW}	582	557027	NA	NA	left	lllll.bmp	354	0	NA	0	0	0	0	NA	0	0	0	NA	0	0	0	0	NA	0	0	1	1	24
Arrow Flanker 2014	12316	1	"<?xml version=""1.0""?>\n<Clock xmlns:dt=""urn:schemas-microsoft-com:datatypes""><Description dt:dt=""string"">E-Prime Primary Realtime Clock</Description><StartTime><Timestamp dt:dt=""int"">0</Timestamp><DateUtc dt:dt=""string"">2015-06-02T14:33:16Z</DateUtc></StartTime><FrequencyChanges><FrequencyChange><Frequency dt:dt=""r8"">2825664</Frequency><Timestamp dt:dt=""r8"">4653120899626</Timestamp><Current dt:dt=""r8"">0</Current><DateUtc dt:dt=""string"">2015-06-02T14:33:16Z</DateUtc></FrequencyChange></FrequencyChanges></Clock>\n"	Arrow Flanker 2014-12316-1	60.018	1.0.0.98	1	1671870363	Professional	2.0.10.353	2.0.10.353	06-02-2015	6/2/2015 2:33:17 PM	10:33:17	2.0.10.248	3	1	1	1	NA	NA	NA	NA	NA	NA	NA	NA	NA	NA	NA	NA	NA	NA	NA	NA	NA	NA	NA	NA	NA	NA	NA	NA	BlockProc	BlockList	NA	25	{LEFTARROW}	NA	-100	1334	congruent	NA	NA	NA	NA	NA	NA	NA	NA	NA	NA	NA	NA	NA	NA	NA	NA	NA	NA	NA	NA	NA	NA	TrialProc	TrialList	0	16	559811	17	0	16	557578	1250	1	{LEFTARROW}	-999999	0	559328	0	{LEFTARROW}	467	559795	NA	NA	left	lllll.bmp	354	0	NA	0	0	0	0	NA	0	0	0	NA	0	0	0	0	NA	0	0	1	1	25
Arrow Flanker 2014	12316	1	"<?xml version=""1.0""?>\n<Clock xmlns:dt=""urn:schemas-microsoft-com:datatypes""><Description dt:dt=""string"">E-Prime Primary Realtime Clock</Description><StartTime><Timestamp dt:dt=""int"">0</Timestamp><DateUtc dt:dt=""string"">2015-06-02T14:33:16Z</DateUtc></StartTime><FrequencyChanges><FrequencyChange><Frequency dt:dt=""r8"">2825664</Frequency><Timestamp dt:dt=""r8"">4653120899626</Timestamp><Current dt:dt=""r8"">0</Current><DateUtc dt:dt=""string"">2015-06-02T14:33:16Z</DateUtc></FrequencyChange></FrequencyChanges></Clock>\n"	Arrow Flanker 2014-12316-1	60.018	1.0.0.98	1	1671870363	Professional	2.0.10.353	2.0.10.353	06-02-2015	6/2/2015 2:33:17 PM	10:33:17	2.0.10.248	3	1	1	1	NA	NA	NA	NA	NA	NA	NA	NA	NA	NA	NA	NA	NA	NA	NA	NA	NA	NA	NA	NA	NA	NA	NA	NA	BlockProc	BlockList	NA	26	{LEFTARROW}	NA	-100	1285	neutral	NA	NA	NA	NA	NA	NA	NA	NA	NA	NA	NA	NA	NA	NA	NA	NA	NA	NA	NA	NA	NA	NA	TrialProc	TrialList	0	7	561994	16	0	16	560344	0	1	{LEFTARROW}	-999999	0	561277	0	{LEFTARROW}	709	561986	NA	NA	left	ooloo.bmp	354	0	NA	0	0	0	0	NA	0	0	0	NA	0	0	0	0	NA	0	0	5	1	26
Arrow Flanker 2014	12316	1	"<?xml version=""1.0""?>\n<Clock xmlns:dt=""urn:schemas-microsoft-com:datatypes""><Description dt:dt=""string"">E-Prime Primary Realtime Clock</Description><StartTime><Timestamp dt:dt=""int"">0</Timestamp><DateUtc dt:dt=""string"">2015-06-02T14:33:16Z</DateUtc></StartTime><FrequencyChanges><FrequencyChange><Frequency dt:dt=""r8"">2825664</Frequency><Timestamp dt:dt=""r8"">4653120899626</Timestamp><Current dt:dt=""r8"">0</Current><DateUtc dt:dt=""string"">2015-06-02T14:33:16Z</DateUtc></FrequencyChange></FrequencyChanges></Clock>\n"	Arrow Flanker 2014-12316-1	60.018	1.0.0.98	1	1671870363	Professional	2.0.10.353	2.0.10.353	06-02-2015	6/2/2015 2:33:17 PM	10:33:17	2.0.10.248	3	1	1	1	NA	NA	NA	NA	NA	NA	NA	NA	NA	NA	NA	NA	NA	NA	NA	NA	NA	NA	NA	NA	NA	NA	NA	NA	BlockProc	BlockList	NA	27	{LEFTARROW}	NA	-100	1690	congruent	NA	NA	NA	NA	NA	NA	NA	NA	NA	NA	NA	NA	NA	NA	NA	NA	NA	NA	NA	NA	NA	NA	TrialProc	TrialList	1	11	564509	17	0	17	562527	0	1	{LEFTARROW}	-999999	0	563776	0	{LEFTARROW}	722	564498	NA	NA	left	lllll.bmp	354	0	NA	0	0	0	0	NA	0	0	0	NA	0	0	0	0	NA	0	0	1	1	27
Arrow Flanker 2014	12316	1	"<?xml version=""1.0""?>\n<Clock xmlns:dt=""urn:schemas-microsoft-com:datatypes""><Description dt:dt=""string"">E-Prime Primary Realtime Clock</Description><StartTime><Timestamp dt:dt=""int"">0</Timestamp><DateUtc dt:dt=""string"">2015-06-02T14:33:16Z</DateUtc></StartTime><FrequencyChanges><FrequencyChange><Frequency dt:dt=""r8"">2825664</Frequency><Timestamp dt:dt=""r8"">4653120899626</Timestamp><Current dt:dt=""r8"">0</Current><DateUtc dt:dt=""string"">2015-06-02T14:33:16Z</DateUtc></FrequencyChange></FrequencyChanges></Clock>\n"	Arrow Flanker 2014-12316-1	60.018	1.0.0.98	1	1671870363	Professional	2.0.10.353	2.0.10.353	06-02-2015	6/2/2015 2:33:17 PM	10:33:17	2.0.10.248	3	1	1	1	NA	NA	NA	NA	NA	NA	NA	NA	NA	NA	NA	NA	NA	NA	NA	NA	NA	NA	NA	NA	NA	NA	NA	NA	BlockProc	BlockList	NA	28	{RIGHTARROW}	NA	-100	891	congruent	NA	NA	NA	NA	NA	NA	NA	NA	NA	NA	NA	NA	NA	NA	NA	NA	NA	NA	NA	NA	NA	NA	TrialProc	TrialList	0	7	566809	16	0	17	565043	0	1	{RIGHTARROW}	-999999	0	566126	0	{RIGHTARROW}	676	566802	NA	NA	right	rrrrr.bmp	354	0	NA	0	0	0	0	NA	0	0	0	NA	0	0	0	0	NA	0	0	2	1	28
Arrow Flanker 2014	12316	1	"<?xml version=""1.0""?>\n<Clock xmlns:dt=""urn:schemas-microsoft-com:datatypes""><Description dt:dt=""string"">E-Prime Primary Realtime Clock</Description><StartTime><Timestamp dt:dt=""int"">0</Timestamp><DateUtc dt:dt=""string"">2015-06-02T14:33:16Z</DateUtc></StartTime><FrequencyChanges><FrequencyChange><Frequency dt:dt=""r8"">2825664</Frequency><Timestamp dt:dt=""r8"">4653120899626</Timestamp><Current dt:dt=""r8"">0</Current><DateUtc dt:dt=""string"">2015-06-02T14:33:16Z</DateUtc></FrequencyChange></FrequencyChanges></Clock>\n"	Arrow Flanker 2014-12316-1	60.018	1.0.0.98	1	1671870363	Professional	2.0.10.353	2.0.10.353	06-02-2015	6/2/2015 2:33:17 PM	10:33:17	2.0.10.248	3	1	1	1	NA	NA	NA	NA	NA	NA	NA	NA	NA	NA	NA	NA	NA	NA	NA	NA	NA	NA	NA	NA	NA	NA	NA	NA	BlockProc	BlockList	NA	29	{LEFTARROW}	NA	-100	2107	neutral	NA	NA	NA	NA	NA	NA	NA	NA	NA	NA	NA	NA	NA	NA	NA	NA	NA	NA	NA	NA	NA	NA	TrialProc	TrialList	0	7	569825	16	0	17	567342	0	1	{LEFTARROW}	-999999	0	569208	0	{LEFTARROW}	610	569818	NA	NA	left	ooloo.bmp	354	0	NA	0	0	0	0	NA	0	0	0	NA	0	0	0	0	NA	0	0	5	1	29
Arrow Flanker 2014	12316	1	"<?xml version=""1.0""?>\n<Clock xmlns:dt=""urn:schemas-microsoft-com:datatypes""><Description dt:dt=""string"">E-Prime Primary Realtime Clock</Description><StartTime><Timestamp dt:dt=""int"">0</Timestamp><DateUtc dt:dt=""string"">2015-06-02T14:33:16Z</DateUtc></StartTime><FrequencyChanges><FrequencyChange><Frequency dt:dt=""r8"">2825664</Frequency><Timestamp dt:dt=""r8"">4653120899626</Timestamp><Current dt:dt=""r8"">0</Current><DateUtc dt:dt=""string"">2015-06-02T14:33:16Z</DateUtc></FrequencyChange></FrequencyChanges></Clock>\n"	Arrow Flanker 2014-12316-1	60.018	1.0.0.98	1	1671870363	Professional	2.0.10.353	2.0.10.353	06-02-2015	6/2/2015 2:33:17 PM	10:33:17	2.0.10.248	3	1	1	1	NA	NA	NA	NA	NA	NA	NA	NA	NA	NA	NA	NA	NA	NA	NA	NA	NA	NA	NA	NA	NA	NA	NA	NA	BlockProc	BlockList	NA	30	{LEFTARROW}	NA	-100	1969	neutral	NA	NA	NA	NA	NA	NA	NA	NA	NA	NA	NA	NA	NA	NA	NA	NA	NA	NA	NA	NA	NA	NA	TrialProc	TrialList	0	20	572574	16	0	17	570358	0	1	{LEFTARROW}	-999999	0	572007	0	{LEFTARROW}	547	572554	NA	NA	left	ooloo.bmp	354	0	NA	0	0	0	0	NA	0	0	0	NA	0	0	0	0	NA	0	0	5	1	30
Arrow Flanker 2014	12316	1	"<?xml version=""1.0""?>\n<Clock xmlns:dt=""urn:schemas-microsoft-com:datatypes""><Description dt:dt=""string"">E-Prime Primary Realtime Clock</Description><StartTime><Timestamp dt:dt=""int"">0</Timestamp><DateUtc dt:dt=""string"">2015-06-02T14:33:16Z</DateUtc></StartTime><FrequencyChanges><FrequencyChange><Frequency dt:dt=""r8"">2825664</Frequency><Timestamp dt:dt=""r8"">4653120899626</Timestamp><Current dt:dt=""r8"">0</Current><DateUtc dt:dt=""string"">2015-06-02T14:33:16Z</DateUtc></FrequencyChange></FrequencyChanges></Clock>\n"	Arrow Flanker 2014-12316-1	60.018	1.0.0.98	1	1671870363	Professional	2.0.10.353	2.0.10.353	06-02-2015	6/2/2015 2:33:17 PM	10:33:17	2.0.10.248	3	1	1	1	NA	NA	NA	NA	NA	NA	NA	NA	NA	NA	NA	NA	NA	NA	NA	NA	NA	NA	NA	NA	NA	NA	NA	NA	BlockProc	BlockList	NA	31	{RIGHTARROW}	NA	-100	2343	congruent	NA	NA	NA	NA	NA	NA	NA	NA	NA	NA	NA	NA	NA	NA	NA	NA	NA	NA	NA	NA	NA	NA	TrialProc	TrialList	1	19	575389	17	0	17	573107	0	1	{RIGHTARROW}	-999999	0	574890	0	{RIGHTARROW}	479	575369	NA	NA	right	rrrrr.bmp	354	0	NA	0	0	0	0	NA	0	0	0	NA	0	0	0	0	NA	0	0	2	1	31
Arrow Flanker 2014	12316	1	"<?xml version=""1.0""?>\n<Clock xmlns:dt=""urn:schemas-microsoft-com:datatypes""><Description dt:dt=""string"">E-Prime Primary Realtime Clock</Description><StartTime><Timestamp dt:dt=""int"">0</Timestamp><DateUtc dt:dt=""string"">2015-06-02T14:33:16Z</DateUtc></StartTime><FrequencyChanges><FrequencyChange><Frequency dt:dt=""r8"">2825664</Frequency><Timestamp dt:dt=""r8"">4653120899626</Timestamp><Current dt:dt=""r8"">0</Current><DateUtc dt:dt=""string"">2015-06-02T14:33:16Z</DateUtc></FrequencyChange></FrequencyChanges></Clock>\n"	Arrow Flanker 2014-12316-1	60.018	1.0.0.98	1	1671870363	Professional	2.0.10.353	2.0.10.353	06-02-2015	6/2/2015 2:33:17 PM	10:33:17	2.0.10.248	3	1	1	1	NA	NA	NA	NA	NA	NA	NA	NA	NA	NA	NA	NA	NA	NA	NA	NA	NA	NA	NA	NA	NA	NA	NA	NA	BlockProc	BlockList	NA	32	{LEFTARROW}	NA	-100	914	incongruent	NA	NA	NA	NA	NA	NA	NA	NA	NA	NA	NA	NA	NA	NA	NA	NA	NA	NA	NA	NA	NA	NA	TrialProc	TrialList	0	10	577756	16	0	17	575923	0	1	{LEFTARROW}	-999999	0	577172	0	{LEFTARROW}	573	577745	NA	NA	left	rrlrr.bmp	354	0	NA	0	0	0	0	NA	0	0	0	NA	0	0	0	0	NA	0	0	3	1	32
Arrow Flanker 2014	12316	1	"<?xml version=""1.0""?>\n<Clock xmlns:dt=""urn:schemas-microsoft-com:datatypes""><Description dt:dt=""string"">E-Prime Primary Realtime Clock</Description><StartTime><Timestamp dt:dt=""int"">0</Timestamp><DateUtc dt:dt=""string"">2015-06-02T14:33:16Z</DateUtc></StartTime><FrequencyChanges><FrequencyChange><Frequency dt:dt=""r8"">2825664</Frequency><Timestamp dt:dt=""r8"">4653120899626</Timestamp><Current dt:dt=""r8"">0</Current><DateUtc dt:dt=""string"">2015-06-02T14:33:16Z</DateUtc></FrequencyChange></FrequencyChanges></Clock>\n"	Arrow Flanker 2014-12316-1	60.018	1.0.0.98	1	1671870363	Professional	2.0.10.353	2.0.10.353	06-02-2015	6/2/2015 2:33:17 PM	10:33:17	2.0.10.248	3	1	1	1	NA	NA	NA	NA	NA	NA	NA	NA	NA	NA	NA	NA	NA	NA	NA	NA	NA	NA	NA	NA	NA	NA	NA	NA	BlockProc	BlockList	NA	33	{LEFTARROW}	NA	-100	950	neutral	NA	NA	NA	NA	NA	NA	NA	NA	NA	NA	NA	NA	NA	NA	NA	NA	NA	NA	NA	NA	NA	NA	TrialProc	TrialList	0	14	580055	17	0	17	578289	0	1	{LEFTARROW}	-999999	0	579322	0	{LEFTARROW}	719	580041	NA	NA	left	ooloo.bmp	354	0	NA	0	0	0	0	NA	0	0	0	NA	0	0	0	0	NA	0	0	5	1	33
Arrow Flanker 2014	12316	1	"<?xml version=""1.0""?>\n<Clock xmlns:dt=""urn:schemas-microsoft-com:datatypes""><Description dt:dt=""string"">E-Prime Primary Realtime Clock</Description><StartTime><Timestamp dt:dt=""int"">0</Timestamp><DateUtc dt:dt=""string"">2015-06-02T14:33:16Z</DateUtc></StartTime><FrequencyChanges><FrequencyChange><Frequency dt:dt=""r8"">2825664</Frequency><Timestamp dt:dt=""r8"">4653120899626</Timestamp><Current dt:dt=""r8"">0</Current><DateUtc dt:dt=""string"">2015-06-02T14:33:16Z</DateUtc></FrequencyChange></FrequencyChanges></Clock>\n"	Arrow Flanker 2014-12316-1	60.018	1.0.0.98	1	1671870363	Professional	2.0.10.353	2.0.10.353	06-02-2015	6/2/2015 2:33:17 PM	10:33:17	2.0.10.248	3	1	1	1	NA	NA	NA	NA	NA	NA	NA	NA	NA	NA	NA	NA	NA	NA	NA	NA	NA	NA	NA	NA	NA	NA	NA	NA	BlockProc	BlockList	NA	34	{RIGHTARROW}	NA	-100	1499	incongruent	NA	NA	NA	NA	NA	NA	NA	NA	NA	NA	NA	NA	NA	NA	NA	NA	NA	NA	NA	NA	NA	NA	TrialProc	TrialList	0	15	582904	17	0	16	580588	0	1	{RIGHTARROW}	-999999	0	582288	0	{RIGHTARROW}	601	582889	NA	NA	right	llrll.bmp	354	0	NA	0	0	0	0	NA	0	0	0	NA	0	0	0	0	NA	0	0	4	1	34
Arrow Flanker 2014	12316	1	"<?xml version=""1.0""?>\n<Clock xmlns:dt=""urn:schemas-microsoft-com:datatypes""><Description dt:dt=""string"">E-Prime Primary Realtime Clock</Description><StartTime><Timestamp dt:dt=""int"">0</Timestamp><DateUtc dt:dt=""string"">2015-06-02T14:33:16Z</DateUtc></StartTime><FrequencyChanges><FrequencyChange><Frequency dt:dt=""r8"">2825664</Frequency><Timestamp dt:dt=""r8"">4653120899626</Timestamp><Current dt:dt=""r8"">0</Current><DateUtc dt:dt=""string"">2015-06-02T14:33:16Z</DateUtc></FrequencyChange></FrequencyChanges></Clock>\n"	Arrow Flanker 2014-12316-1	60.018	1.0.0.98	1	1671870363	Professional	2.0.10.353	2.0.10.353	06-02-2015	6/2/2015 2:33:17 PM	10:33:17	2.0.10.248	3	1	1	1	NA	NA	NA	NA	NA	NA	NA	NA	NA	NA	NA	NA	NA	NA	NA	NA	NA	NA	NA	NA	NA	NA	NA	NA	BlockProc	BlockList	NA	35	{RIGHTARROW}	NA	-100	2374	incongruent	NA	NA	NA	NA	NA	NA	NA	NA	NA	NA	NA	NA	NA	NA	NA	NA	NA	NA	NA	NA	NA	NA	TrialProc	TrialList	0	19	585820	16	0	16	583437	0	1	{RIGHTARROW}	-999999	0	585137	0	{RIGHTARROW}	664	585801	NA	NA	right	llrll.bmp	354	0	NA	0	0	0	0	NA	0	0	0	NA	0	0	0	0	NA	0	0	4	1	35
Arrow Flanker 2014	12316	1	"<?xml version=""1.0""?>\n<Clock xmlns:dt=""urn:schemas-microsoft-com:datatypes""><Description dt:dt=""string"">E-Prime Primary Realtime Clock</Description><StartTime><Timestamp dt:dt=""int"">0</Timestamp><DateUtc dt:dt=""string"">2015-06-02T14:33:16Z</DateUtc></StartTime><FrequencyChanges><FrequencyChange><Frequency dt:dt=""r8"">2825664</Frequency><Timestamp dt:dt=""r8"">4653120899626</Timestamp><Current dt:dt=""r8"">0</Current><DateUtc dt:dt=""string"">2015-06-02T14:33:16Z</DateUtc></FrequencyChange></FrequencyChanges></Clock>\n"	Arrow Flanker 2014-12316-1	60.018	1.0.0.98	1	1671870363	Professional	2.0.10.353	2.0.10.353	06-02-2015	6/2/2015 2:33:17 PM	10:33:17	2.0.10.248	3	1	1	1	NA	NA	NA	NA	NA	NA	NA	NA	NA	NA	NA	NA	NA	NA	NA	NA	NA	NA	NA	NA	NA	NA	NA	NA	BlockProc	BlockList	NA	36	{LEFTARROW}	NA	-100	1866	congruent	NA	NA	NA	NA	NA	NA	NA	NA	NA	NA	NA	NA	NA	NA	NA	NA	NA	NA	NA	NA	NA	NA	TrialProc	TrialList	0	9	588802	17	0	17	586353	0	1	{LEFTARROW}	-999999	0	588086	0	{LEFTARROW}	707	588793	NA	NA	left	lllll.bmp	354	0	NA	0	0	0	0	NA	0	0	0	NA	0	0	0	0	NA	0	0	1	1	36
Arrow Flanker 2014	12316	1	"<?xml version=""1.0""?>\n<Clock xmlns:dt=""urn:schemas-microsoft-com:datatypes""><Description dt:dt=""string"">E-Prime Primary Realtime Clock</Description><StartTime><Timestamp dt:dt=""int"">0</Timestamp><DateUtc dt:dt=""string"">2015-06-02T14:33:16Z</DateUtc></StartTime><FrequencyChanges><FrequencyChange><Frequency dt:dt=""r8"">2825664</Frequency><Timestamp dt:dt=""r8"">4653120899626</Timestamp><Current dt:dt=""r8"">0</Current><DateUtc dt:dt=""string"">2015-06-02T14:33:16Z</DateUtc></FrequencyChange></FrequencyChanges></Clock>\n"	Arrow Flanker 2014-12316-1	60.018	1.0.0.98	1	1671870363	Professional	2.0.10.353	2.0.10.353	06-02-2015	6/2/2015 2:33:17 PM	10:33:17	2.0.10.248	3	1	1	1	NA	NA	NA	NA	NA	NA	NA	NA	NA	NA	NA	NA	NA	NA	NA	NA	NA	NA	NA	NA	NA	NA	NA	NA	BlockProc	BlockList	NA	37	{LEFTARROW}	NA	-100	1952	incongruent	NA	NA	NA	NA	NA	NA	NA	NA	NA	NA	NA	NA	NA	NA	NA	NA	NA	NA	NA	NA	2	1	TrialProc	TrialList	0	12	592101	17	0	16	589335	0	1	{LEFTARROW}	-999999	0	591168	0	{LEFTARROW}	921	592089	NA	NA	left	rrlrr.bmp	354	0	NA	-999999	16	592634	0	1	3979	596613	0	NA	-999999	20	596633	0	1	3179	599812	3	1	37
Arrow Flanker 2014	12316	1	"<?xml version=""1.0""?>\n<Clock xmlns:dt=""urn:schemas-microsoft-com:datatypes""><Description dt:dt=""string"">E-Prime Primary Realtime Clock</Description><StartTime><Timestamp dt:dt=""int"">0</Timestamp><DateUtc dt:dt=""string"">2015-06-02T14:33:16Z</DateUtc></StartTime><FrequencyChanges><FrequencyChange><Frequency dt:dt=""r8"">2825664</Frequency><Timestamp dt:dt=""r8"">4653120899626</Timestamp><Current dt:dt=""r8"">0</Current><DateUtc dt:dt=""string"">2015-06-02T14:33:16Z</DateUtc></FrequencyChange></FrequencyChanges></Clock>\n"	Arrow Flanker 2014-12316-1	60.018	1.0.0.98	1	1671870363	Professional	2.0.10.353	2.0.10.353	06-02-2015	6/2/2015 2:33:17 PM	10:33:17	2.0.10.248	3	1	1	1	NA	NA	NA	NA	NA	NA	NA	NA	NA	NA	NA	NA	NA	NA	NA	NA	NA	NA	NA	NA	NA	NA	NA	NA	BlockProc	BlockList	NA	38	{RIGHTARROW}	NA	-100	1532	neutral	NA	NA	NA	NA	NA	NA	NA	NA	NA	NA	NA	NA	NA	NA	NA	NA	NA	NA	NA	NA	NA	NA	TrialProc	TrialList	0	14	603998	16	0	26	601882	0	1	{RIGHTARROW}	-999999	0	603531	0	{RIGHTARROW}	453	603984	NA	NA	right	ooroo.bmp	354	0	NA	0	0	0	0	NA	0	0	0	NA	0	0	0	0	NA	0	0	6	1	38
Arrow Flanker 2014	12316	1	"<?xml version=""1.0""?>\n<Clock xmlns:dt=""urn:schemas-microsoft-com:datatypes""><Description dt:dt=""string"">E-Prime Primary Realtime Clock</Description><StartTime><Timestamp dt:dt=""int"">0</Timestamp><DateUtc dt:dt=""string"">2015-06-02T14:33:16Z</DateUtc></StartTime><FrequencyChanges><FrequencyChange><Frequency dt:dt=""r8"">2825664</Frequency><Timestamp dt:dt=""r8"">4653120899626</Timestamp><Current dt:dt=""r8"">0</Current><DateUtc dt:dt=""string"">2015-06-02T14:33:16Z</DateUtc></FrequencyChange></FrequencyChanges></Clock>\n"	Arrow Flanker 2014-12316-1	60.018	1.0.0.98	1	1671870363	Professional	2.0.10.353	2.0.10.353	06-02-2015	6/2/2015 2:33:17 PM	10:33:17	2.0.10.248	3	1	1	1	NA	NA	NA	NA	NA	NA	NA	NA	NA	NA	NA	NA	NA	NA	NA	NA	NA	NA	NA	NA	NA	NA	NA	NA	BlockProc	BlockList	NA	39	{RIGHTARROW}	NA	-100	1838	congruent	NA	NA	NA	NA	NA	NA	NA	NA	NA	NA	NA	NA	NA	NA	NA	NA	NA	NA	NA	NA	NA	NA	TrialProc	TrialList	0	6	607030	17	0	17	604531	0	1	{RIGHTARROW}	-999999	0	606514	0	{RIGHTARROW}	510	607024	NA	NA	right	rrrrr.bmp	354	0	NA	0	0	0	0	NA	0	0	0	NA	0	0	0	0	NA	0	0	2	1	39
Arrow Flanker 2014	12316	1	"<?xml version=""1.0""?>\n<Clock xmlns:dt=""urn:schemas-microsoft-com:datatypes""><Description dt:dt=""string"">E-Prime Primary Realtime Clock</Description><StartTime><Timestamp dt:dt=""int"">0</Timestamp><DateUtc dt:dt=""string"">2015-06-02T14:33:16Z</DateUtc></StartTime><FrequencyChanges><FrequencyChange><Frequency dt:dt=""r8"">2825664</Frequency><Timestamp dt:dt=""r8"">4653120899626</Timestamp><Current dt:dt=""r8"">0</Current><DateUtc dt:dt=""string"">2015-06-02T14:33:16Z</DateUtc></FrequencyChange></FrequencyChanges></Clock>\n"	Arrow Flanker 2014-12316-1	60.018	1.0.0.98	1	1671870363	Professional	2.0.10.353	2.0.10.353	06-02-2015	6/2/2015 2:33:17 PM	10:33:17	2.0.10.248	3	1	1	1	NA	NA	NA	NA	NA	NA	NA	NA	NA	NA	NA	NA	NA	NA	NA	NA	NA	NA	NA	NA	NA	NA	NA	NA	BlockProc	BlockList	NA	40	{RIGHTARROW}	NA	-100	1671	incongruent	NA	NA	NA	NA	NA	NA	NA	NA	NA	NA	NA	NA	NA	NA	NA	NA	NA	NA	NA	NA	NA	NA	TrialProc	TrialList	1	13	609429	17	0	16	607563	0	1	{RIGHTARROW}	-999999	0	608863	0	{RIGHTARROW}	553	609416	NA	NA	right	llrll.bmp	354	0	NA	0	0	0	0	NA	0	0	0	NA	0	0	0	0	NA	0	0	4	1	40
Arrow Flanker 2014	12316	1	"<?xml version=""1.0""?>\n<Clock xmlns:dt=""urn:schemas-microsoft-com:datatypes""><Description dt:dt=""string"">E-Prime Primary Realtime Clock</Description><StartTime><Timestamp dt:dt=""int"">0</Timestamp><DateUtc dt:dt=""string"">2015-06-02T14:33:16Z</DateUtc></StartTime><FrequencyChanges><FrequencyChange><Frequency dt:dt=""r8"">2825664</Frequency><Timestamp dt:dt=""r8"">4653120899626</Timestamp><Current dt:dt=""r8"">0</Current><DateUtc dt:dt=""string"">2015-06-02T14:33:16Z</DateUtc></FrequencyChange></FrequencyChanges></Clock>\n"	Arrow Flanker 2014-12316-1	60.018	1.0.0.98	1	1671870363	Professional	2.0.10.353	2.0.10.353	06-02-2015	6/2/2015 2:33:17 PM	10:33:17	2.0.10.248	3	1	1	1	NA	NA	NA	NA	NA	NA	NA	NA	NA	NA	NA	NA	NA	NA	NA	NA	NA	NA	NA	NA	NA	NA	NA	NA	BlockProc	BlockList	NA	41	{RIGHTARROW}	NA	-100	1594	incongruent	NA	NA	NA	NA	NA	NA	NA	NA	NA	NA	NA	NA	NA	NA	NA	NA	NA	NA	NA	NA	NA	NA	TrialProc	TrialList	0	10	611729	16	0	16	609962	0	1	{RIGHTARROW}	-999999	0	611179	0	{RIGHTARROW}	540	611719	NA	NA	right	llrll.bmp	354	0	NA	0	0	0	0	NA	0	0	0	NA	0	0	0	0	NA	0	0	4	1	41
Arrow Flanker 2014	12316	1	"<?xml version=""1.0""?>\n<Clock xmlns:dt=""urn:schemas-microsoft-com:datatypes""><Description dt:dt=""string"">E-Prime Primary Realtime Clock</Description><StartTime><Timestamp dt:dt=""int"">0</Timestamp><DateUtc dt:dt=""string"">2015-06-02T14:33:16Z</DateUtc></StartTime><FrequencyChanges><FrequencyChange><Frequency dt:dt=""r8"">2825664</Frequency><Timestamp dt:dt=""r8"">4653120899626</Timestamp><Current dt:dt=""r8"">0</Current><DateUtc dt:dt=""string"">2015-06-02T14:33:16Z</DateUtc></FrequencyChange></FrequencyChanges></Clock>\n"	Arrow Flanker 2014-12316-1	60.018	1.0.0.98	1	1671870363	Professional	2.0.10.353	2.0.10.353	06-02-2015	6/2/2015 2:33:17 PM	10:33:17	2.0.10.248	3	1	1	1	NA	NA	NA	NA	NA	NA	NA	NA	NA	NA	NA	NA	NA	NA	NA	NA	NA	NA	NA	NA	NA	NA	NA	NA	BlockProc	BlockList	NA	42	{LEFTARROW}	NA	-100	2322	incongruent	NA	NA	NA	NA	NA	NA	NA	NA	NA	NA	NA	NA	NA	NA	NA	NA	NA	NA	NA	NA	NA	NA	TrialProc	TrialList	0	15	614878	16	0	17	612262	0	1	{LEFTARROW}	-999999	0	614178	0	{LEFTARROW}	685	614863	NA	NA	left	rrlrr.bmp	354	0	NA	0	0	0	0	NA	0	0	0	NA	0	0	0	0	NA	0	0	3	1	42
Arrow Flanker 2014	12316	1	"<?xml version=""1.0""?>\n<Clock xmlns:dt=""urn:schemas-microsoft-com:datatypes""><Description dt:dt=""string"">E-Prime Primary Realtime Clock</Description><StartTime><Timestamp dt:dt=""int"">0</Timestamp><DateUtc dt:dt=""string"">2015-06-02T14:33:16Z</DateUtc></StartTime><FrequencyChanges><FrequencyChange><Frequency dt:dt=""r8"">2825664</Frequency><Timestamp dt:dt=""r8"">4653120899626</Timestamp><Current dt:dt=""r8"">0</Current><DateUtc dt:dt=""string"">2015-06-02T14:33:16Z</DateUtc></FrequencyChange></FrequencyChanges></Clock>\n"	Arrow Flanker 2014-12316-1	60.018	1.0.0.98	1	1671870363	Professional	2.0.10.353	2.0.10.353	06-02-2015	6/2/2015 2:33:17 PM	10:33:17	2.0.10.248	3	1	1	1	NA	NA	NA	NA	NA	NA	NA	NA	NA	NA	NA	NA	NA	NA	NA	NA	NA	NA	NA	NA	NA	NA	NA	NA	BlockProc	BlockList	NA	43	{RIGHTARROW}	NA	-100	2264	neutral	NA	NA	NA	NA	NA	NA	NA	NA	NA	NA	NA	NA	NA	NA	NA	NA	NA	NA	NA	NA	NA	NA	TrialProc	TrialList	0	5	617860	17	0	17	615411	0	1	{RIGHTARROW}	-999999	0	617344	0	{RIGHTARROW}	511	617855	NA	NA	right	ooroo.bmp	354	0	NA	0	0	0	0	NA	0	0	0	NA	0	0	0	0	NA	0	0	6	1	43
Arrow Flanker 2014	12316	1	"<?xml version=""1.0""?>\n<Clock xmlns:dt=""urn:schemas-microsoft-com:datatypes""><Description dt:dt=""string"">E-Prime Primary Realtime Clock</Description><StartTime><Timestamp dt:dt=""int"">0</Timestamp><DateUtc dt:dt=""string"">2015-06-02T14:33:16Z</DateUtc></StartTime><FrequencyChanges><FrequencyChange><Frequency dt:dt=""r8"">2825664</Frequency><Timestamp dt:dt=""r8"">4653120899626</Timestamp><Current dt:dt=""r8"">0</Current><DateUtc dt:dt=""string"">2015-06-02T14:33:16Z</DateUtc></FrequencyChange></FrequencyChanges></Clock>\n"	Arrow Flanker 2014-12316-1	60.018	1.0.0.98	1	1671870363	Professional	2.0.10.353	2.0.10.353	06-02-2015	6/2/2015 2:33:17 PM	10:33:17	2.0.10.248	3	1	1	1	NA	NA	NA	NA	NA	NA	NA	NA	NA	NA	NA	NA	NA	NA	NA	NA	NA	NA	NA	NA	NA	NA	NA	NA	BlockProc	BlockList	NA	44	{LEFTARROW}	NA	-100	1835	congruent	NA	NA	NA	NA	NA	NA	NA	NA	NA	NA	NA	NA	NA	NA	NA	NA	NA	NA	NA	NA	NA	NA	TrialProc	TrialList	0	15	620326	17	0	16	618393	0	1	{LEFTARROW}	-999999	0	619676	0	{LEFTARROW}	635	620311	NA	NA	left	lllll.bmp	354	0	NA	0	0	0	0	NA	0	0	0	NA	0	0	0	0	NA	0	0	1	1	44
Arrow Flanker 2014	12316	1	"<?xml version=""1.0""?>\n<Clock xmlns:dt=""urn:schemas-microsoft-com:datatypes""><Description dt:dt=""string"">E-Prime Primary Realtime Clock</Description><StartTime><Timestamp dt:dt=""int"">0</Timestamp><DateUtc dt:dt=""string"">2015-06-02T14:33:16Z</DateUtc></StartTime><FrequencyChanges><FrequencyChange><Frequency dt:dt=""r8"">2825664</Frequency><Timestamp dt:dt=""r8"">4653120899626</Timestamp><Current dt:dt=""r8"">0</Current><DateUtc dt:dt=""string"">2015-06-02T14:33:16Z</DateUtc></FrequencyChange></FrequencyChanges></Clock>\n"	Arrow Flanker 2014-12316-1	60.018	1.0.0.98	1	1671870363	Professional	2.0.10.353	2.0.10.353	06-02-2015	6/2/2015 2:33:17 PM	10:33:17	2.0.10.248	3	1	1	1	NA	NA	NA	NA	NA	NA	NA	NA	NA	NA	NA	NA	NA	NA	NA	NA	NA	NA	NA	NA	NA	NA	NA	NA	BlockProc	BlockList	NA	45	{RIGHTARROW}	NA	-100	1262	neutral	NA	NA	NA	NA	NA	NA	NA	NA	NA	NA	NA	NA	NA	NA	NA	NA	NA	NA	NA	NA	NA	NA	TrialProc	TrialList	0	17	622576	16	0	16	620859	0	1	{RIGHTARROW}	-999999	0	622159	0	{RIGHTARROW}	400	622559	NA	NA	right	ooroo.bmp	354	0	NA	0	0	0	0	NA	0	0	0	NA	0	0	0	0	NA	0	0	6	1	45
Arrow Flanker 2014	12316	1	"<?xml version=""1.0""?>\n<Clock xmlns:dt=""urn:schemas-microsoft-com:datatypes""><Description dt:dt=""string"">E-Prime Primary Realtime Clock</Description><StartTime><Timestamp dt:dt=""int"">0</Timestamp><DateUtc dt:dt=""string"">2015-06-02T14:33:16Z</DateUtc></StartTime><FrequencyChanges><FrequencyChange><Frequency dt:dt=""r8"">2825664</Frequency><Timestamp dt:dt=""r8"">4653120899626</Timestamp><Current dt:dt=""r8"">0</Current><DateUtc dt:dt=""string"">2015-06-02T14:33:16Z</DateUtc></FrequencyChange></FrequencyChanges></Clock>\n"	Arrow Flanker 2014-12316-1	60.018	1.0.0.98	1	1671870363	Professional	2.0.10.353	2.0.10.353	06-02-2015	6/2/2015 2:33:17 PM	10:33:17	2.0.10.248	3	1	1	1	NA	NA	NA	NA	NA	NA	NA	NA	NA	NA	NA	NA	NA	NA	NA	NA	NA	NA	NA	NA	NA	NA	NA	NA	BlockProc	BlockList	NA	46	{RIGHTARROW}	NA	-100	2179	neutral	NA	NA	NA	NA	NA	NA	NA	NA	NA	NA	NA	NA	NA	NA	NA	NA	NA	NA	NA	NA	NA	NA	TrialProc	TrialList	1	11	625674	17	0	17	623109	0	1	{RIGHTARROW}	-999999	0	625175	0	{RIGHTARROW}	487	625662	NA	NA	right	ooroo.bmp	354	0	NA	0	0	0	0	NA	0	0	0	NA	0	0	0	0	NA	0	0	6	1	46
Arrow Flanker 2014	12316	1	"<?xml version=""1.0""?>\n<Clock xmlns:dt=""urn:schemas-microsoft-com:datatypes""><Description dt:dt=""string"">E-Prime Primary Realtime Clock</Description><StartTime><Timestamp dt:dt=""int"">0</Timestamp><DateUtc dt:dt=""string"">2015-06-02T14:33:16Z</DateUtc></StartTime><FrequencyChanges><FrequencyChange><Frequency dt:dt=""r8"">2825664</Frequency><Timestamp dt:dt=""r8"">4653120899626</Timestamp><Current dt:dt=""r8"">0</Current><DateUtc dt:dt=""string"">2015-06-02T14:33:16Z</DateUtc></FrequencyChange></FrequencyChanges></Clock>\n"	Arrow Flanker 2014-12316-1	60.018	1.0.0.98	1	1671870363	Professional	2.0.10.353	2.0.10.353	06-02-2015	6/2/2015 2:33:17 PM	10:33:17	2.0.10.248	3	1	1	1	NA	NA	NA	NA	NA	NA	NA	NA	NA	NA	NA	NA	NA	NA	NA	NA	NA	NA	NA	NA	NA	NA	NA	NA	BlockProc	BlockList	NA	47	{LEFTARROW}	NA	-100	2087	incongruent	NA	NA	NA	NA	NA	NA	NA	NA	NA	NA	NA	NA	NA	NA	NA	NA	NA	NA	NA	NA	NA	NA	TrialProc	TrialList	1	12	628490	17	0	17	626208	0	1	{LEFTARROW}	-999999	0	627907	0	{LEFTARROW}	571	628478	NA	NA	left	rrlrr.bmp	354	0	NA	0	0	0	0	NA	0	0	0	NA	0	0	0	0	NA	0	0	3	1	47
Arrow Flanker 2014	12316	1	"<?xml version=""1.0""?>\n<Clock xmlns:dt=""urn:schemas-microsoft-com:datatypes""><Description dt:dt=""string"">E-Prime Primary Realtime Clock</Description><StartTime><Timestamp dt:dt=""int"">0</Timestamp><DateUtc dt:dt=""string"">2015-06-02T14:33:16Z</DateUtc></StartTime><FrequencyChanges><FrequencyChange><Frequency dt:dt=""r8"">2825664</Frequency><Timestamp dt:dt=""r8"">4653120899626</Timestamp><Current dt:dt=""r8"">0</Current><DateUtc dt:dt=""string"">2015-06-02T14:33:16Z</DateUtc></FrequencyChange></FrequencyChanges></Clock>\n"	Arrow Flanker 2014-12316-1	60.018	1.0.0.98	1	1671870363	Professional	2.0.10.353	2.0.10.353	06-02-2015	6/2/2015 2:33:17 PM	10:33:17	2.0.10.248	3	1	1	1	NA	NA	NA	NA	NA	NA	NA	NA	NA	NA	NA	NA	NA	NA	NA	NA	NA	NA	NA	NA	NA	NA	NA	NA	BlockProc	BlockList	NA	48	{RIGHTARROW}	NA	-100	2563	incongruent	NA	NA	NA	NA	NA	NA	NA	NA	NA	NA	NA	NA	NA	NA	NA	NA	NA	NA	NA	NA	NA	NA	TrialProc	TrialList	1	17	631639	17	0	16	629023	0	1	{RIGHTARROW}	-999999	0	631023	0	{RIGHTARROW}	599	631622	NA	NA	right	llrll.bmp	354	0	NA	0	0	0	0	NA	0	0	0	NA	0	0	0	0	NA	0	0	4	1	48
Arrow Flanker 2014	12316	1	"<?xml version=""1.0""?>\n<Clock xmlns:dt=""urn:schemas-microsoft-com:datatypes""><Description dt:dt=""string"">E-Prime Primary Realtime Clock</Description><StartTime><Timestamp dt:dt=""int"">0</Timestamp><DateUtc dt:dt=""string"">2015-06-02T14:33:16Z</DateUtc></StartTime><FrequencyChanges><FrequencyChange><Frequency dt:dt=""r8"">2825664</Frequency><Timestamp dt:dt=""r8"">4653120899626</Timestamp><Current dt:dt=""r8"">0</Current><DateUtc dt:dt=""string"">2015-06-02T14:33:16Z</DateUtc></FrequencyChange></FrequencyChanges></Clock>\n"	Arrow Flanker 2014-12316-1	60.018	1.0.0.98	1	1671870363	Professional	2.0.10.353	2.0.10.353	06-02-2015	6/2/2015 2:33:17 PM	10:33:17	2.0.10.248	3	1	1	1	NA	NA	NA	NA	NA	NA	NA	NA	NA	NA	NA	NA	NA	NA	NA	NA	NA	NA	NA	NA	NA	NA	NA	NA	BlockProc	BlockList	NA	49	{LEFTARROW}	NA	-100	1617	incongruent	NA	NA	NA	NA	NA	NA	NA	NA	NA	NA	NA	NA	NA	NA	NA	NA	NA	NA	NA	NA	NA	NA	TrialProc	TrialList	0	15	635005	17	0	17	632173	0	1	{LEFTARROW}	-999999	0	634122	0	{LEFTARROW}	868	634990	NA	NA	left	rrlrr.bmp	354	0	NA	0	0	0	0	NA	0	0	0	NA	0	0	0	0	NA	0	0	3	1	49
Arrow Flanker 2014	12316	1	"<?xml version=""1.0""?>\n<Clock xmlns:dt=""urn:schemas-microsoft-com:datatypes""><Description dt:dt=""string"">E-Prime Primary Realtime Clock</Description><StartTime><Timestamp dt:dt=""int"">0</Timestamp><DateUtc dt:dt=""string"">2015-06-02T14:33:16Z</DateUtc></StartTime><FrequencyChanges><FrequencyChange><Frequency dt:dt=""r8"">2825664</Frequency><Timestamp dt:dt=""r8"">4653120899626</Timestamp><Current dt:dt=""r8"">0</Current><DateUtc dt:dt=""string"">2015-06-02T14:33:16Z</DateUtc></FrequencyChange></FrequencyChanges></Clock>\n"	Arrow Flanker 2014-12316-1	60.018	1.0.0.98	1	1671870363	Professional	2.0.10.353	2.0.10.353	06-02-2015	6/2/2015 2:33:17 PM	10:33:17	2.0.10.248	3	1	1	1	NA	NA	NA	NA	NA	NA	NA	NA	NA	NA	NA	NA	NA	NA	NA	NA	NA	NA	NA	NA	NA	NA	NA	NA	BlockProc	BlockList	NA	50	{LEFTARROW}	NA	-100	1441	neutral	NA	NA	NA	NA	NA	NA	NA	NA	NA	NA	NA	NA	NA	NA	NA	NA	NA	NA	NA	NA	NA	NA	TrialProc	TrialList	0	8	637038	16	0	16	635538	0	1	{LEFTARROW}	-999999	0	636571	0	{LEFTARROW}	459	637030	NA	NA	left	ooloo.bmp	354	0	NA	0	0	0	0	NA	0	0	0	NA	0	0	0	0	NA	0	0	5	1	50
Arrow Flanker 2014	12316	1	"<?xml version=""1.0""?>\n<Clock xmlns:dt=""urn:schemas-microsoft-com:datatypes""><Description dt:dt=""string"">E-Prime Primary Realtime Clock</Description><StartTime><Timestamp dt:dt=""int"">0</Timestamp><DateUtc dt:dt=""string"">2015-06-02T14:33:16Z</DateUtc></StartTime><FrequencyChanges><FrequencyChange><Frequency dt:dt=""r8"">2825664</Frequency><Timestamp dt:dt=""r8"">4653120899626</Timestamp><Current dt:dt=""r8"">0</Current><DateUtc dt:dt=""string"">2015-06-02T14:33:16Z</DateUtc></FrequencyChange></FrequencyChanges></Clock>\n"	Arrow Flanker 2014-12316-1	60.018	1.0.0.98	1	1671870363	Professional	2.0.10.353	2.0.10.353	06-02-2015	6/2/2015 2:33:17 PM	10:33:17	2.0.10.248	3	1	1	1	NA	NA	NA	NA	NA	NA	NA	NA	NA	NA	NA	NA	NA	NA	NA	NA	NA	NA	NA	NA	NA	NA	NA	NA	BlockProc	BlockList	NA	51	{RIGHTARROW}	NA	-100	975	incongruent	NA	NA	NA	NA	NA	NA	NA	NA	NA	NA	NA	NA	NA	NA	NA	NA	NA	NA	NA	NA	NA	NA	TrialProc	TrialList	0	5	639171	16	0	17	637571	0	1	{RIGHTARROW}	-999999	0	638654	0	{RIGHTARROW}	512	639166	NA	NA	right	llrll.bmp	354	0	NA	0	0	0	0	NA	0	0	0	NA	0	0	0	0	NA	0	0	4	1	51
Arrow Flanker 2014	12316	1	"<?xml version=""1.0""?>\n<Clock xmlns:dt=""urn:schemas-microsoft-com:datatypes""><Description dt:dt=""string"">E-Prime Primary Realtime Clock</Description><StartTime><Timestamp dt:dt=""int"">0</Timestamp><DateUtc dt:dt=""string"">2015-06-02T14:33:16Z</DateUtc></StartTime><FrequencyChanges><FrequencyChange><Frequency dt:dt=""r8"">2825664</Frequency><Timestamp dt:dt=""r8"">4653120899626</Timestamp><Current dt:dt=""r8"">0</Current><DateUtc dt:dt=""string"">2015-06-02T14:33:16Z</DateUtc></FrequencyChange></FrequencyChanges></Clock>\n"	Arrow Flanker 2014-12316-1	60.018	1.0.0.98	1	1671870363	Professional	2.0.10.353	2.0.10.353	06-02-2015	6/2/2015 2:33:17 PM	10:33:17	2.0.10.248	3	1	1	1	NA	NA	NA	NA	NA	NA	NA	NA	NA	NA	NA	NA	NA	NA	NA	NA	NA	NA	NA	NA	NA	NA	NA	NA	BlockProc	BlockList	NA	52	{RIGHTARROW}	NA	-100	1320	neutral	NA	NA	NA	NA	NA	NA	NA	NA	NA	NA	NA	NA	NA	NA	NA	NA	NA	NA	NA	NA	NA	NA	TrialProc	TrialList	1	12	641786	17	0	17	639704	0	1	{RIGHTARROW}	-999999	0	641320	0	{RIGHTARROW}	453	641773	NA	NA	right	ooroo.bmp	354	0	NA	0	0	0	0	NA	0	0	0	NA	0	0	0	0	NA	0	0	6	1	52
Arrow Flanker 2014	12316	1	"<?xml version=""1.0""?>\n<Clock xmlns:dt=""urn:schemas-microsoft-com:datatypes""><Description dt:dt=""string"">E-Prime Primary Realtime Clock</Description><StartTime><Timestamp dt:dt=""int"">0</Timestamp><DateUtc dt:dt=""string"">2015-06-02T14:33:16Z</DateUtc></StartTime><FrequencyChanges><FrequencyChange><Frequency dt:dt=""r8"">2825664</Frequency><Timestamp dt:dt=""r8"">4653120899626</Timestamp><Current dt:dt=""r8"">0</Current><DateUtc dt:dt=""string"">2015-06-02T14:33:16Z</DateUtc></FrequencyChange></FrequencyChanges></Clock>\n"	Arrow Flanker 2014-12316-1	60.018	1.0.0.98	1	1671870363	Professional	2.0.10.353	2.0.10.353	06-02-2015	6/2/2015 2:33:17 PM	10:33:17	2.0.10.248	3	1	1	1	NA	NA	NA	NA	NA	NA	NA	NA	NA	NA	NA	NA	NA	NA	NA	NA	NA	NA	NA	NA	NA	NA	NA	NA	BlockProc	BlockList	NA	53	{LEFTARROW}	NA	-100	1798	incongruent	NA	NA	NA	NA	NA	NA	NA	NA	NA	NA	NA	NA	NA	NA	NA	NA	NA	NA	NA	NA	NA	NA	TrialProc	TrialList	1	12	644402	17	0	17	642320	0	1	{LEFTARROW}	-999999	-1	643702	0	{LEFTARROW}	687	644389	NA	NA	left	rrlrr.bmp	354	0	NA	0	0	0	0	NA	0	0	0	NA	0	0	0	0	NA	0	0	3	1	53
Arrow Flanker 2014	12316	1	"<?xml version=""1.0""?>\n<Clock xmlns:dt=""urn:schemas-microsoft-com:datatypes""><Description dt:dt=""string"">E-Prime Primary Realtime Clock</Description><StartTime><Timestamp dt:dt=""int"">0</Timestamp><DateUtc dt:dt=""string"">2015-06-02T14:33:16Z</DateUtc></StartTime><FrequencyChanges><FrequencyChange><Frequency dt:dt=""r8"">2825664</Frequency><Timestamp dt:dt=""r8"">4653120899626</Timestamp><Current dt:dt=""r8"">0</Current><DateUtc dt:dt=""string"">2015-06-02T14:33:16Z</DateUtc></FrequencyChange></FrequencyChanges></Clock>\n"	Arrow Flanker 2014-12316-1	60.018	1.0.0.98	1	1671870363	Professional	2.0.10.353	2.0.10.353	06-02-2015	6/2/2015 2:33:17 PM	10:33:17	2.0.10.248	3	1	1	1	NA	NA	NA	NA	NA	NA	NA	NA	NA	NA	NA	NA	NA	NA	NA	NA	NA	NA	NA	NA	NA	NA	NA	NA	BlockProc	BlockList	NA	54	{RIGHTARROW}	NA	-100	1938	congruent	NA	NA	NA	NA	NA	NA	NA	NA	NA	NA	NA	NA	NA	NA	NA	NA	NA	NA	NA	NA	4	1	TrialProc	TrialList	0	10	646935	16	0	16	644935	0	1	{RIGHTARROW}	-999999	0	646402	0	{RIGHTARROW}	523	646925	NA	NA	right	rrrrr.bmp	354	0	NA	-999999	17	647468	0	1	7789	655257	0	NA	-999999	25	655282	0	1	3271	658553	2	1	54
Arrow Flanker 2014	12316	1	"<?xml version=""1.0""?>\n<Clock xmlns:dt=""urn:schemas-microsoft-com:datatypes""><Description dt:dt=""string"">E-Prime Primary Realtime Clock</Description><StartTime><Timestamp dt:dt=""int"">0</Timestamp><DateUtc dt:dt=""string"">2015-06-02T14:33:16Z</DateUtc></StartTime><FrequencyChanges><FrequencyChange><Frequency dt:dt=""r8"">2825664</Frequency><Timestamp dt:dt=""r8"">4653120899626</Timestamp><Current dt:dt=""r8"">0</Current><DateUtc dt:dt=""string"">2015-06-02T14:33:16Z</DateUtc></FrequencyChange></FrequencyChanges></Clock>\n"	Arrow Flanker 2014-12316-1	60.018	1.0.0.98	1	1671870363	Professional	2.0.10.353	2.0.10.353	06-02-2015	6/2/2015 2:33:17 PM	10:33:17	2.0.10.248	3	1	1	1	NA	NA	NA	NA	NA	NA	NA	NA	NA	NA	NA	NA	NA	NA	NA	NA	NA	NA	NA	NA	NA	NA	NA	NA	BlockProc	BlockList	NA	55	{RIGHTARROW}	NA	-100	1709	neutral	NA	NA	NA	NA	NA	NA	NA	NA	NA	NA	NA	NA	NA	NA	NA	NA	NA	NA	NA	NA	NA	NA	TrialProc	TrialList	0	17	662797	16	0	27	660231	0	1	{RIGHTARROW}	-999999	0	662264	0	{RIGHTARROW}	516	662780	NA	NA	right	ooroo.bmp	354	0	NA	0	0	0	0	NA	0	0	0	NA	0	0	0	0	NA	0	0	6	1	55
Arrow Flanker 2014	12316	1	"<?xml version=""1.0""?>\n<Clock xmlns:dt=""urn:schemas-microsoft-com:datatypes""><Description dt:dt=""string"">E-Prime Primary Realtime Clock</Description><StartTime><Timestamp dt:dt=""int"">0</Timestamp><DateUtc dt:dt=""string"">2015-06-02T14:33:16Z</DateUtc></StartTime><FrequencyChanges><FrequencyChange><Frequency dt:dt=""r8"">2825664</Frequency><Timestamp dt:dt=""r8"">4653120899626</Timestamp><Current dt:dt=""r8"">0</Current><DateUtc dt:dt=""string"">2015-06-02T14:33:16Z</DateUtc></FrequencyChange></FrequencyChanges></Clock>\n"	Arrow Flanker 2014-12316-1	60.018	1.0.0.98	1	1671870363	Professional	2.0.10.353	2.0.10.353	06-02-2015	6/2/2015 2:33:17 PM	10:33:17	2.0.10.248	3	1	1	1	NA	NA	NA	NA	NA	NA	NA	NA	NA	NA	NA	NA	NA	NA	NA	NA	NA	NA	NA	NA	NA	NA	NA	NA	BlockProc	BlockList	NA	56	{LEFTARROW}	NA	-100	1924	neutral	NA	NA	NA	NA	NA	NA	NA	NA	NA	NA	NA	NA	NA	NA	NA	NA	NA	NA	NA	NA	NA	NA	TrialProc	TrialList	1	7	665379	17	0	17	663330	0	1	{LEFTARROW}	-999999	0	664896	0	{LEFTARROW}	476	665372	NA	NA	left	ooloo.bmp	354	0	NA	0	0	0	0	NA	0	0	0	NA	0	0	0	0	NA	0	0	5	1	56
Arrow Flanker 2014	12316	1	"<?xml version=""1.0""?>\n<Clock xmlns:dt=""urn:schemas-microsoft-com:datatypes""><Description dt:dt=""string"">E-Prime Primary Realtime Clock</Description><StartTime><Timestamp dt:dt=""int"">0</Timestamp><DateUtc dt:dt=""string"">2015-06-02T14:33:16Z</DateUtc></StartTime><FrequencyChanges><FrequencyChange><Frequency dt:dt=""r8"">2825664</Frequency><Timestamp dt:dt=""r8"">4653120899626</Timestamp><Current dt:dt=""r8"">0</Current><DateUtc dt:dt=""string"">2015-06-02T14:33:16Z</DateUtc></FrequencyChange></FrequencyChanges></Clock>\n"	Arrow Flanker 2014-12316-1	60.018	1.0.0.98	1	1671870363	Professional	2.0.10.353	2.0.10.353	06-02-2015	6/2/2015 2:33:17 PM	10:33:17	2.0.10.248	3	1	1	1	NA	NA	NA	NA	NA	NA	NA	NA	NA	NA	NA	NA	NA	NA	NA	NA	NA	NA	NA	NA	NA	NA	NA	NA	BlockProc	BlockList	NA	57	{LEFTARROW}	NA	-100	1166	congruent	NA	NA	NA	NA	NA	NA	NA	NA	NA	NA	NA	NA	NA	NA	NA	NA	NA	NA	NA	NA	NA	NA	TrialProc	TrialList	1	5	667729	16	0	17	665913	0	1	{LEFTARROW}	-999999	0	667079	0	{LEFTARROW}	645	667724	NA	NA	left	lllll.bmp	354	0	NA	0	0	0	0	NA	0	0	0	NA	0	0	0	0	NA	0	0	1	1	57
Arrow Flanker 2014	12316	1	"<?xml version=""1.0""?>\n<Clock xmlns:dt=""urn:schemas-microsoft-com:datatypes""><Description dt:dt=""string"">E-Prime Primary Realtime Clock</Description><StartTime><Timestamp dt:dt=""int"">0</Timestamp><DateUtc dt:dt=""string"">2015-06-02T14:33:16Z</DateUtc></StartTime><FrequencyChanges><FrequencyChange><Frequency dt:dt=""r8"">2825664</Frequency><Timestamp dt:dt=""r8"">4653120899626</Timestamp><Current dt:dt=""r8"">0</Current><DateUtc dt:dt=""string"">2015-06-02T14:33:16Z</DateUtc></FrequencyChange></FrequencyChanges></Clock>\n"	Arrow Flanker 2014-12316-1	60.018	1.0.0.98	1	1671870363	Professional	2.0.10.353	2.0.10.353	06-02-2015	6/2/2015 2:33:17 PM	10:33:17	2.0.10.248	3	1	1	1	NA	NA	NA	NA	NA	NA	NA	NA	NA	NA	NA	NA	NA	NA	NA	NA	NA	NA	NA	NA	NA	NA	NA	NA	BlockProc	BlockList	NA	58	{RIGHTARROW}	NA	-100	1819	congruent	NA	NA	NA	NA	NA	NA	NA	NA	NA	NA	NA	NA	NA	NA	NA	NA	NA	NA	NA	NA	NA	NA	TrialProc	TrialList	0	9	670461	17	0	17	668262	0	1	{RIGHTARROW}	-999999	0	670011	0	{RIGHTARROW}	441	670452	NA	NA	right	rrrrr.bmp	354	0	NA	0	0	0	0	NA	0	0	0	NA	0	0	0	0	NA	0	0	2	1	58
Arrow Flanker 2014	12316	1	"<?xml version=""1.0""?>\n<Clock xmlns:dt=""urn:schemas-microsoft-com:datatypes""><Description dt:dt=""string"">E-Prime Primary Realtime Clock</Description><StartTime><Timestamp dt:dt=""int"">0</Timestamp><DateUtc dt:dt=""string"">2015-06-02T14:33:16Z</DateUtc></StartTime><FrequencyChanges><FrequencyChange><Frequency dt:dt=""r8"">2825664</Frequency><Timestamp dt:dt=""r8"">4653120899626</Timestamp><Current dt:dt=""r8"">0</Current><DateUtc dt:dt=""string"">2015-06-02T14:33:16Z</DateUtc></FrequencyChange></FrequencyChanges></Clock>\n"	Arrow Flanker 2014-12316-1	60.018	1.0.0.98	1	1671870363	Professional	2.0.10.353	2.0.10.353	06-02-2015	6/2/2015 2:33:17 PM	10:33:17	2.0.10.248	3	1	1	1	NA	NA	NA	NA	NA	NA	NA	NA	NA	NA	NA	NA	NA	NA	NA	NA	NA	NA	NA	NA	NA	NA	NA	NA	BlockProc	BlockList	NA	59	{RIGHTARROW}	NA	-100	1836	congruent	NA	NA	NA	NA	NA	NA	NA	NA	NA	NA	NA	NA	NA	NA	NA	NA	NA	NA	NA	NA	NA	NA	TrialProc	TrialList	0	14	673394	16	0	16	670994	0	1	{RIGHTARROW}	-999999	0	672711	0	{RIGHTARROW}	669	673380	NA	NA	right	rrrrr.bmp	354	0	NA	0	0	0	0	NA	0	0	0	NA	0	0	0	0	NA	0	0	2	1	59
Arrow Flanker 2014	12316	1	"<?xml version=""1.0""?>\n<Clock xmlns:dt=""urn:schemas-microsoft-com:datatypes""><Description dt:dt=""string"">E-Prime Primary Realtime Clock</Description><StartTime><Timestamp dt:dt=""int"">0</Timestamp><DateUtc dt:dt=""string"">2015-06-02T14:33:16Z</DateUtc></StartTime><FrequencyChanges><FrequencyChange><Frequency dt:dt=""r8"">2825664</Frequency><Timestamp dt:dt=""r8"">4653120899626</Timestamp><Current dt:dt=""r8"">0</Current><DateUtc dt:dt=""string"">2015-06-02T14:33:16Z</DateUtc></FrequencyChange></FrequencyChanges></Clock>\n"	Arrow Flanker 2014-12316-1	60.018	1.0.0.98	1	1671870363	Professional	2.0.10.353	2.0.10.353	06-02-2015	6/2/2015 2:33:17 PM	10:33:17	2.0.10.248	3	1	1	1	NA	NA	NA	NA	NA	NA	NA	NA	NA	NA	NA	NA	NA	NA	NA	NA	NA	NA	NA	NA	NA	NA	NA	NA	BlockProc	BlockList	NA	60	{LEFTARROW}	NA	-100	1759	incongruent	NA	NA	NA	NA	NA	NA	NA	NA	NA	NA	NA	NA	NA	NA	NA	NA	NA	NA	NA	NA	NA	NA	TrialProc	TrialList	0	17	676293	16	0	17	673927	0	1	{LEFTARROW}	-999999	0	675660	0	{LEFTARROW}	615	676275	NA	NA	left	rrlrr.bmp	354	0	NA	0	0	0	0	NA	0	0	0	NA	0	0	0	0	NA	0	0	3	1	60
Arrow Flanker 2014	12316	1	"<?xml version=""1.0""?>\n<Clock xmlns:dt=""urn:schemas-microsoft-com:datatypes""><Description dt:dt=""string"">E-Prime Primary Realtime Clock</Description><StartTime><Timestamp dt:dt=""int"">0</Timestamp><DateUtc dt:dt=""string"">2015-06-02T14:33:16Z</DateUtc></StartTime><FrequencyChanges><FrequencyChange><Frequency dt:dt=""r8"">2825664</Frequency><Timestamp dt:dt=""r8"">4653120899626</Timestamp><Current dt:dt=""r8"">0</Current><DateUtc dt:dt=""string"">2015-06-02T14:33:16Z</DateUtc></FrequencyChange></FrequencyChanges></Clock>\n"	Arrow Flanker 2014-12316-1	60.018	1.0.0.98	1	1671870363	Professional	2.0.10.353	2.0.10.353	06-02-2015	6/2/2015 2:33:17 PM	10:33:17	2.0.10.248	3	1	1	1	NA	NA	NA	NA	NA	NA	NA	NA	NA	NA	NA	NA	NA	NA	NA	NA	NA	NA	NA	NA	NA	NA	NA	NA	BlockProc	BlockList	NA	61	{RIGHTARROW}	NA	-100	2247	congruent	NA	NA	NA	NA	NA	NA	NA	NA	NA	NA	NA	NA	NA	NA	NA	NA	NA	NA	NA	NA	NA	NA	TrialProc	TrialList	0	20	679175	17	0	17	676826	0	1	{RIGHTARROW}	-999999	0	678642	0	{RIGHTARROW}	513	679155	NA	NA	right	rrrrr.bmp	354	0	NA	0	0	0	0	NA	0	0	0	NA	0	0	0	0	NA	0	0	2	1	61
Arrow Flanker 2014	12316	1	"<?xml version=""1.0""?>\n<Clock xmlns:dt=""urn:schemas-microsoft-com:datatypes""><Description dt:dt=""string"">E-Prime Primary Realtime Clock</Description><StartTime><Timestamp dt:dt=""int"">0</Timestamp><DateUtc dt:dt=""string"">2015-06-02T14:33:16Z</DateUtc></StartTime><FrequencyChanges><FrequencyChange><Frequency dt:dt=""r8"">2825664</Frequency><Timestamp dt:dt=""r8"">4653120899626</Timestamp><Current dt:dt=""r8"">0</Current><DateUtc dt:dt=""string"">2015-06-02T14:33:16Z</DateUtc></FrequencyChange></FrequencyChanges></Clock>\n"	Arrow Flanker 2014-12316-1	60.018	1.0.0.98	1	1671870363	Professional	2.0.10.353	2.0.10.353	06-02-2015	6/2/2015 2:33:17 PM	10:33:17	2.0.10.248	3	1	1	1	NA	NA	NA	NA	NA	NA	NA	NA	NA	NA	NA	NA	NA	NA	NA	NA	NA	NA	NA	NA	NA	NA	NA	NA	BlockProc	BlockList	NA	62	{RIGHTARROW}	NA	-100	2059	incongruent	NA	NA	NA	NA	NA	NA	NA	NA	NA	NA	NA	NA	NA	NA	NA	NA	NA	NA	NA	NA	NA	NA	TrialProc	TrialList	1	7	682074	17	0	16	679708	0	1	{RIGHTARROW}	-999999	0	681525	0	{RIGHTARROW}	542	682067	NA	NA	right	llrll.bmp	354	0	NA	0	0	0	0	NA	0	0	0	NA	0	0	0	0	NA	0	0	4	1	62
Arrow Flanker 2014	12316	1	"<?xml version=""1.0""?>\n<Clock xmlns:dt=""urn:schemas-microsoft-com:datatypes""><Description dt:dt=""string"">E-Prime Primary Realtime Clock</Description><StartTime><Timestamp dt:dt=""int"">0</Timestamp><DateUtc dt:dt=""string"">2015-06-02T14:33:16Z</DateUtc></StartTime><FrequencyChanges><FrequencyChange><Frequency dt:dt=""r8"">2825664</Frequency><Timestamp dt:dt=""r8"">4653120899626</Timestamp><Current dt:dt=""r8"">0</Current><DateUtc dt:dt=""string"">2015-06-02T14:33:16Z</DateUtc></FrequencyChange></FrequencyChanges></Clock>\n"	Arrow Flanker 2014-12316-1	60.018	1.0.0.98	1	1671870363	Professional	2.0.10.353	2.0.10.353	06-02-2015	6/2/2015 2:33:17 PM	10:33:17	2.0.10.248	3	1	1	1	NA	NA	NA	NA	NA	NA	NA	NA	NA	NA	NA	NA	NA	NA	NA	NA	NA	NA	NA	NA	NA	NA	NA	NA	BlockProc	BlockList	NA	63	{LEFTARROW}	NA	-100	1597	congruent	NA	NA	NA	NA	NA	NA	NA	NA	NA	NA	NA	NA	NA	NA	NA	NA	NA	NA	NA	NA	NA	NA	TrialProc	TrialList	1	19	684390	17	0	16	682607	0	1	{LEFTARROW}	-999999	-1	683740	0	{LEFTARROW}	631	684371	NA	NA	left	lllll.bmp	354	0	NA	0	0	0	0	NA	0	0	0	NA	0	0	0	0	NA	0	0	1	1	63
Arrow Flanker 2014	12316	1	"<?xml version=""1.0""?>\n<Clock xmlns:dt=""urn:schemas-microsoft-com:datatypes""><Description dt:dt=""string"">E-Prime Primary Realtime Clock</Description><StartTime><Timestamp dt:dt=""int"">0</Timestamp><DateUtc dt:dt=""string"">2015-06-02T14:33:16Z</DateUtc></StartTime><FrequencyChanges><FrequencyChange><Frequency dt:dt=""r8"">2825664</Frequency><Timestamp dt:dt=""r8"">4653120899626</Timestamp><Current dt:dt=""r8"">0</Current><DateUtc dt:dt=""string"">2015-06-02T14:33:16Z</DateUtc></FrequencyChange></FrequencyChanges></Clock>\n"	Arrow Flanker 2014-12316-1	60.018	1.0.0.98	1	1671870363	Professional	2.0.10.353	2.0.10.353	06-02-2015	6/2/2015 2:33:17 PM	10:33:17	2.0.10.248	3	1	1	1	NA	NA	NA	NA	NA	NA	NA	NA	NA	NA	NA	NA	NA	NA	NA	NA	NA	NA	NA	NA	NA	NA	NA	NA	BlockProc	BlockList	NA	64	{LEFTARROW}	NA	-100	2078	neutral	NA	NA	NA	NA	NA	NA	NA	NA	NA	NA	NA	NA	NA	NA	NA	NA	NA	NA	NA	NA	NA	NA	TrialProc	TrialList	0	19	686990	16	0	16	684923	0	1	{LEFTARROW}	-999999	0	686340	0	{LEFTARROW}	631	686971	NA	NA	left	ooloo.bmp	354	0	NA	0	0	0	0	NA	0	0	0	NA	0	0	0	0	NA	0	0	5	1	64
Arrow Flanker 2014	12316	1	"<?xml version=""1.0""?>\n<Clock xmlns:dt=""urn:schemas-microsoft-com:datatypes""><Description dt:dt=""string"">E-Prime Primary Realtime Clock</Description><StartTime><Timestamp dt:dt=""int"">0</Timestamp><DateUtc dt:dt=""string"">2015-06-02T14:33:16Z</DateUtc></StartTime><FrequencyChanges><FrequencyChange><Frequency dt:dt=""r8"">2825664</Frequency><Timestamp dt:dt=""r8"">4653120899626</Timestamp><Current dt:dt=""r8"">0</Current><DateUtc dt:dt=""string"">2015-06-02T14:33:16Z</DateUtc></FrequencyChange></FrequencyChanges></Clock>\n"	Arrow Flanker 2014-12316-1	60.018	1.0.0.98	1	1671870363	Professional	2.0.10.353	2.0.10.353	06-02-2015	6/2/2015 2:33:17 PM	10:33:17	2.0.10.248	3	1	1	1	NA	NA	NA	NA	NA	NA	NA	NA	NA	NA	NA	NA	NA	NA	NA	NA	NA	NA	NA	NA	NA	NA	NA	NA	BlockProc	BlockList	NA	65	{RIGHTARROW}	NA	-100	1540	congruent	NA	NA	NA	NA	NA	NA	NA	NA	NA	NA	NA	NA	NA	NA	NA	NA	NA	NA	NA	NA	NA	NA	TrialProc	TrialList	0	18	689189	16	0	17	687523	0	1	{RIGHTARROW}	-999999	0	688489	0	{RIGHTARROW}	682	689171	NA	NA	right	rrrrr.bmp	354	0	NA	0	0	0	0	NA	0	0	0	NA	0	0	0	0	NA	0	0	2	1	65
Arrow Flanker 2014	12316	1	"<?xml version=""1.0""?>\n<Clock xmlns:dt=""urn:schemas-microsoft-com:datatypes""><Description dt:dt=""string"">E-Prime Primary Realtime Clock</Description><StartTime><Timestamp dt:dt=""int"">0</Timestamp><DateUtc dt:dt=""string"">2015-06-02T14:33:16Z</DateUtc></StartTime><FrequencyChanges><FrequencyChange><Frequency dt:dt=""r8"">2825664</Frequency><Timestamp dt:dt=""r8"">4653120899626</Timestamp><Current dt:dt=""r8"">0</Current><DateUtc dt:dt=""string"">2015-06-02T14:33:16Z</DateUtc></FrequencyChange></FrequencyChanges></Clock>\n"	Arrow Flanker 2014-12316-1	60.018	1.0.0.98	1	1671870363	Professional	2.0.10.353	2.0.10.353	06-02-2015	6/2/2015 2:33:17 PM	10:33:17	2.0.10.248	3	1	1	1	NA	NA	NA	NA	NA	NA	NA	NA	NA	NA	NA	NA	NA	NA	NA	NA	NA	NA	NA	NA	NA	NA	NA	NA	BlockProc	BlockList	NA	66	{LEFTARROW}	NA	-100	781	congruent	NA	NA	NA	NA	NA	NA	NA	NA	NA	NA	NA	NA	NA	NA	NA	NA	NA	NA	NA	NA	NA	NA	TrialProc	TrialList	0	20	691855	16	0	17	689722	0	1	{LEFTARROW}	-999999	0	690805	0	{LEFTARROW}	1030	691835	NA	NA	left	lllll.bmp	354	0	NA	0	0	0	0	NA	0	0	0	NA	0	0	0	0	NA	0	0	1	1	66
Arrow Flanker 2014	12316	1	"<?xml version=""1.0""?>\n<Clock xmlns:dt=""urn:schemas-microsoft-com:datatypes""><Description dt:dt=""string"">E-Prime Primary Realtime Clock</Description><StartTime><Timestamp dt:dt=""int"">0</Timestamp><DateUtc dt:dt=""string"">2015-06-02T14:33:16Z</DateUtc></StartTime><FrequencyChanges><FrequencyChange><Frequency dt:dt=""r8"">2825664</Frequency><Timestamp dt:dt=""r8"">4653120899626</Timestamp><Current dt:dt=""r8"">0</Current><DateUtc dt:dt=""string"">2015-06-02T14:33:16Z</DateUtc></FrequencyChange></FrequencyChanges></Clock>\n"	Arrow Flanker 2014-12316-1	60.018	1.0.0.98	1	1671870363	Professional	2.0.10.353	2.0.10.353	06-02-2015	6/2/2015 2:33:17 PM	10:33:17	2.0.10.248	3	1	1	1	NA	NA	NA	NA	NA	NA	NA	NA	NA	NA	NA	NA	NA	NA	NA	NA	NA	NA	NA	NA	NA	NA	NA	NA	BlockProc	BlockList	NA	67	{LEFTARROW}	NA	-100	854	congruent	NA	NA	NA	NA	NA	NA	NA	NA	NA	NA	NA	NA	NA	NA	NA	NA	NA	NA	NA	NA	NA	NA	TrialProc	TrialList	0	19	694454	17	0	17	692388	0	1	{LEFTARROW}	-999999	0	693521	0	{LEFTARROW}	913	694434	NA	NA	left	lllll.bmp	354	0	NA	0	0	0	0	NA	0	0	0	NA	0	0	0	0	NA	0	0	1	1	67
Arrow Flanker 2014	12316	1	"<?xml version=""1.0""?>\n<Clock xmlns:dt=""urn:schemas-microsoft-com:datatypes""><Description dt:dt=""string"">E-Prime Primary Realtime Clock</Description><StartTime><Timestamp dt:dt=""int"">0</Timestamp><DateUtc dt:dt=""string"">2015-06-02T14:33:16Z</DateUtc></StartTime><FrequencyChanges><FrequencyChange><Frequency dt:dt=""r8"">2825664</Frequency><Timestamp dt:dt=""r8"">4653120899626</Timestamp><Current dt:dt=""r8"">0</Current><DateUtc dt:dt=""string"">2015-06-02T14:33:16Z</DateUtc></FrequencyChange></FrequencyChanges></Clock>\n"	Arrow Flanker 2014-12316-1	60.018	1.0.0.98	1	1671870363	Professional	2.0.10.353	2.0.10.353	06-02-2015	6/2/2015 2:33:17 PM	10:33:17	2.0.10.248	3	1	1	1	NA	NA	NA	NA	NA	NA	NA	NA	NA	NA	NA	NA	NA	NA	NA	NA	NA	NA	NA	NA	NA	NA	NA	NA	BlockProc	BlockList	NA	68	{LEFTARROW}	NA	-100	1364	congruent	NA	NA	NA	NA	NA	NA	NA	NA	NA	NA	NA	NA	NA	NA	NA	NA	NA	NA	NA	NA	NA	NA	TrialProc	TrialList	1	14	697336	17	0	16	694987	0	1	{LEFTARROW}	-999999	0	696570	0	{LEFTARROW}	752	697322	NA	NA	left	lllll.bmp	354	0	NA	0	0	0	0	NA	0	0	0	NA	0	0	0	0	NA	0	0	1	1	68
Arrow Flanker 2014	12316	1	"<?xml version=""1.0""?>\n<Clock xmlns:dt=""urn:schemas-microsoft-com:datatypes""><Description dt:dt=""string"">E-Prime Primary Realtime Clock</Description><StartTime><Timestamp dt:dt=""int"">0</Timestamp><DateUtc dt:dt=""string"">2015-06-02T14:33:16Z</DateUtc></StartTime><FrequencyChanges><FrequencyChange><Frequency dt:dt=""r8"">2825664</Frequency><Timestamp dt:dt=""r8"">4653120899626</Timestamp><Current dt:dt=""r8"">0</Current><DateUtc dt:dt=""string"">2015-06-02T14:33:16Z</DateUtc></FrequencyChange></FrequencyChanges></Clock>\n"	Arrow Flanker 2014-12316-1	60.018	1.0.0.98	1	1671870363	Professional	2.0.10.353	2.0.10.353	06-02-2015	6/2/2015 2:33:17 PM	10:33:17	2.0.10.248	3	1	1	1	NA	NA	NA	NA	NA	NA	NA	NA	NA	NA	NA	NA	NA	NA	NA	NA	NA	NA	NA	NA	NA	NA	NA	NA	BlockProc	BlockList	NA	69	{RIGHTARROW}	NA	-100	1591	neutral	NA	NA	NA	NA	NA	NA	NA	NA	NA	NA	NA	NA	NA	NA	NA	NA	NA	NA	NA	NA	NA	NA	TrialProc	TrialList	0	9	699619	17	0	17	697870	0	1	{RIGHTARROW}	-999999	0	699053	0	{RIGHTARROW}	557	699610	NA	NA	right	ooroo.bmp	354	0	NA	0	0	0	0	NA	0	0	0	NA	0	0	0	0	NA	0	0	6	1	69
Arrow Flanker 2014	12316	1	"<?xml version=""1.0""?>\n<Clock xmlns:dt=""urn:schemas-microsoft-com:datatypes""><Description dt:dt=""string"">E-Prime Primary Realtime Clock</Description><StartTime><Timestamp dt:dt=""int"">0</Timestamp><DateUtc dt:dt=""string"">2015-06-02T14:33:16Z</DateUtc></StartTime><FrequencyChanges><FrequencyChange><Frequency dt:dt=""r8"">2825664</Frequency><Timestamp dt:dt=""r8"">4653120899626</Timestamp><Current dt:dt=""r8"">0</Current><DateUtc dt:dt=""string"">2015-06-02T14:33:16Z</DateUtc></FrequencyChange></FrequencyChanges></Clock>\n"	Arrow Flanker 2014-12316-1	60.018	1.0.0.98	1	1671870363	Professional	2.0.10.353	2.0.10.353	06-02-2015	6/2/2015 2:33:17 PM	10:33:17	2.0.10.248	3	1	1	1	NA	NA	NA	NA	NA	NA	NA	NA	NA	NA	NA	NA	NA	NA	NA	NA	NA	NA	NA	NA	NA	NA	NA	NA	BlockProc	BlockList	NA	70	{RIGHTARROW}	NA	-100	1334	incongruent	NA	NA	NA	NA	NA	NA	NA	NA	NA	NA	NA	NA	NA	NA	NA	NA	NA	NA	NA	NA	4	1	TrialProc	TrialList	0	12	701902	16	0	16	700152	0	1	{RIGHTARROW}	-999999	0	701152	0	{RIGHTARROW}	738	701890	NA	NA	right	llrll.bmp	354	0	NA	-999999	17	702435	0	1	7682	710117	0	NA	-999999	16	710133	0	1	1393	711526	4	1	70
Arrow Flanker 2014	12316	1	"<?xml version=""1.0""?>\n<Clock xmlns:dt=""urn:schemas-microsoft-com:datatypes""><Description dt:dt=""string"">E-Prime Primary Realtime Clock</Description><StartTime><Timestamp dt:dt=""int"">0</Timestamp><DateUtc dt:dt=""string"">2015-06-02T14:33:16Z</DateUtc></StartTime><FrequencyChanges><FrequencyChange><Frequency dt:dt=""r8"">2825664</Frequency><Timestamp dt:dt=""r8"">4653120899626</Timestamp><Current dt:dt=""r8"">0</Current><DateUtc dt:dt=""string"">2015-06-02T14:33:16Z</DateUtc></FrequencyChange></FrequencyChanges></Clock>\n"	Arrow Flanker 2014-12316-1	60.018	1.0.0.98	1	1671870363	Professional	2.0.10.353	2.0.10.353	06-02-2015	6/2/2015 2:33:17 PM	10:33:17	2.0.10.248	3	1	1	1	NA	NA	NA	NA	NA	NA	NA	NA	NA	NA	NA	NA	NA	NA	NA	NA	NA	NA	NA	NA	NA	NA	NA	NA	BlockProc	BlockList	NA	71	{RIGHTARROW}	NA	-100	890	incongruent	NA	NA	NA	NA	NA	NA	NA	NA	NA	NA	NA	NA	NA	NA	NA	NA	NA	NA	NA	NA	NA	NA	TrialProc	TrialList	1	16	714681	17	0	17	712882	0	1	{RIGHTARROW}	-999999	0	713898	0	{RIGHTARROW}	767	714665	NA	NA	right	llrll.bmp	354	0	NA	0	0	0	0	NA	0	0	0	NA	0	0	0	0	NA	0	0	4	1	71
Arrow Flanker 2014	12316	1	"<?xml version=""1.0""?>\n<Clock xmlns:dt=""urn:schemas-microsoft-com:datatypes""><Description dt:dt=""string"">E-Prime Primary Realtime Clock</Description><StartTime><Timestamp dt:dt=""int"">0</Timestamp><DateUtc dt:dt=""string"">2015-06-02T14:33:16Z</DateUtc></StartTime><FrequencyChanges><FrequencyChange><Frequency dt:dt=""r8"">2825664</Frequency><Timestamp dt:dt=""r8"">4653120899626</Timestamp><Current dt:dt=""r8"">0</Current><DateUtc dt:dt=""string"">2015-06-02T14:33:16Z</DateUtc></FrequencyChange></FrequencyChanges></Clock>\n"	Arrow Flanker 2014-12316-1	60.018	1.0.0.98	1	1671870363	Professional	2.0.10.353	2.0.10.353	06-02-2015	6/2/2015 2:33:17 PM	10:33:17	2.0.10.248	3	1	1	1	NA	NA	NA	NA	NA	NA	NA	NA	NA	NA	NA	NA	NA	NA	NA	NA	NA	NA	NA	NA	NA	NA	NA	NA	BlockProc	BlockList	NA	72	{LEFTARROW}	NA	-100	1644	incongruent	NA	NA	NA	NA	NA	NA	NA	NA	NA	NA	NA	NA	NA	NA	NA	NA	NA	NA	NA	NA	NA	NA	TrialProc	TrialList	0	21	717014	17	0	16	715214	0	1	{LEFTARROW}	-999999	0	716331	0	{LEFTARROW}	662	716993	NA	NA	left	rrlrr.bmp	354	0	NA	0	0	0	0	NA	0	0	0	NA	0	0	0	0	NA	0	0	3	1	72
Arrow Flanker 2014	12316	1	"<?xml version=""1.0""?>\n<Clock xmlns:dt=""urn:schemas-microsoft-com:datatypes""><Description dt:dt=""string"">E-Prime Primary Realtime Clock</Description><StartTime><Timestamp dt:dt=""int"">0</Timestamp><DateUtc dt:dt=""string"">2015-06-02T14:33:16Z</DateUtc></StartTime><FrequencyChanges><FrequencyChange><Frequency dt:dt=""r8"">2825664</Frequency><Timestamp dt:dt=""r8"">4653120899626</Timestamp><Current dt:dt=""r8"">0</Current><DateUtc dt:dt=""string"">2015-06-02T14:33:16Z</DateUtc></FrequencyChange></FrequencyChanges></Clock>\n"	Arrow Flanker 2014-12316-1	60.018	1.0.0.98	1	1671870363	Professional	2.0.10.353	2.0.10.353	06-02-2015	6/2/2015 2:33:17 PM	10:33:17	2.0.10.248	3	1	1	1	NA	NA	NA	NA	NA	NA	NA	NA	NA	NA	NA	NA	NA	NA	NA	NA	NA	NA	NA	NA	NA	NA	NA	NA	BlockProc	BlockList	NA	73	{RIGHTARROW}	NA	-100	1940	incongruent	NA	NA	NA	NA	NA	NA	NA	NA	NA	NA	NA	NA	NA	NA	NA	NA	NA	NA	NA	NA	NA	NA	TrialProc	TrialList	0	11	719980	16	0	16	717547	0	1	{RIGHTARROW}	-999999	0	719363	0	{RIGHTARROW}	606	719969	NA	NA	right	llrll.bmp	354	0	NA	0	0	0	0	NA	0	0	0	NA	0	0	0	0	NA	0	0	4	1	73
