ExperimentName	Subject	Session	Clock.Information	DataFile.Basename	Display.RefreshRate	ExperimentVersion	Group	RandomSeed	RuntimeCapabilities	RuntimeVersion	RuntimeVersionExpected	SessionDate	SessionStartDateTimeUtc	SessionTime	StudioVersion	Block	BlockList	BlockList.Cycle	BlockList.Sample	Both	CompletelyMW	CongMeanRT	CongTotal	Fragmented	GoodByeList	GoodByeList.Cycle	GoodByeList.Sample	IncongMeanRT	IncongTotal	MapBlockList	MapBlockList.Cycle	MapBlockList.Sample	Mindwandering	MostlyMW	MostlyOT	NeutralMeanRT	NeutralTotal	NumberProbes1	NumberProbes2	OnTask	PracBlockList	PracBlockList.Cycle	PracBlockList.Sample	Procedure[Block]	Running[Block]	Sequential	Trial	CorrectAnswer	CuePositionY	CuePositionY2	DurationOfFixation	FlankerType	MapTrialList	MapTrialList.Cycle	MapTrialList.Sample	PracSlideFixationStart.DurationError	PracSlideFixationStart.OnsetDelay	PracSlideFixationStart.OnsetTime	PracSlideFixationStart.OnsetToOnsetTime	PracSlideTarget.ACC	PracSlideTarget.CRESP	PracSlideTarget.DurationError	PracSlideTarget.OnsetDelay	PracSlideTarget.OnsetTime	PracSlideTarget.OnsetToOnsetTime	PracSlideTarget.RESP	PracSlideTarget.RT	PracSlideTarget.RTTime	PracSlideTarget.Tag	PracTrialList	PracTrialList.Cycle	PracTrialList.Sample	Probe1Resp	Probe2Resp	Procedure[Trial]	Running[Trial]	SlideFixationEnd.DurationError	SlideFixationEnd.OnsetDelay	SlideFixationEnd.OnsetTime	SlideFixationEnd.OnsetToOnsetTime	SlideFixationStart.DurationError	SlideFixationStart.OnsetDelay	SlideFixationStart.OnsetTime	SlideFixationStart.OnsetToOnsetTime	SlideTarget.ACC	SlideTarget.CRESP	SlideTarget.DurationError	SlideTarget.OnsetDelay	SlideTarget.OnsetTime	SlideTarget.OnsetToOnsetTime	SlideTarget.RESP	SlideTarget.RT	SlideTarget.RTTime	SlideTarget.Tag	TargerDirection	TargetDirection	TargetImage	TargetPosition	ThoughtProbe1.ACC	ThoughtProbe1.CRESP	ThoughtProbe1.DurationError	ThoughtProbe1.OnsetDelay	ThoughtProbe1.OnsetTime	ThoughtProbe1.OnsetToOnsetTime	ThoughtProbe1.RESP	ThoughtProbe1.RT	ThoughtProbe1.RTTime	ThoughtProbe2.ACC	ThoughtProbe2.CRESP	ThoughtProbe2.DurationError	ThoughtProbe2.OnsetDelay	ThoughtProbe2.OnsetTime	ThoughtProbe2.OnsetToOnsetTime	ThoughtProbe2.RESP	ThoughtProbe2.RT	ThoughtProbe2.RTTime	TrialList	TrialList.Cycle	TrialList.Sample
Arrow Flanker 2014	12328	1	"<?xml version=""1.0""?>\n<Clock xmlns:dt=""urn:schemas-microsoft-com:datatypes""><Description dt:dt=""string"">E-Prime Primary Realtime Clock</Description><StartTime><Timestamp dt:dt=""int"">0</Timestamp><DateUtc dt:dt=""string"">2015-06-08T14:25:24Z</DateUtc></StartTime><FrequencyChanges><FrequencyChange><Frequency dt:dt=""r8"">2825566</Frequency><Timestamp dt:dt=""r8"">1642813906138</Timestamp><Current dt:dt=""r8"">0</Current><DateUtc dt:dt=""string"">2015-06-08T14:25:24Z</DateUtc></FrequencyChange></FrequencyChanges></Clock>\n"	Arrow Flanker 2014-12328-1	60.016	1.0.0.100	1	2136965626	Professional	2.0.10.353	2.0.10.353	06-08-2015	6/8/2015 2:25:24 PM	10:25:24	2.0.10.248	1	NA	NA	NA	NA	NA	NA	NA	NA	NA	NA	NA	NA	NA	1	1	1	NA	NA	NA	NA	NA	NA	NA	NA	NA	NA	NA	MapBlockProc	MapBlockList	NA	1	{RIGHTARROW}	-100	NA	1196	NA	2	1	1	0	21	197689	1200	1	{RIGHTARROW}	-999999	0	199389	0	{RIGHTARROW}	646	200035	NA	NA	NA	NA	NA	NA	MapTrialProc	MapTrialList	NA	NA	NA	NA	NA	NA	NA	NA	NA	NA	NA	NA	NA	NA	NA	NA	NA	NA	right	NA	R.bmp	354	NA	NA	NA	NA	NA	NA	NA	NA	NA	NA	NA	NA	NA	NA	NA	NA	NA	NA	NA	NA	NA
Arrow Flanker 2014	12328	1	"<?xml version=""1.0""?>\n<Clock xmlns:dt=""urn:schemas-microsoft-com:datatypes""><Description dt:dt=""string"">E-Prime Primary Realtime Clock</Description><StartTime><Timestamp dt:dt=""int"">0</Timestamp><DateUtc dt:dt=""string"">2015-06-08T14:25:24Z</DateUtc></StartTime><FrequencyChanges><FrequencyChange><Frequency dt:dt=""r8"">2825566</Frequency><Timestamp dt:dt=""r8"">1642813906138</Timestamp><Current dt:dt=""r8"">0</Current><DateUtc dt:dt=""string"">2015-06-08T14:25:24Z</DateUtc></FrequencyChange></FrequencyChanges></Clock>\n"	Arrow Flanker 2014-12328-1	60.016	1.0.0.100	1	2136965626	Professional	2.0.10.353	2.0.10.353	06-08-2015	6/8/2015 2:25:24 PM	10:25:24	2.0.10.248	1	NA	NA	NA	NA	NA	NA	NA	NA	NA	NA	NA	NA	NA	1	1	1	NA	NA	NA	NA	NA	NA	NA	NA	NA	NA	NA	MapBlockProc	MapBlockList	NA	2	{RIGHTARROW}	-100	NA	1328	NA	2	1	2	0	16	201571	1333	1	{RIGHTARROW}	-999999	0	203404	0	{RIGHTARROW}	519	203923	NA	NA	NA	NA	NA	NA	MapTrialProc	MapTrialList	NA	NA	NA	NA	NA	NA	NA	NA	NA	NA	NA	NA	NA	NA	NA	NA	NA	NA	right	NA	R.bmp	354	NA	NA	NA	NA	NA	NA	NA	NA	NA	NA	NA	NA	NA	NA	NA	NA	NA	NA	NA	NA	NA
Arrow Flanker 2014	12328	1	"<?xml version=""1.0""?>\n<Clock xmlns:dt=""urn:schemas-microsoft-com:datatypes""><Description dt:dt=""string"">E-Prime Primary Realtime Clock</Description><StartTime><Timestamp dt:dt=""int"">0</Timestamp><DateUtc dt:dt=""string"">2015-06-08T14:25:24Z</DateUtc></StartTime><FrequencyChanges><FrequencyChange><Frequency dt:dt=""r8"">2825566</Frequency><Timestamp dt:dt=""r8"">1642813906138</Timestamp><Current dt:dt=""r8"">0</Current><DateUtc dt:dt=""string"">2015-06-08T14:25:24Z</DateUtc></FrequencyChange></FrequencyChanges></Clock>\n"	Arrow Flanker 2014-12328-1	60.016	1.0.0.100	1	2136965626	Professional	2.0.10.353	2.0.10.353	06-08-2015	6/8/2015 2:25:24 PM	10:25:24	2.0.10.248	1	NA	NA	NA	NA	NA	NA	NA	NA	NA	NA	NA	NA	NA	1	1	1	NA	NA	NA	NA	NA	NA	NA	NA	NA	NA	NA	MapBlockProc	MapBlockList	NA	3	{RIGHTARROW}	-100	NA	1322	NA	2	1	3	0	17	205454	1333	1	{RIGHTARROW}	-999999	16	207303	0	{RIGHTARROW}	348	207651	NA	NA	NA	NA	NA	NA	MapTrialProc	MapTrialList	NA	NA	NA	NA	NA	NA	NA	NA	NA	NA	NA	NA	NA	NA	NA	NA	NA	NA	right	NA	R.bmp	354	NA	NA	NA	NA	NA	NA	NA	NA	NA	NA	NA	NA	NA	NA	NA	NA	NA	NA	NA	NA	NA
Arrow Flanker 2014	12328	1	"<?xml version=""1.0""?>\n<Clock xmlns:dt=""urn:schemas-microsoft-com:datatypes""><Description dt:dt=""string"">E-Prime Primary Realtime Clock</Description><StartTime><Timestamp dt:dt=""int"">0</Timestamp><DateUtc dt:dt=""string"">2015-06-08T14:25:24Z</DateUtc></StartTime><FrequencyChanges><FrequencyChange><Frequency dt:dt=""r8"">2825566</Frequency><Timestamp dt:dt=""r8"">1642813906138</Timestamp><Current dt:dt=""r8"">0</Current><DateUtc dt:dt=""string"">2015-06-08T14:25:24Z</DateUtc></FrequencyChange></FrequencyChanges></Clock>\n"	Arrow Flanker 2014-12328-1	60.016	1.0.0.100	1	2136965626	Professional	2.0.10.353	2.0.10.353	06-08-2015	6/8/2015 2:25:24 PM	10:25:24	2.0.10.248	1	NA	NA	NA	NA	NA	NA	NA	NA	NA	NA	NA	NA	NA	1	1	1	NA	NA	NA	NA	NA	NA	NA	NA	NA	NA	NA	MapBlockProc	MapBlockList	NA	4	{RIGHTARROW}	-100	NA	653	NA	2	1	4	0	16	209186	666	1	{RIGHTARROW}	-999999	0	210352	0	{RIGHTARROW}	515	210867	NA	NA	NA	NA	NA	NA	MapTrialProc	MapTrialList	NA	NA	NA	NA	NA	NA	NA	NA	NA	NA	NA	NA	NA	NA	NA	NA	NA	NA	right	NA	R.bmp	354	NA	NA	NA	NA	NA	NA	NA	NA	NA	NA	NA	NA	NA	NA	NA	NA	NA	NA	NA	NA	NA
Arrow Flanker 2014	12328	1	"<?xml version=""1.0""?>\n<Clock xmlns:dt=""urn:schemas-microsoft-com:datatypes""><Description dt:dt=""string"">E-Prime Primary Realtime Clock</Description><StartTime><Timestamp dt:dt=""int"">0</Timestamp><DateUtc dt:dt=""string"">2015-06-08T14:25:24Z</DateUtc></StartTime><FrequencyChanges><FrequencyChange><Frequency dt:dt=""r8"">2825566</Frequency><Timestamp dt:dt=""r8"">1642813906138</Timestamp><Current dt:dt=""r8"">0</Current><DateUtc dt:dt=""string"">2015-06-08T14:25:24Z</DateUtc></FrequencyChange></FrequencyChanges></Clock>\n"	Arrow Flanker 2014-12328-1	60.016	1.0.0.100	1	2136965626	Professional	2.0.10.353	2.0.10.353	06-08-2015	6/8/2015 2:25:24 PM	10:25:24	2.0.10.248	1	NA	NA	NA	NA	NA	NA	NA	NA	NA	NA	NA	NA	NA	1	1	1	NA	NA	NA	NA	NA	NA	NA	NA	NA	NA	NA	MapBlockProc	MapBlockList	NA	5	{LEFTARROW}	-100	NA	849	NA	1	1	5	0	17	212402	850	1	{LEFTARROW}	-999999	0	213751	0	{LEFTARROW}	428	214179	NA	NA	NA	NA	NA	NA	MapTrialProc	MapTrialList	NA	NA	NA	NA	NA	NA	NA	NA	NA	NA	NA	NA	NA	NA	NA	NA	NA	NA	left	NA	L.bmp	354	NA	NA	NA	NA	NA	NA	NA	NA	NA	NA	NA	NA	NA	NA	NA	NA	NA	NA	NA	NA	NA
Arrow Flanker 2014	12328	1	"<?xml version=""1.0""?>\n<Clock xmlns:dt=""urn:schemas-microsoft-com:datatypes""><Description dt:dt=""string"">E-Prime Primary Realtime Clock</Description><StartTime><Timestamp dt:dt=""int"">0</Timestamp><DateUtc dt:dt=""string"">2015-06-08T14:25:24Z</DateUtc></StartTime><FrequencyChanges><FrequencyChange><Frequency dt:dt=""r8"">2825566</Frequency><Timestamp dt:dt=""r8"">1642813906138</Timestamp><Current dt:dt=""r8"">0</Current><DateUtc dt:dt=""string"">2015-06-08T14:25:24Z</DateUtc></FrequencyChange></FrequencyChanges></Clock>\n"	Arrow Flanker 2014-12328-1	60.016	1.0.0.100	1	2136965626	Professional	2.0.10.353	2.0.10.353	06-08-2015	6/8/2015 2:25:24 PM	10:25:24	2.0.10.248	1	NA	NA	NA	NA	NA	NA	NA	NA	NA	NA	NA	NA	NA	1	1	1	NA	NA	NA	NA	NA	NA	NA	NA	NA	NA	NA	MapBlockProc	MapBlockList	NA	6	{LEFTARROW}	-100	NA	1316	NA	1	1	6	0	16	215717	1317	1	{LEFTARROW}	-999999	0	217534	0	{LEFTARROW}	597	218131	NA	NA	NA	NA	NA	NA	MapTrialProc	MapTrialList	NA	NA	NA	NA	NA	NA	NA	NA	NA	NA	NA	NA	NA	NA	NA	NA	NA	NA	left	NA	L.bmp	354	NA	NA	NA	NA	NA	NA	NA	NA	NA	NA	NA	NA	NA	NA	NA	NA	NA	NA	NA	NA	NA
Arrow Flanker 2014	12328	1	"<?xml version=""1.0""?>\n<Clock xmlns:dt=""urn:schemas-microsoft-com:datatypes""><Description dt:dt=""string"">E-Prime Primary Realtime Clock</Description><StartTime><Timestamp dt:dt=""int"">0</Timestamp><DateUtc dt:dt=""string"">2015-06-08T14:25:24Z</DateUtc></StartTime><FrequencyChanges><FrequencyChange><Frequency dt:dt=""r8"">2825566</Frequency><Timestamp dt:dt=""r8"">1642813906138</Timestamp><Current dt:dt=""r8"">0</Current><DateUtc dt:dt=""string"">2015-06-08T14:25:24Z</DateUtc></FrequencyChange></FrequencyChanges></Clock>\n"	Arrow Flanker 2014-12328-1	60.016	1.0.0.100	1	2136965626	Professional	2.0.10.353	2.0.10.353	06-08-2015	6/8/2015 2:25:24 PM	10:25:24	2.0.10.248	1	NA	NA	NA	NA	NA	NA	NA	NA	NA	NA	NA	NA	NA	1	1	1	NA	NA	NA	NA	NA	NA	NA	NA	NA	NA	NA	MapBlockProc	MapBlockList	NA	7	{LEFTARROW}	-100	NA	804	NA	1	1	7	0	17	219667	816	1	{LEFTARROW}	-999999	0	220983	0	{LEFTARROW}	476	221459	NA	NA	NA	NA	NA	NA	MapTrialProc	MapTrialList	NA	NA	NA	NA	NA	NA	NA	NA	NA	NA	NA	NA	NA	NA	NA	NA	NA	NA	left	NA	L.bmp	354	NA	NA	NA	NA	NA	NA	NA	NA	NA	NA	NA	NA	NA	NA	NA	NA	NA	NA	NA	NA	NA
Arrow Flanker 2014	12328	1	"<?xml version=""1.0""?>\n<Clock xmlns:dt=""urn:schemas-microsoft-com:datatypes""><Description dt:dt=""string"">E-Prime Primary Realtime Clock</Description><StartTime><Timestamp dt:dt=""int"">0</Timestamp><DateUtc dt:dt=""string"">2015-06-08T14:25:24Z</DateUtc></StartTime><FrequencyChanges><FrequencyChange><Frequency dt:dt=""r8"">2825566</Frequency><Timestamp dt:dt=""r8"">1642813906138</Timestamp><Current dt:dt=""r8"">0</Current><DateUtc dt:dt=""string"">2015-06-08T14:25:24Z</DateUtc></FrequencyChange></FrequencyChanges></Clock>\n"	Arrow Flanker 2014-12328-1	60.016	1.0.0.100	1	2136965626	Professional	2.0.10.353	2.0.10.353	06-08-2015	6/8/2015 2:25:24 PM	10:25:24	2.0.10.248	1	NA	NA	NA	NA	NA	NA	NA	NA	NA	NA	NA	NA	NA	1	1	1	NA	NA	NA	NA	NA	NA	NA	NA	NA	NA	NA	MapBlockProc	MapBlockList	NA	8	{LEFTARROW}	-100	NA	1235	NA	1	1	8	0	16	222999	1250	1	{LEFTARROW}	-999999	16	224765	0	{LEFTARROW}	470	225235	NA	NA	NA	NA	NA	NA	MapTrialProc	MapTrialList	NA	NA	NA	NA	NA	NA	NA	NA	NA	NA	NA	NA	NA	NA	NA	NA	NA	NA	left	NA	L.bmp	354	NA	NA	NA	NA	NA	NA	NA	NA	NA	NA	NA	NA	NA	NA	NA	NA	NA	NA	NA	NA	NA
Arrow Flanker 2014	12328	1	"<?xml version=""1.0""?>\n<Clock xmlns:dt=""urn:schemas-microsoft-com:datatypes""><Description dt:dt=""string"">E-Prime Primary Realtime Clock</Description><StartTime><Timestamp dt:dt=""int"">0</Timestamp><DateUtc dt:dt=""string"">2015-06-08T14:25:24Z</DateUtc></StartTime><FrequencyChanges><FrequencyChange><Frequency dt:dt=""r8"">2825566</Frequency><Timestamp dt:dt=""r8"">1642813906138</Timestamp><Current dt:dt=""r8"">0</Current><DateUtc dt:dt=""string"">2015-06-08T14:25:24Z</DateUtc></FrequencyChange></FrequencyChanges></Clock>\n"	Arrow Flanker 2014-12328-1	60.016	1.0.0.100	1	2136965626	Professional	2.0.10.353	2.0.10.353	06-08-2015	6/8/2015 2:25:24 PM	10:25:24	2.0.10.248	1	NA	NA	NA	NA	NA	NA	NA	NA	NA	NA	NA	NA	NA	1	1	1	NA	NA	NA	NA	NA	NA	NA	NA	NA	NA	NA	MapBlockProc	MapBlockList	NA	9	{RIGHTARROW}	-100	NA	996	NA	2	1	9	0	17	226765	999	1	{RIGHTARROW}	-999999	0	228264	0	{RIGHTARROW}	490	228754	NA	NA	NA	NA	NA	NA	MapTrialProc	MapTrialList	NA	NA	NA	NA	NA	NA	NA	NA	NA	NA	NA	NA	NA	NA	NA	NA	NA	NA	right	NA	R.bmp	354	NA	NA	NA	NA	NA	NA	NA	NA	NA	NA	NA	NA	NA	NA	NA	NA	NA	NA	NA	NA	NA
Arrow Flanker 2014	12328	1	"<?xml version=""1.0""?>\n<Clock xmlns:dt=""urn:schemas-microsoft-com:datatypes""><Description dt:dt=""string"">E-Prime Primary Realtime Clock</Description><StartTime><Timestamp dt:dt=""int"">0</Timestamp><DateUtc dt:dt=""string"">2015-06-08T14:25:24Z</DateUtc></StartTime><FrequencyChanges><FrequencyChange><Frequency dt:dt=""r8"">2825566</Frequency><Timestamp dt:dt=""r8"">1642813906138</Timestamp><Current dt:dt=""r8"">0</Current><DateUtc dt:dt=""string"">2015-06-08T14:25:24Z</DateUtc></FrequencyChange></FrequencyChanges></Clock>\n"	Arrow Flanker 2014-12328-1	60.016	1.0.0.100	1	2136965626	Professional	2.0.10.353	2.0.10.353	06-08-2015	6/8/2015 2:25:24 PM	10:25:24	2.0.10.248	1	NA	NA	NA	NA	NA	NA	NA	NA	NA	NA	NA	NA	NA	1	1	1	NA	NA	NA	NA	NA	NA	NA	NA	NA	NA	NA	MapBlockProc	MapBlockList	NA	10	{LEFTARROW}	-100	NA	840	NA	1	1	10	0	15	230280	850	1	{LEFTARROW}	-999999	0	231630	0	{LEFTARROW}	436	232066	NA	NA	NA	NA	NA	NA	MapTrialProc	MapTrialList	NA	NA	NA	NA	NA	NA	NA	NA	NA	NA	NA	NA	NA	NA	NA	NA	NA	NA	left	NA	L.bmp	354	NA	NA	NA	NA	NA	NA	NA	NA	NA	NA	NA	NA	NA	NA	NA	NA	NA	NA	NA	NA	NA
Arrow Flanker 2014	12328	1	"<?xml version=""1.0""?>\n<Clock xmlns:dt=""urn:schemas-microsoft-com:datatypes""><Description dt:dt=""string"">E-Prime Primary Realtime Clock</Description><StartTime><Timestamp dt:dt=""int"">0</Timestamp><DateUtc dt:dt=""string"">2015-06-08T14:25:24Z</DateUtc></StartTime><FrequencyChanges><FrequencyChange><Frequency dt:dt=""r8"">2825566</Frequency><Timestamp dt:dt=""r8"">1642813906138</Timestamp><Current dt:dt=""r8"">0</Current><DateUtc dt:dt=""string"">2015-06-08T14:25:24Z</DateUtc></FrequencyChange></FrequencyChanges></Clock>\n"	Arrow Flanker 2014-12328-1	60.016	1.0.0.100	1	2136965626	Professional	2.0.10.353	2.0.10.353	06-08-2015	6/8/2015 2:25:24 PM	10:25:24	2.0.10.248	2	NA	NA	NA	NA	NA	NA	NA	NA	NA	NA	NA	NA	NA	NA	NA	NA	NA	NA	NA	NA	NA	NA	NA	NA	1	1	1	PracBlockProc	PracBlockList	NA	1	{LEFTARROW}	-100	NA	1528	neutral	NA	NA	NA	0	19	258373	1533	1	{LEFTARROW}	-999999	0	260406	0	{LEFTARROW}	1004	261410	NA	3	1	1	NA	NA	PracTrialProc	PracTrialList	NA	NA	NA	NA	NA	NA	NA	NA	NA	NA	NA	NA	NA	NA	NA	NA	NA	NA	left	NA	ooloo.bmp	354	NA	NA	NA	NA	NA	NA	NA	NA	NA	NA	NA	NA	NA	NA	NA	NA	NA	NA	NA	NA	NA
Arrow Flanker 2014	12328	1	"<?xml version=""1.0""?>\n<Clock xmlns:dt=""urn:schemas-microsoft-com:datatypes""><Description dt:dt=""string"">E-Prime Primary Realtime Clock</Description><StartTime><Timestamp dt:dt=""int"">0</Timestamp><DateUtc dt:dt=""string"">2015-06-08T14:25:24Z</DateUtc></StartTime><FrequencyChanges><FrequencyChange><Frequency dt:dt=""r8"">2825566</Frequency><Timestamp dt:dt=""r8"">1642813906138</Timestamp><Current dt:dt=""r8"">0</Current><DateUtc dt:dt=""string"">2015-06-08T14:25:24Z</DateUtc></FrequencyChange></FrequencyChanges></Clock>\n"	Arrow Flanker 2014-12328-1	60.016	1.0.0.100	1	2136965626	Professional	2.0.10.353	2.0.10.353	06-08-2015	6/8/2015 2:25:24 PM	10:25:24	2.0.10.248	2	NA	NA	NA	NA	NA	NA	NA	NA	NA	NA	NA	NA	NA	NA	NA	NA	NA	NA	NA	NA	NA	NA	NA	NA	1	1	1	PracBlockProc	PracBlockList	NA	2	{LEFTARROW}	-100	NA	702	congruent	NA	NA	NA	0	16	262938	717	1	{LEFTARROW}	-999999	0	264155	0	{LEFTARROW}	662	264817	NA	1	1	2	NA	NA	PracTrialProc	PracTrialList	NA	NA	NA	NA	NA	NA	NA	NA	NA	NA	NA	NA	NA	NA	NA	NA	NA	NA	left	NA	lllll.bmp	354	NA	NA	NA	NA	NA	NA	NA	NA	NA	NA	NA	NA	NA	NA	NA	NA	NA	NA	NA	NA	NA
Arrow Flanker 2014	12328	1	"<?xml version=""1.0""?>\n<Clock xmlns:dt=""urn:schemas-microsoft-com:datatypes""><Description dt:dt=""string"">E-Prime Primary Realtime Clock</Description><StartTime><Timestamp dt:dt=""int"">0</Timestamp><DateUtc dt:dt=""string"">2015-06-08T14:25:24Z</DateUtc></StartTime><FrequencyChanges><FrequencyChange><Frequency dt:dt=""r8"">2825566</Frequency><Timestamp dt:dt=""r8"">1642813906138</Timestamp><Current dt:dt=""r8"">0</Current><DateUtc dt:dt=""string"">2015-06-08T14:25:24Z</DateUtc></FrequencyChange></FrequencyChanges></Clock>\n"	Arrow Flanker 2014-12328-1	60.016	1.0.0.100	1	2136965626	Professional	2.0.10.353	2.0.10.353	06-08-2015	6/8/2015 2:25:24 PM	10:25:24	2.0.10.248	2	NA	NA	NA	NA	NA	NA	NA	NA	NA	NA	NA	NA	NA	NA	NA	NA	NA	NA	NA	NA	NA	NA	NA	NA	1	1	1	PracBlockProc	PracBlockList	NA	3	{RIGHTARROW}	-100	NA	712	incongruent	NA	NA	NA	0	16	266354	717	1	{RIGHTARROW}	-999999	16	267587	0	{RIGHTARROW}	670	268257	NA	5	1	3	NA	NA	PracTrialProc	PracTrialList	NA	NA	NA	NA	NA	NA	NA	NA	NA	NA	NA	NA	NA	NA	NA	NA	NA	NA	right	NA	llrll.bmp	354	NA	NA	NA	NA	NA	NA	NA	NA	NA	NA	NA	NA	NA	NA	NA	NA	NA	NA	NA	NA	NA
Arrow Flanker 2014	12328	1	"<?xml version=""1.0""?>\n<Clock xmlns:dt=""urn:schemas-microsoft-com:datatypes""><Description dt:dt=""string"">E-Prime Primary Realtime Clock</Description><StartTime><Timestamp dt:dt=""int"">0</Timestamp><DateUtc dt:dt=""string"">2015-06-08T14:25:24Z</DateUtc></StartTime><FrequencyChanges><FrequencyChange><Frequency dt:dt=""r8"">2825566</Frequency><Timestamp dt:dt=""r8"">1642813906138</Timestamp><Current dt:dt=""r8"">0</Current><DateUtc dt:dt=""string"">2015-06-08T14:25:24Z</DateUtc></FrequencyChange></FrequencyChanges></Clock>\n"	Arrow Flanker 2014-12328-1	60.016	1.0.0.100	1	2136965626	Professional	2.0.10.353	2.0.10.353	06-08-2015	6/8/2015 2:25:24 PM	10:25:24	2.0.10.248	2	NA	NA	NA	NA	NA	NA	NA	NA	NA	NA	NA	NA	NA	NA	NA	NA	NA	NA	NA	NA	NA	NA	NA	NA	1	1	1	PracBlockProc	PracBlockList	NA	4	{LEFTARROW}	-100	NA	1150	incongruent	NA	NA	NA	0	17	269787	1166	1	{LEFTARROW}	-999999	0	271453	0	{LEFTARROW}	628	272081	NA	2	1	4	NA	NA	PracTrialProc	PracTrialList	NA	NA	NA	NA	NA	NA	NA	NA	NA	NA	NA	NA	NA	NA	NA	NA	NA	NA	left	NA	rrlrr.bmp	354	NA	NA	NA	NA	NA	NA	NA	NA	NA	NA	NA	NA	NA	NA	NA	NA	NA	NA	NA	NA	NA
Arrow Flanker 2014	12328	1	"<?xml version=""1.0""?>\n<Clock xmlns:dt=""urn:schemas-microsoft-com:datatypes""><Description dt:dt=""string"">E-Prime Primary Realtime Clock</Description><StartTime><Timestamp dt:dt=""int"">0</Timestamp><DateUtc dt:dt=""string"">2015-06-08T14:25:24Z</DateUtc></StartTime><FrequencyChanges><FrequencyChange><Frequency dt:dt=""r8"">2825566</Frequency><Timestamp dt:dt=""r8"">1642813906138</Timestamp><Current dt:dt=""r8"">0</Current><DateUtc dt:dt=""string"">2015-06-08T14:25:24Z</DateUtc></FrequencyChange></FrequencyChanges></Clock>\n"	Arrow Flanker 2014-12328-1	60.016	1.0.0.100	1	2136965626	Professional	2.0.10.353	2.0.10.353	06-08-2015	6/8/2015 2:25:24 PM	10:25:24	2.0.10.248	2	NA	NA	NA	NA	NA	NA	NA	NA	NA	NA	NA	NA	NA	NA	NA	NA	NA	NA	NA	NA	NA	NA	NA	NA	1	1	1	PracBlockProc	PracBlockList	NA	5	{RIGHTARROW}	-100	NA	572	neutral	NA	NA	NA	0	16	273619	583	1	{RIGHTARROW}	-999999	0	274702	0	{RIGHTARROW}	563	275265	NA	6	1	5	NA	NA	PracTrialProc	PracTrialList	NA	NA	NA	NA	NA	NA	NA	NA	NA	NA	NA	NA	NA	NA	NA	NA	NA	NA	right	NA	ooroo.bmp	354	NA	NA	NA	NA	NA	NA	NA	NA	NA	NA	NA	NA	NA	NA	NA	NA	NA	NA	NA	NA	NA
Arrow Flanker 2014	12328	1	"<?xml version=""1.0""?>\n<Clock xmlns:dt=""urn:schemas-microsoft-com:datatypes""><Description dt:dt=""string"">E-Prime Primary Realtime Clock</Description><StartTime><Timestamp dt:dt=""int"">0</Timestamp><DateUtc dt:dt=""string"">2015-06-08T14:25:24Z</DateUtc></StartTime><FrequencyChanges><FrequencyChange><Frequency dt:dt=""r8"">2825566</Frequency><Timestamp dt:dt=""r8"">1642813906138</Timestamp><Current dt:dt=""r8"">0</Current><DateUtc dt:dt=""string"">2015-06-08T14:25:24Z</DateUtc></FrequencyChange></FrequencyChanges></Clock>\n"	Arrow Flanker 2014-12328-1	60.016	1.0.0.100	1	2136965626	Professional	2.0.10.353	2.0.10.353	06-08-2015	6/8/2015 2:25:24 PM	10:25:24	2.0.10.248	2	NA	NA	NA	NA	NA	NA	NA	NA	NA	NA	NA	NA	NA	NA	NA	NA	NA	NA	NA	NA	NA	NA	NA	NA	1	1	1	PracBlockProc	PracBlockList	NA	6	{RIGHTARROW}	-100	NA	651	congruent	NA	NA	NA	0	16	276801	667	1	{RIGHTARROW}	-999999	0	277968	0	{RIGHTARROW}	481	278449	NA	4	1	6	NA	NA	PracTrialProc	PracTrialList	NA	NA	NA	NA	NA	NA	NA	NA	NA	NA	NA	NA	NA	NA	NA	NA	NA	NA	right	NA	rrrrr.bmp	354	NA	NA	NA	NA	NA	NA	NA	NA	NA	NA	NA	NA	NA	NA	NA	NA	NA	NA	NA	NA	NA
Arrow Flanker 2014	12328	1	"<?xml version=""1.0""?>\n<Clock xmlns:dt=""urn:schemas-microsoft-com:datatypes""><Description dt:dt=""string"">E-Prime Primary Realtime Clock</Description><StartTime><Timestamp dt:dt=""int"">0</Timestamp><DateUtc dt:dt=""string"">2015-06-08T14:25:24Z</DateUtc></StartTime><FrequencyChanges><FrequencyChange><Frequency dt:dt=""r8"">2825566</Frequency><Timestamp dt:dt=""r8"">1642813906138</Timestamp><Current dt:dt=""r8"">0</Current><DateUtc dt:dt=""string"">2015-06-08T14:25:24Z</DateUtc></FrequencyChange></FrequencyChanges></Clock>\n"	Arrow Flanker 2014-12328-1	60.016	1.0.0.100	1	2136965626	Professional	2.0.10.353	2.0.10.353	06-08-2015	6/8/2015 2:25:24 PM	10:25:24	2.0.10.248	3	1	1	1	NA	NA	NA	NA	NA	NA	NA	NA	NA	NA	NA	NA	NA	NA	NA	NA	NA	NA	NA	NA	NA	NA	NA	NA	BlockProc	BlockList	NA	1	{RIGHTARROW}	NA	-100	2544	neutral	NA	NA	NA	NA	NA	NA	NA	NA	NA	NA	NA	NA	NA	NA	NA	NA	NA	NA	NA	NA	NA	NA	TrialProc	TrialList	1	12	291597	17	0	17	288965	1583	1	{RIGHTARROW}	-999999	0	291048	0	{RIGHTARROW}	537	291585	NA	NA	right	ooroo.bmp	354	0	NA	0	0	0	0	NA	0	0	0	NA	0	0	0	0	NA	0	0	6	1	1
Arrow Flanker 2014	12328	1	"<?xml version=""1.0""?>\n<Clock xmlns:dt=""urn:schemas-microsoft-com:datatypes""><Description dt:dt=""string"">E-Prime Primary Realtime Clock</Description><StartTime><Timestamp dt:dt=""int"">0</Timestamp><DateUtc dt:dt=""string"">2015-06-08T14:25:24Z</DateUtc></StartTime><FrequencyChanges><FrequencyChange><Frequency dt:dt=""r8"">2825566</Frequency><Timestamp dt:dt=""r8"">1642813906138</Timestamp><Current dt:dt=""r8"">0</Current><DateUtc dt:dt=""string"">2015-06-08T14:25:24Z</DateUtc></FrequencyChange></FrequencyChanges></Clock>\n"	Arrow Flanker 2014-12328-1	60.016	1.0.0.100	1	2136965626	Professional	2.0.10.353	2.0.10.353	06-08-2015	6/8/2015 2:25:24 PM	10:25:24	2.0.10.248	3	1	1	1	NA	NA	NA	NA	NA	NA	NA	NA	NA	NA	NA	NA	NA	NA	NA	NA	NA	NA	NA	NA	NA	NA	NA	NA	BlockProc	BlockList	NA	2	{RIGHTARROW}	NA	-100	1869	neutral	NA	NA	NA	NA	NA	NA	NA	NA	NA	NA	NA	NA	NA	NA	NA	NA	NA	NA	NA	NA	NA	NA	TrialProc	TrialList	0	6	293847	17	0	17	292131	766	1	{RIGHTARROW}	-999999	0	293397	0	{RIGHTARROW}	444	293841	NA	NA	right	ooroo.bmp	354	0	NA	0	0	0	0	NA	0	0	0	NA	0	0	0	0	NA	0	0	6	1	2
Arrow Flanker 2014	12328	1	"<?xml version=""1.0""?>\n<Clock xmlns:dt=""urn:schemas-microsoft-com:datatypes""><Description dt:dt=""string"">E-Prime Primary Realtime Clock</Description><StartTime><Timestamp dt:dt=""int"">0</Timestamp><DateUtc dt:dt=""string"">2015-06-08T14:25:24Z</DateUtc></StartTime><FrequencyChanges><FrequencyChange><Frequency dt:dt=""r8"">2825566</Frequency><Timestamp dt:dt=""r8"">1642813906138</Timestamp><Current dt:dt=""r8"">0</Current><DateUtc dt:dt=""string"">2015-06-08T14:25:24Z</DateUtc></FrequencyChange></FrequencyChanges></Clock>\n"	Arrow Flanker 2014-12328-1	60.016	1.0.0.100	1	2136965626	Professional	2.0.10.353	2.0.10.353	06-08-2015	6/8/2015 2:25:24 PM	10:25:24	2.0.10.248	3	1	1	1	NA	NA	NA	NA	NA	NA	NA	NA	NA	NA	NA	NA	NA	NA	NA	NA	NA	NA	NA	NA	NA	NA	NA	NA	BlockProc	BlockList	NA	3	{RIGHTARROW}	NA	-100	1468	congruent	NA	NA	NA	NA	NA	NA	NA	NA	NA	NA	NA	NA	NA	NA	NA	NA	NA	NA	NA	NA	NA	NA	TrialProc	TrialList	0	19	296180	16	0	16	294380	816	1	{RIGHTARROW}	-999999	0	295696	0	{RIGHTARROW}	465	296161	NA	NA	right	rrrrr.bmp	354	0	NA	0	0	0	0	NA	0	0	0	NA	0	0	0	0	NA	0	0	2	1	3
Arrow Flanker 2014	12328	1	"<?xml version=""1.0""?>\n<Clock xmlns:dt=""urn:schemas-microsoft-com:datatypes""><Description dt:dt=""string"">E-Prime Primary Realtime Clock</Description><StartTime><Timestamp dt:dt=""int"">0</Timestamp><DateUtc dt:dt=""string"">2015-06-08T14:25:24Z</DateUtc></StartTime><FrequencyChanges><FrequencyChange><Frequency dt:dt=""r8"">2825566</Frequency><Timestamp dt:dt=""r8"">1642813906138</Timestamp><Current dt:dt=""r8"">0</Current><DateUtc dt:dt=""string"">2015-06-08T14:25:24Z</DateUtc></FrequencyChange></FrequencyChanges></Clock>\n"	Arrow Flanker 2014-12328-1	60.016	1.0.0.100	1	2136965626	Professional	2.0.10.353	2.0.10.353	06-08-2015	6/8/2015 2:25:24 PM	10:25:24	2.0.10.248	3	1	1	1	NA	NA	NA	NA	NA	NA	NA	NA	NA	NA	NA	NA	NA	NA	NA	NA	NA	NA	NA	NA	NA	NA	NA	NA	BlockProc	BlockList	NA	4	{LEFTARROW}	NA	-100	509	incongruent	NA	NA	NA	NA	NA	NA	NA	NA	NA	NA	NA	NA	NA	NA	NA	NA	NA	NA	NA	NA	NA	NA	TrialProc	TrialList	0	17	298146	16	0	17	296713	433	1	{LEFTARROW}	-999999	0	297646	0	{LEFTARROW}	483	298129	NA	NA	left	rrlrr.bmp	354	0	NA	0	0	0	0	NA	0	0	0	NA	0	0	0	0	NA	0	0	3	1	4
Arrow Flanker 2014	12328	1	"<?xml version=""1.0""?>\n<Clock xmlns:dt=""urn:schemas-microsoft-com:datatypes""><Description dt:dt=""string"">E-Prime Primary Realtime Clock</Description><StartTime><Timestamp dt:dt=""int"">0</Timestamp><DateUtc dt:dt=""string"">2015-06-08T14:25:24Z</DateUtc></StartTime><FrequencyChanges><FrequencyChange><Frequency dt:dt=""r8"">2825566</Frequency><Timestamp dt:dt=""r8"">1642813906138</Timestamp><Current dt:dt=""r8"">0</Current><DateUtc dt:dt=""string"">2015-06-08T14:25:24Z</DateUtc></FrequencyChange></FrequencyChanges></Clock>\n"	Arrow Flanker 2014-12328-1	60.016	1.0.0.100	1	2136965626	Professional	2.0.10.353	2.0.10.353	06-08-2015	6/8/2015 2:25:24 PM	10:25:24	2.0.10.248	3	1	1	1	NA	NA	NA	NA	NA	NA	NA	NA	NA	NA	NA	NA	NA	NA	NA	NA	NA	NA	NA	NA	NA	NA	NA	NA	BlockProc	BlockList	NA	5	{LEFTARROW}	NA	-100	1367	incongruent	NA	NA	NA	NA	NA	NA	NA	NA	NA	NA	NA	NA	NA	NA	NA	NA	NA	NA	NA	NA	NA	NA	TrialProc	TrialList	0	18	300595	17	0	17	298679	1000	1	{LEFTARROW}	-999999	0	300179	0	{LEFTARROW}	398	300577	NA	NA	left	rrlrr.bmp	354	0	NA	0	0	0	0	NA	0	0	0	NA	0	0	0	0	NA	0	0	3	1	5
Arrow Flanker 2014	12328	1	"<?xml version=""1.0""?>\n<Clock xmlns:dt=""urn:schemas-microsoft-com:datatypes""><Description dt:dt=""string"">E-Prime Primary Realtime Clock</Description><StartTime><Timestamp dt:dt=""int"">0</Timestamp><DateUtc dt:dt=""string"">2015-06-08T14:25:24Z</DateUtc></StartTime><FrequencyChanges><FrequencyChange><Frequency dt:dt=""r8"">2825566</Frequency><Timestamp dt:dt=""r8"">1642813906138</Timestamp><Current dt:dt=""r8"">0</Current><DateUtc dt:dt=""string"">2015-06-08T14:25:24Z</DateUtc></FrequencyChange></FrequencyChanges></Clock>\n"	Arrow Flanker 2014-12328-1	60.016	1.0.0.100	1	2136965626	Professional	2.0.10.353	2.0.10.353	06-08-2015	6/8/2015 2:25:24 PM	10:25:24	2.0.10.248	3	1	1	1	NA	NA	NA	NA	NA	NA	NA	NA	NA	NA	NA	NA	NA	NA	NA	NA	NA	NA	NA	NA	NA	NA	NA	NA	BlockProc	BlockList	NA	6	{LEFTARROW}	NA	-100	2368	incongruent	NA	NA	NA	NA	NA	NA	NA	NA	NA	NA	NA	NA	NA	NA	NA	NA	NA	NA	NA	NA	NA	NA	TrialProc	TrialList	0	10	303611	17	0	16	301128	1433	1	{LEFTARROW}	-999999	0	303061	0	{LEFTARROW}	540	303601	NA	NA	left	rrlrr.bmp	354	0	NA	0	0	0	0	NA	0	0	0	NA	0	0	0	0	NA	0	0	3	1	6
Arrow Flanker 2014	12328	1	"<?xml version=""1.0""?>\n<Clock xmlns:dt=""urn:schemas-microsoft-com:datatypes""><Description dt:dt=""string"">E-Prime Primary Realtime Clock</Description><StartTime><Timestamp dt:dt=""int"">0</Timestamp><DateUtc dt:dt=""string"">2015-06-08T14:25:24Z</DateUtc></StartTime><FrequencyChanges><FrequencyChange><Frequency dt:dt=""r8"">2825566</Frequency><Timestamp dt:dt=""r8"">1642813906138</Timestamp><Current dt:dt=""r8"">0</Current><DateUtc dt:dt=""string"">2015-06-08T14:25:24Z</DateUtc></FrequencyChange></FrequencyChanges></Clock>\n"	Arrow Flanker 2014-12328-1	60.016	1.0.0.100	1	2136965626	Professional	2.0.10.353	2.0.10.353	06-08-2015	6/8/2015 2:25:24 PM	10:25:24	2.0.10.248	3	1	1	1	NA	NA	NA	NA	NA	NA	NA	NA	NA	NA	NA	NA	NA	NA	NA	NA	NA	NA	NA	NA	NA	NA	NA	NA	BlockProc	BlockList	NA	7	{LEFTARROW}	NA	-100	519	congruent	NA	NA	NA	NA	NA	NA	NA	NA	NA	NA	NA	NA	NA	NA	NA	NA	NA	NA	NA	NA	NA	NA	TrialProc	TrialList	0	13	305694	16	0	16	304144	500	1	{LEFTARROW}	-999999	0	305144	0	{LEFTARROW}	536	305680	NA	NA	left	lllll.bmp	354	0	NA	0	0	0	0	NA	0	0	0	NA	0	0	0	0	NA	0	0	1	1	7
Arrow Flanker 2014	12328	1	"<?xml version=""1.0""?>\n<Clock xmlns:dt=""urn:schemas-microsoft-com:datatypes""><Description dt:dt=""string"">E-Prime Primary Realtime Clock</Description><StartTime><Timestamp dt:dt=""int"">0</Timestamp><DateUtc dt:dt=""string"">2015-06-08T14:25:24Z</DateUtc></StartTime><FrequencyChanges><FrequencyChange><Frequency dt:dt=""r8"">2825566</Frequency><Timestamp dt:dt=""r8"">1642813906138</Timestamp><Current dt:dt=""r8"">0</Current><DateUtc dt:dt=""string"">2015-06-08T14:25:24Z</DateUtc></FrequencyChange></FrequencyChanges></Clock>\n"	Arrow Flanker 2014-12328-1	60.016	1.0.0.100	1	2136965626	Professional	2.0.10.353	2.0.10.353	06-08-2015	6/8/2015 2:25:24 PM	10:25:24	2.0.10.248	3	1	1	1	NA	NA	NA	NA	NA	NA	NA	NA	NA	NA	NA	NA	NA	NA	NA	NA	NA	NA	NA	NA	NA	NA	NA	NA	BlockProc	BlockList	NA	8	{LEFTARROW}	NA	-100	1754	neutral	NA	NA	NA	NA	NA	NA	NA	NA	NA	NA	NA	NA	NA	NA	NA	NA	NA	NA	NA	NA	NA	NA	TrialProc	TrialList	0	5	308310	16	0	17	306227	1116	1	{LEFTARROW}	-999999	0	307843	0	{LEFTARROW}	461	308304	NA	NA	left	ooloo.bmp	354	0	NA	0	0	0	0	NA	0	0	0	NA	0	0	0	0	NA	0	0	5	1	8
Arrow Flanker 2014	12328	1	"<?xml version=""1.0""?>\n<Clock xmlns:dt=""urn:schemas-microsoft-com:datatypes""><Description dt:dt=""string"">E-Prime Primary Realtime Clock</Description><StartTime><Timestamp dt:dt=""int"">0</Timestamp><DateUtc dt:dt=""string"">2015-06-08T14:25:24Z</DateUtc></StartTime><FrequencyChanges><FrequencyChange><Frequency dt:dt=""r8"">2825566</Frequency><Timestamp dt:dt=""r8"">1642813906138</Timestamp><Current dt:dt=""r8"">0</Current><DateUtc dt:dt=""string"">2015-06-08T14:25:24Z</DateUtc></FrequencyChange></FrequencyChanges></Clock>\n"	Arrow Flanker 2014-12328-1	60.016	1.0.0.100	1	2136965626	Professional	2.0.10.353	2.0.10.353	06-08-2015	6/8/2015 2:25:24 PM	10:25:24	2.0.10.248	3	1	1	1	NA	NA	NA	NA	NA	NA	NA	NA	NA	NA	NA	NA	NA	NA	NA	NA	NA	NA	NA	NA	NA	NA	NA	NA	BlockProc	BlockList	NA	9	{RIGHTARROW}	NA	-100	1555	congruent	NA	NA	NA	NA	NA	NA	NA	NA	NA	NA	NA	NA	NA	NA	NA	NA	NA	NA	NA	NA	NA	NA	TrialProc	TrialList	0	15	310959	17	0	17	308843	1150	1	{RIGHTARROW}	-999999	-1	310492	0	{RIGHTARROW}	452	310944	NA	NA	right	rrrrr.bmp	354	0	NA	0	0	0	0	NA	0	0	0	NA	0	0	0	0	NA	0	0	2	1	9
Arrow Flanker 2014	12328	1	"<?xml version=""1.0""?>\n<Clock xmlns:dt=""urn:schemas-microsoft-com:datatypes""><Description dt:dt=""string"">E-Prime Primary Realtime Clock</Description><StartTime><Timestamp dt:dt=""int"">0</Timestamp><DateUtc dt:dt=""string"">2015-06-08T14:25:24Z</DateUtc></StartTime><FrequencyChanges><FrequencyChange><Frequency dt:dt=""r8"">2825566</Frequency><Timestamp dt:dt=""r8"">1642813906138</Timestamp><Current dt:dt=""r8"">0</Current><DateUtc dt:dt=""string"">2015-06-08T14:25:24Z</DateUtc></FrequencyChange></FrequencyChanges></Clock>\n"	Arrow Flanker 2014-12328-1	60.016	1.0.0.100	1	2136965626	Professional	2.0.10.353	2.0.10.353	06-08-2015	6/8/2015 2:25:24 PM	10:25:24	2.0.10.248	3	1	1	1	NA	NA	NA	NA	NA	NA	NA	NA	NA	NA	NA	NA	NA	NA	NA	NA	NA	NA	NA	NA	NA	NA	NA	NA	BlockProc	BlockList	NA	10	{LEFTARROW}	NA	-100	1901	congruent	NA	NA	NA	NA	NA	NA	NA	NA	NA	NA	NA	NA	NA	NA	NA	NA	NA	NA	NA	NA	NA	NA	TrialProc	TrialList	1	12	313308	17	0	16	311492	867	1	{LEFTARROW}	-999999	0	312859	0	{LEFTARROW}	437	313296	NA	NA	left	lllll.bmp	354	0	NA	0	0	0	0	NA	0	0	0	NA	0	0	0	0	NA	0	0	1	1	10
Arrow Flanker 2014	12328	1	"<?xml version=""1.0""?>\n<Clock xmlns:dt=""urn:schemas-microsoft-com:datatypes""><Description dt:dt=""string"">E-Prime Primary Realtime Clock</Description><StartTime><Timestamp dt:dt=""int"">0</Timestamp><DateUtc dt:dt=""string"">2015-06-08T14:25:24Z</DateUtc></StartTime><FrequencyChanges><FrequencyChange><Frequency dt:dt=""r8"">2825566</Frequency><Timestamp dt:dt=""r8"">1642813906138</Timestamp><Current dt:dt=""r8"">0</Current><DateUtc dt:dt=""string"">2015-06-08T14:25:24Z</DateUtc></FrequencyChange></FrequencyChanges></Clock>\n"	Arrow Flanker 2014-12328-1	60.016	1.0.0.100	1	2136965626	Professional	2.0.10.353	2.0.10.353	06-08-2015	6/8/2015 2:25:24 PM	10:25:24	2.0.10.248	3	1	1	1	NA	NA	NA	NA	NA	NA	NA	NA	NA	NA	NA	NA	NA	NA	NA	NA	NA	NA	NA	NA	NA	NA	NA	NA	BlockProc	BlockList	NA	11	{LEFTARROW}	NA	-100	1295	neutral	NA	NA	NA	NA	NA	NA	NA	NA	NA	NA	NA	NA	NA	NA	NA	NA	NA	NA	NA	NA	NA	NA	TrialProc	TrialList	0	18	315458	17	0	17	313842	666	1	{LEFTARROW}	-999999	0	315008	0	{LEFTARROW}	432	315440	NA	NA	left	ooloo.bmp	354	0	NA	0	0	0	0	NA	0	0	0	NA	0	0	0	0	NA	0	0	5	1	11
Arrow Flanker 2014	12328	1	"<?xml version=""1.0""?>\n<Clock xmlns:dt=""urn:schemas-microsoft-com:datatypes""><Description dt:dt=""string"">E-Prime Primary Realtime Clock</Description><StartTime><Timestamp dt:dt=""int"">0</Timestamp><DateUtc dt:dt=""string"">2015-06-08T14:25:24Z</DateUtc></StartTime><FrequencyChanges><FrequencyChange><Frequency dt:dt=""r8"">2825566</Frequency><Timestamp dt:dt=""r8"">1642813906138</Timestamp><Current dt:dt=""r8"">0</Current><DateUtc dt:dt=""string"">2015-06-08T14:25:24Z</DateUtc></FrequencyChange></FrequencyChanges></Clock>\n"	Arrow Flanker 2014-12328-1	60.016	1.0.0.100	1	2136965626	Professional	2.0.10.353	2.0.10.353	06-08-2015	6/8/2015 2:25:24 PM	10:25:24	2.0.10.248	3	1	1	1	NA	NA	NA	NA	NA	NA	NA	NA	NA	NA	NA	NA	NA	NA	NA	NA	NA	NA	NA	NA	NA	NA	NA	NA	BlockProc	BlockList	NA	12	{LEFTARROW}	NA	-100	1433	congruent	NA	NA	NA	NA	NA	NA	NA	NA	NA	NA	NA	NA	NA	NA	NA	NA	NA	NA	NA	NA	NA	NA	TrialProc	TrialList	0	21	317541	16	0	16	315991	517	1	{LEFTARROW}	-999999	0	317024	0	{LEFTARROW}	496	317520	NA	NA	left	lllll.bmp	354	0	NA	0	0	0	0	NA	0	0	0	NA	0	0	0	0	NA	0	0	1	1	12
Arrow Flanker 2014	12328	1	"<?xml version=""1.0""?>\n<Clock xmlns:dt=""urn:schemas-microsoft-com:datatypes""><Description dt:dt=""string"">E-Prime Primary Realtime Clock</Description><StartTime><Timestamp dt:dt=""int"">0</Timestamp><DateUtc dt:dt=""string"">2015-06-08T14:25:24Z</DateUtc></StartTime><FrequencyChanges><FrequencyChange><Frequency dt:dt=""r8"">2825566</Frequency><Timestamp dt:dt=""r8"">1642813906138</Timestamp><Current dt:dt=""r8"">0</Current><DateUtc dt:dt=""string"">2015-06-08T14:25:24Z</DateUtc></FrequencyChange></FrequencyChanges></Clock>\n"	Arrow Flanker 2014-12328-1	60.016	1.0.0.100	1	2136965626	Professional	2.0.10.353	2.0.10.353	06-08-2015	6/8/2015 2:25:24 PM	10:25:24	2.0.10.248	3	1	1	1	NA	NA	NA	NA	NA	NA	NA	NA	NA	NA	NA	NA	NA	NA	NA	NA	NA	NA	NA	NA	NA	NA	NA	NA	BlockProc	BlockList	NA	13	{RIGHTARROW}	NA	-100	1016	neutral	NA	NA	NA	NA	NA	NA	NA	NA	NA	NA	NA	NA	NA	NA	NA	NA	NA	NA	NA	NA	NA	NA	TrialProc	TrialList	0	0	320923	17	0	17	318074	950	0	{RIGHTARROW}	0	0	319523	1400	NA	0	0	NA	NA	right	ooroo.bmp	354	0	NA	0	0	0	0	NA	0	0	0	NA	0	0	0	0	NA	0	0	6	1	13
Arrow Flanker 2014	12328	1	"<?xml version=""1.0""?>\n<Clock xmlns:dt=""urn:schemas-microsoft-com:datatypes""><Description dt:dt=""string"">E-Prime Primary Realtime Clock</Description><StartTime><Timestamp dt:dt=""int"">0</Timestamp><DateUtc dt:dt=""string"">2015-06-08T14:25:24Z</DateUtc></StartTime><FrequencyChanges><FrequencyChange><Frequency dt:dt=""r8"">2825566</Frequency><Timestamp dt:dt=""r8"">1642813906138</Timestamp><Current dt:dt=""r8"">0</Current><DateUtc dt:dt=""string"">2015-06-08T14:25:24Z</DateUtc></FrequencyChange></FrequencyChanges></Clock>\n"	Arrow Flanker 2014-12328-1	60.016	1.0.0.100	1	2136965626	Professional	2.0.10.353	2.0.10.353	06-08-2015	6/8/2015 2:25:24 PM	10:25:24	2.0.10.248	3	1	1	1	NA	NA	NA	NA	NA	NA	NA	NA	NA	NA	NA	NA	NA	NA	NA	NA	NA	NA	NA	NA	NA	NA	NA	NA	BlockProc	BlockList	NA	14	{LEFTARROW}	NA	-100	2131	incongruent	NA	NA	NA	NA	NA	NA	NA	NA	NA	NA	NA	NA	NA	NA	NA	NA	NA	NA	NA	NA	NA	NA	TrialProc	TrialList	0	12	323356	16	0	16	321456	967	1	{LEFTARROW}	-999999	-1	322922	0	{LEFTARROW}	422	323344	NA	NA	left	rrlrr.bmp	354	0	NA	0	0	0	0	NA	0	0	0	NA	0	0	0	0	NA	0	0	3	1	14
Arrow Flanker 2014	12328	1	"<?xml version=""1.0""?>\n<Clock xmlns:dt=""urn:schemas-microsoft-com:datatypes""><Description dt:dt=""string"">E-Prime Primary Realtime Clock</Description><StartTime><Timestamp dt:dt=""int"">0</Timestamp><DateUtc dt:dt=""string"">2015-06-08T14:25:24Z</DateUtc></StartTime><FrequencyChanges><FrequencyChange><Frequency dt:dt=""r8"">2825566</Frequency><Timestamp dt:dt=""r8"">1642813906138</Timestamp><Current dt:dt=""r8"">0</Current><DateUtc dt:dt=""string"">2015-06-08T14:25:24Z</DateUtc></FrequencyChange></FrequencyChanges></Clock>\n"	Arrow Flanker 2014-12328-1	60.016	1.0.0.100	1	2136965626	Professional	2.0.10.353	2.0.10.353	06-08-2015	6/8/2015 2:25:24 PM	10:25:24	2.0.10.248	3	1	1	1	NA	NA	NA	NA	NA	NA	NA	NA	NA	NA	NA	NA	NA	NA	NA	NA	NA	NA	NA	NA	NA	NA	NA	NA	BlockProc	BlockList	NA	15	{LEFTARROW}	NA	-100	2560	congruent	NA	NA	NA	NA	NA	NA	NA	NA	NA	NA	NA	NA	NA	NA	NA	NA	NA	NA	NA	NA	NA	NA	TrialProc	TrialList	1	20	326388	17	0	17	323889	1516	1	{LEFTARROW}	-999999	0	325905	0	{LEFTARROW}	463	326368	NA	NA	left	lllll.bmp	354	0	NA	0	0	0	0	NA	0	0	0	NA	0	0	0	0	NA	0	0	1	1	15
Arrow Flanker 2014	12328	1	"<?xml version=""1.0""?>\n<Clock xmlns:dt=""urn:schemas-microsoft-com:datatypes""><Description dt:dt=""string"">E-Prime Primary Realtime Clock</Description><StartTime><Timestamp dt:dt=""int"">0</Timestamp><DateUtc dt:dt=""string"">2015-06-08T14:25:24Z</DateUtc></StartTime><FrequencyChanges><FrequencyChange><Frequency dt:dt=""r8"">2825566</Frequency><Timestamp dt:dt=""r8"">1642813906138</Timestamp><Current dt:dt=""r8"">0</Current><DateUtc dt:dt=""string"">2015-06-08T14:25:24Z</DateUtc></FrequencyChange></FrequencyChanges></Clock>\n"	Arrow Flanker 2014-12328-1	60.016	1.0.0.100	1	2136965626	Professional	2.0.10.353	2.0.10.353	06-08-2015	6/8/2015 2:25:24 PM	10:25:24	2.0.10.248	3	1	1	1	NA	NA	NA	NA	NA	NA	NA	NA	NA	NA	NA	NA	NA	NA	NA	NA	NA	NA	NA	NA	NA	NA	NA	NA	BlockProc	BlockList	NA	16	{RIGHTARROW}	NA	-100	1315	neutral	NA	NA	NA	NA	NA	NA	NA	NA	NA	NA	NA	NA	NA	NA	NA	NA	NA	NA	NA	NA	NA	NA	TrialProc	TrialList	0	6	328438	16	0	16	326921	550	1	{RIGHTARROW}	-999999	0	327971	0	{RIGHTARROW}	461	328432	NA	NA	right	ooroo.bmp	354	0	NA	0	0	0	0	NA	0	0	0	NA	0	0	0	0	NA	0	0	6	1	16
Arrow Flanker 2014	12328	1	"<?xml version=""1.0""?>\n<Clock xmlns:dt=""urn:schemas-microsoft-com:datatypes""><Description dt:dt=""string"">E-Prime Primary Realtime Clock</Description><StartTime><Timestamp dt:dt=""int"">0</Timestamp><DateUtc dt:dt=""string"">2015-06-08T14:25:24Z</DateUtc></StartTime><FrequencyChanges><FrequencyChange><Frequency dt:dt=""r8"">2825566</Frequency><Timestamp dt:dt=""r8"">1642813906138</Timestamp><Current dt:dt=""r8"">0</Current><DateUtc dt:dt=""string"">2015-06-08T14:25:24Z</DateUtc></FrequencyChange></FrequencyChanges></Clock>\n"	Arrow Flanker 2014-12328-1	60.016	1.0.0.100	1	2136965626	Professional	2.0.10.353	2.0.10.353	06-08-2015	6/8/2015 2:25:24 PM	10:25:24	2.0.10.248	3	1	1	1	NA	NA	NA	NA	NA	NA	NA	NA	NA	NA	NA	NA	NA	NA	NA	NA	NA	NA	NA	NA	NA	NA	NA	NA	BlockProc	BlockList	NA	17	{RIGHTARROW}	NA	-100	1282	incongruent	NA	NA	NA	NA	NA	NA	NA	NA	NA	NA	NA	NA	NA	NA	NA	NA	NA	NA	NA	NA	NA	NA	TrialProc	TrialList	1	12	331020	17	0	17	328971	1083	1	{RIGHTARROW}	-999999	0	330554	0	{RIGHTARROW}	454	331008	NA	NA	right	llrll.bmp	354	0	NA	0	0	0	0	NA	0	0	0	NA	0	0	0	0	NA	0	0	4	1	17
Arrow Flanker 2014	12328	1	"<?xml version=""1.0""?>\n<Clock xmlns:dt=""urn:schemas-microsoft-com:datatypes""><Description dt:dt=""string"">E-Prime Primary Realtime Clock</Description><StartTime><Timestamp dt:dt=""int"">0</Timestamp><DateUtc dt:dt=""string"">2015-06-08T14:25:24Z</DateUtc></StartTime><FrequencyChanges><FrequencyChange><Frequency dt:dt=""r8"">2825566</Frequency><Timestamp dt:dt=""r8"">1642813906138</Timestamp><Current dt:dt=""r8"">0</Current><DateUtc dt:dt=""string"">2015-06-08T14:25:24Z</DateUtc></FrequencyChange></FrequencyChanges></Clock>\n"	Arrow Flanker 2014-12328-1	60.016	1.0.0.100	1	2136965626	Professional	2.0.10.353	2.0.10.353	06-08-2015	6/8/2015 2:25:24 PM	10:25:24	2.0.10.248	3	1	1	1	NA	NA	NA	NA	NA	NA	NA	NA	NA	NA	NA	NA	NA	NA	NA	NA	NA	NA	NA	NA	NA	NA	NA	NA	BlockProc	BlockList	NA	18	{LEFTARROW}	NA	-100	716	congruent	NA	NA	NA	NA	NA	NA	NA	NA	NA	NA	NA	NA	NA	NA	NA	NA	NA	NA	NA	NA	NA	NA	TrialProc	TrialList	1	16	333136	17	0	17	331554	583	1	{LEFTARROW}	-999999	0	332637	0	{LEFTARROW}	483	333120	NA	NA	left	lllll.bmp	354	0	NA	0	0	0	0	NA	0	0	0	NA	0	0	0	0	NA	0	0	1	1	18
Arrow Flanker 2014	12328	1	"<?xml version=""1.0""?>\n<Clock xmlns:dt=""urn:schemas-microsoft-com:datatypes""><Description dt:dt=""string"">E-Prime Primary Realtime Clock</Description><StartTime><Timestamp dt:dt=""int"">0</Timestamp><DateUtc dt:dt=""string"">2015-06-08T14:25:24Z</DateUtc></StartTime><FrequencyChanges><FrequencyChange><Frequency dt:dt=""r8"">2825566</Frequency><Timestamp dt:dt=""r8"">1642813906138</Timestamp><Current dt:dt=""r8"">0</Current><DateUtc dt:dt=""string"">2015-06-08T14:25:24Z</DateUtc></FrequencyChange></FrequencyChanges></Clock>\n"	Arrow Flanker 2014-12328-1	60.016	1.0.0.100	1	2136965626	Professional	2.0.10.353	2.0.10.353	06-08-2015	6/8/2015 2:25:24 PM	10:25:24	2.0.10.248	3	1	1	1	NA	NA	NA	NA	NA	NA	NA	NA	NA	NA	NA	NA	NA	NA	NA	NA	NA	NA	NA	NA	NA	NA	NA	NA	BlockProc	BlockList	NA	19	{RIGHTARROW}	NA	-100	2151	congruent	NA	NA	NA	NA	NA	NA	NA	NA	NA	NA	NA	NA	NA	NA	NA	NA	NA	NA	NA	NA	NA	NA	TrialProc	TrialList	0	13	335869	17	0	17	333670	1233	1	{RIGHTARROW}	-999999	0	335403	0	{RIGHTARROW}	453	335856	NA	NA	right	rrrrr.bmp	354	0	NA	0	0	0	0	NA	0	0	0	NA	0	0	0	0	NA	0	0	2	1	19
Arrow Flanker 2014	12328	1	"<?xml version=""1.0""?>\n<Clock xmlns:dt=""urn:schemas-microsoft-com:datatypes""><Description dt:dt=""string"">E-Prime Primary Realtime Clock</Description><StartTime><Timestamp dt:dt=""int"">0</Timestamp><DateUtc dt:dt=""string"">2015-06-08T14:25:24Z</DateUtc></StartTime><FrequencyChanges><FrequencyChange><Frequency dt:dt=""r8"">2825566</Frequency><Timestamp dt:dt=""r8"">1642813906138</Timestamp><Current dt:dt=""r8"">0</Current><DateUtc dt:dt=""string"">2015-06-08T14:25:24Z</DateUtc></FrequencyChange></FrequencyChanges></Clock>\n"	Arrow Flanker 2014-12328-1	60.016	1.0.0.100	1	2136965626	Professional	2.0.10.353	2.0.10.353	06-08-2015	6/8/2015 2:25:24 PM	10:25:24	2.0.10.248	3	1	1	1	NA	NA	NA	NA	NA	NA	NA	NA	NA	NA	NA	NA	NA	NA	NA	NA	NA	NA	NA	NA	NA	NA	NA	NA	BlockProc	BlockList	NA	20	{RIGHTARROW}	NA	-100	1091	congruent	NA	NA	NA	NA	NA	NA	NA	NA	NA	NA	NA	NA	NA	NA	NA	NA	NA	NA	NA	NA	NA	NA	TrialProc	TrialList	0	10	337802	17	0	16	336402	467	1	{RIGHTARROW}	-999999	0	337369	0	{RIGHTARROW}	423	337792	NA	NA	right	rrrrr.bmp	354	0	NA	0	0	0	0	NA	0	0	0	NA	0	0	0	0	NA	0	0	2	1	20
Arrow Flanker 2014	12328	1	"<?xml version=""1.0""?>\n<Clock xmlns:dt=""urn:schemas-microsoft-com:datatypes""><Description dt:dt=""string"">E-Prime Primary Realtime Clock</Description><StartTime><Timestamp dt:dt=""int"">0</Timestamp><DateUtc dt:dt=""string"">2015-06-08T14:25:24Z</DateUtc></StartTime><FrequencyChanges><FrequencyChange><Frequency dt:dt=""r8"">2825566</Frequency><Timestamp dt:dt=""r8"">1642813906138</Timestamp><Current dt:dt=""r8"">0</Current><DateUtc dt:dt=""string"">2015-06-08T14:25:24Z</DateUtc></FrequencyChange></FrequencyChanges></Clock>\n"	Arrow Flanker 2014-12328-1	60.016	1.0.0.100	1	2136965626	Professional	2.0.10.353	2.0.10.353	06-08-2015	6/8/2015 2:25:24 PM	10:25:24	2.0.10.248	3	1	1	1	NA	NA	NA	NA	NA	NA	NA	NA	NA	NA	NA	NA	NA	NA	NA	NA	NA	NA	NA	NA	NA	NA	NA	NA	BlockProc	BlockList	NA	21	{LEFTARROW}	NA	-100	1854	congruent	NA	NA	NA	NA	NA	NA	NA	NA	NA	NA	NA	NA	NA	NA	NA	NA	NA	NA	NA	NA	NA	NA	TrialProc	TrialList	0	9	340585	16	0	16	338335	1283	1	{LEFTARROW}	-999999	0	340118	0	{LEFTARROW}	457	340575	NA	NA	left	lllll.bmp	354	0	NA	0	0	0	0	NA	0	0	0	NA	0	0	0	0	NA	0	0	1	1	21
Arrow Flanker 2014	12328	1	"<?xml version=""1.0""?>\n<Clock xmlns:dt=""urn:schemas-microsoft-com:datatypes""><Description dt:dt=""string"">E-Prime Primary Realtime Clock</Description><StartTime><Timestamp dt:dt=""int"">0</Timestamp><DateUtc dt:dt=""string"">2015-06-08T14:25:24Z</DateUtc></StartTime><FrequencyChanges><FrequencyChange><Frequency dt:dt=""r8"">2825566</Frequency><Timestamp dt:dt=""r8"">1642813906138</Timestamp><Current dt:dt=""r8"">0</Current><DateUtc dt:dt=""string"">2015-06-08T14:25:24Z</DateUtc></FrequencyChange></FrequencyChanges></Clock>\n"	Arrow Flanker 2014-12328-1	60.016	1.0.0.100	1	2136965626	Professional	2.0.10.353	2.0.10.353	06-08-2015	6/8/2015 2:25:24 PM	10:25:24	2.0.10.248	3	1	1	1	NA	NA	NA	NA	NA	NA	NA	NA	NA	NA	NA	NA	NA	NA	NA	NA	NA	NA	NA	NA	NA	NA	NA	NA	BlockProc	BlockList	NA	22	{RIGHTARROW}	NA	-100	593	incongruent	NA	NA	NA	NA	NA	NA	NA	NA	NA	NA	NA	NA	NA	NA	NA	NA	NA	NA	NA	NA	1	NA	TrialProc	TrialList	0	14	342734	17	0	17	341118	583	1	{RIGHTARROW}	-999999	0	342201	0	{RIGHTARROW}	519	342720	NA	NA	right	llrll.bmp	354	0	NA	-999999	16	343267	0	1	8349	351616	0	NA	0	0	0	0	NA	0	0	4	1	22
Arrow Flanker 2014	12328	1	"<?xml version=""1.0""?>\n<Clock xmlns:dt=""urn:schemas-microsoft-com:datatypes""><Description dt:dt=""string"">E-Prime Primary Realtime Clock</Description><StartTime><Timestamp dt:dt=""int"">0</Timestamp><DateUtc dt:dt=""string"">2015-06-08T14:25:24Z</DateUtc></StartTime><FrequencyChanges><FrequencyChange><Frequency dt:dt=""r8"">2825566</Frequency><Timestamp dt:dt=""r8"">1642813906138</Timestamp><Current dt:dt=""r8"">0</Current><DateUtc dt:dt=""string"">2015-06-08T14:25:24Z</DateUtc></FrequencyChange></FrequencyChanges></Clock>\n"	Arrow Flanker 2014-12328-1	60.016	1.0.0.100	1	2136965626	Professional	2.0.10.353	2.0.10.353	06-08-2015	6/8/2015 2:25:24 PM	10:25:24	2.0.10.248	3	1	1	1	NA	NA	NA	NA	NA	NA	NA	NA	NA	NA	NA	NA	NA	NA	NA	NA	NA	NA	NA	NA	NA	NA	NA	NA	BlockProc	BlockList	NA	23	{RIGHTARROW}	NA	-100	1484	congruent	NA	NA	NA	NA	NA	NA	NA	NA	NA	NA	NA	NA	NA	NA	NA	NA	NA	NA	NA	NA	NA	NA	TrialProc	TrialList	0	20	355747	17	0	21	354148	450	1	{RIGHTARROW}	-999999	0	355114	0	{RIGHTARROW}	613	355727	NA	NA	right	rrrrr.bmp	354	0	NA	0	0	0	0	NA	0	0	0	NA	0	0	0	0	NA	0	0	2	1	23
Arrow Flanker 2014	12328	1	"<?xml version=""1.0""?>\n<Clock xmlns:dt=""urn:schemas-microsoft-com:datatypes""><Description dt:dt=""string"">E-Prime Primary Realtime Clock</Description><StartTime><Timestamp dt:dt=""int"">0</Timestamp><DateUtc dt:dt=""string"">2015-06-08T14:25:24Z</DateUtc></StartTime><FrequencyChanges><FrequencyChange><Frequency dt:dt=""r8"">2825566</Frequency><Timestamp dt:dt=""r8"">1642813906138</Timestamp><Current dt:dt=""r8"">0</Current><DateUtc dt:dt=""string"">2015-06-08T14:25:24Z</DateUtc></FrequencyChange></FrequencyChanges></Clock>\n"	Arrow Flanker 2014-12328-1	60.016	1.0.0.100	1	2136965626	Professional	2.0.10.353	2.0.10.353	06-08-2015	6/8/2015 2:25:24 PM	10:25:24	2.0.10.248	3	1	1	1	NA	NA	NA	NA	NA	NA	NA	NA	NA	NA	NA	NA	NA	NA	NA	NA	NA	NA	NA	NA	NA	NA	NA	NA	BlockProc	BlockList	NA	24	{RIGHTARROW}	NA	-100	1052	congruent	NA	NA	NA	NA	NA	NA	NA	NA	NA	NA	NA	NA	NA	NA	NA	NA	NA	NA	NA	NA	NA	NA	TrialProc	TrialList	0	15	358030	17	0	16	356280	817	1	{RIGHTARROW}	-999999	0	357597	0	{RIGHTARROW}	418	358015	NA	NA	right	rrrrr.bmp	354	0	NA	0	0	0	0	NA	0	0	0	NA	0	0	0	0	NA	0	0	2	1	24
Arrow Flanker 2014	12328	1	"<?xml version=""1.0""?>\n<Clock xmlns:dt=""urn:schemas-microsoft-com:datatypes""><Description dt:dt=""string"">E-Prime Primary Realtime Clock</Description><StartTime><Timestamp dt:dt=""int"">0</Timestamp><DateUtc dt:dt=""string"">2015-06-08T14:25:24Z</DateUtc></StartTime><FrequencyChanges><FrequencyChange><Frequency dt:dt=""r8"">2825566</Frequency><Timestamp dt:dt=""r8"">1642813906138</Timestamp><Current dt:dt=""r8"">0</Current><DateUtc dt:dt=""string"">2015-06-08T14:25:24Z</DateUtc></FrequencyChange></FrequencyChanges></Clock>\n"	Arrow Flanker 2014-12328-1	60.016	1.0.0.100	1	2136965626	Professional	2.0.10.353	2.0.10.353	06-08-2015	6/8/2015 2:25:24 PM	10:25:24	2.0.10.248	3	1	1	1	NA	NA	NA	NA	NA	NA	NA	NA	NA	NA	NA	NA	NA	NA	NA	NA	NA	NA	NA	NA	NA	NA	NA	NA	BlockProc	BlockList	NA	25	{LEFTARROW}	NA	-100	1388	neutral	NA	NA	NA	NA	NA	NA	NA	NA	NA	NA	NA	NA	NA	NA	NA	NA	NA	NA	NA	NA	NA	NA	TrialProc	TrialList	1	16	360079	17	0	16	358563	467	1	{LEFTARROW}	-999999	0	359530	0	{LEFTARROW}	533	360063	NA	NA	left	ooloo.bmp	354	0	NA	0	0	0	0	NA	0	0	0	NA	0	0	0	0	NA	0	0	5	1	25
Arrow Flanker 2014	12328	1	"<?xml version=""1.0""?>\n<Clock xmlns:dt=""urn:schemas-microsoft-com:datatypes""><Description dt:dt=""string"">E-Prime Primary Realtime Clock</Description><StartTime><Timestamp dt:dt=""int"">0</Timestamp><DateUtc dt:dt=""string"">2015-06-08T14:25:24Z</DateUtc></StartTime><FrequencyChanges><FrequencyChange><Frequency dt:dt=""r8"">2825566</Frequency><Timestamp dt:dt=""r8"">1642813906138</Timestamp><Current dt:dt=""r8"">0</Current><DateUtc dt:dt=""string"">2015-06-08T14:25:24Z</DateUtc></FrequencyChange></FrequencyChanges></Clock>\n"	Arrow Flanker 2014-12328-1	60.016	1.0.0.100	1	2136965626	Professional	2.0.10.353	2.0.10.353	06-08-2015	6/8/2015 2:25:24 PM	10:25:24	2.0.10.248	3	1	1	1	NA	NA	NA	NA	NA	NA	NA	NA	NA	NA	NA	NA	NA	NA	NA	NA	NA	NA	NA	NA	NA	NA	NA	NA	BlockProc	BlockList	NA	26	{LEFTARROW}	NA	-100	961	neutral	NA	NA	NA	NA	NA	NA	NA	NA	NA	NA	NA	NA	NA	NA	NA	NA	NA	NA	NA	NA	NA	NA	TrialProc	TrialList	0	8	362279	16	0	16	360612	767	1	{LEFTARROW}	-999999	0	361879	0	{LEFTARROW}	392	362271	NA	NA	left	ooloo.bmp	354	0	NA	0	0	0	0	NA	0	0	0	NA	0	0	0	0	NA	0	0	5	1	26
Arrow Flanker 2014	12328	1	"<?xml version=""1.0""?>\n<Clock xmlns:dt=""urn:schemas-microsoft-com:datatypes""><Description dt:dt=""string"">E-Prime Primary Realtime Clock</Description><StartTime><Timestamp dt:dt=""int"">0</Timestamp><DateUtc dt:dt=""string"">2015-06-08T14:25:24Z</DateUtc></StartTime><FrequencyChanges><FrequencyChange><Frequency dt:dt=""r8"">2825566</Frequency><Timestamp dt:dt=""r8"">1642813906138</Timestamp><Current dt:dt=""r8"">0</Current><DateUtc dt:dt=""string"">2015-06-08T14:25:24Z</DateUtc></FrequencyChange></FrequencyChanges></Clock>\n"	Arrow Flanker 2014-12328-1	60.016	1.0.0.100	1	2136965626	Professional	2.0.10.353	2.0.10.353	06-08-2015	6/8/2015 2:25:24 PM	10:25:24	2.0.10.248	3	1	1	1	NA	NA	NA	NA	NA	NA	NA	NA	NA	NA	NA	NA	NA	NA	NA	NA	NA	NA	NA	NA	NA	NA	NA	NA	BlockProc	BlockList	NA	27	{LEFTARROW}	NA	-100	2614	congruent	NA	NA	NA	NA	NA	NA	NA	NA	NA	NA	NA	NA	NA	NA	NA	NA	NA	NA	NA	NA	NA	NA	TrialProc	TrialList	1	10	365161	17	0	17	362812	0	1	{LEFTARROW}	-999999	0	364745	0	{LEFTARROW}	406	365151	NA	NA	left	lllll.bmp	354	0	NA	0	0	0	0	NA	0	0	0	NA	0	0	0	0	NA	0	0	1	1	27
Arrow Flanker 2014	12328	1	"<?xml version=""1.0""?>\n<Clock xmlns:dt=""urn:schemas-microsoft-com:datatypes""><Description dt:dt=""string"">E-Prime Primary Realtime Clock</Description><StartTime><Timestamp dt:dt=""int"">0</Timestamp><DateUtc dt:dt=""string"">2015-06-08T14:25:24Z</DateUtc></StartTime><FrequencyChanges><FrequencyChange><Frequency dt:dt=""r8"">2825566</Frequency><Timestamp dt:dt=""r8"">1642813906138</Timestamp><Current dt:dt=""r8"">0</Current><DateUtc dt:dt=""string"">2015-06-08T14:25:24Z</DateUtc></FrequencyChange></FrequencyChanges></Clock>\n"	Arrow Flanker 2014-12328-1	60.016	1.0.0.100	1	2136965626	Professional	2.0.10.353	2.0.10.353	06-08-2015	6/8/2015 2:25:24 PM	10:25:24	2.0.10.248	3	1	1	1	NA	NA	NA	NA	NA	NA	NA	NA	NA	NA	NA	NA	NA	NA	NA	NA	NA	NA	NA	NA	NA	NA	NA	NA	BlockProc	BlockList	NA	28	{LEFTARROW}	NA	-100	1134	congruent	NA	NA	NA	NA	NA	NA	NA	NA	NA	NA	NA	NA	NA	NA	NA	NA	NA	NA	NA	NA	NA	NA	TrialProc	TrialList	0	20	367411	16	0	17	365695	0	1	{LEFTARROW}	-999999	0	366928	0	{LEFTARROW}	463	367391	NA	NA	left	lllll.bmp	354	0	NA	0	0	0	0	NA	0	0	0	NA	0	0	0	0	NA	0	0	1	1	28
Arrow Flanker 2014	12328	1	"<?xml version=""1.0""?>\n<Clock xmlns:dt=""urn:schemas-microsoft-com:datatypes""><Description dt:dt=""string"">E-Prime Primary Realtime Clock</Description><StartTime><Timestamp dt:dt=""int"">0</Timestamp><DateUtc dt:dt=""string"">2015-06-08T14:25:24Z</DateUtc></StartTime><FrequencyChanges><FrequencyChange><Frequency dt:dt=""r8"">2825566</Frequency><Timestamp dt:dt=""r8"">1642813906138</Timestamp><Current dt:dt=""r8"">0</Current><DateUtc dt:dt=""string"">2015-06-08T14:25:24Z</DateUtc></FrequencyChange></FrequencyChanges></Clock>\n"	Arrow Flanker 2014-12328-1	60.016	1.0.0.100	1	2136965626	Professional	2.0.10.353	2.0.10.353	06-08-2015	6/8/2015 2:25:24 PM	10:25:24	2.0.10.248	3	1	1	1	NA	NA	NA	NA	NA	NA	NA	NA	NA	NA	NA	NA	NA	NA	NA	NA	NA	NA	NA	NA	NA	NA	NA	NA	BlockProc	BlockList	NA	29	{RIGHTARROW}	NA	-100	1744	congruent	NA	NA	NA	NA	NA	NA	NA	NA	NA	NA	NA	NA	NA	NA	NA	NA	NA	NA	NA	NA	NA	NA	TrialProc	TrialList	0	19	369810	17	0	17	367944	0	1	{RIGHTARROW}	-999999	0	369310	0	{RIGHTARROW}	481	369791	NA	NA	right	rrrrr.bmp	354	0	NA	0	0	0	0	NA	0	0	0	NA	0	0	0	0	NA	0	0	2	1	29
Arrow Flanker 2014	12328	1	"<?xml version=""1.0""?>\n<Clock xmlns:dt=""urn:schemas-microsoft-com:datatypes""><Description dt:dt=""string"">E-Prime Primary Realtime Clock</Description><StartTime><Timestamp dt:dt=""int"">0</Timestamp><DateUtc dt:dt=""string"">2015-06-08T14:25:24Z</DateUtc></StartTime><FrequencyChanges><FrequencyChange><Frequency dt:dt=""r8"">2825566</Frequency><Timestamp dt:dt=""r8"">1642813906138</Timestamp><Current dt:dt=""r8"">0</Current><DateUtc dt:dt=""string"">2015-06-08T14:25:24Z</DateUtc></FrequencyChange></FrequencyChanges></Clock>\n"	Arrow Flanker 2014-12328-1	60.016	1.0.0.100	1	2136965626	Professional	2.0.10.353	2.0.10.353	06-08-2015	6/8/2015 2:25:24 PM	10:25:24	2.0.10.248	3	1	1	1	NA	NA	NA	NA	NA	NA	NA	NA	NA	NA	NA	NA	NA	NA	NA	NA	NA	NA	NA	NA	NA	NA	NA	NA	BlockProc	BlockList	NA	30	{RIGHTARROW}	NA	-100	2259	incongruent	NA	NA	NA	NA	NA	NA	NA	NA	NA	NA	NA	NA	NA	NA	NA	NA	NA	NA	NA	NA	NA	NA	TrialProc	TrialList	0	16	372943	16	0	16	370343	0	1	{RIGHTARROW}	-999999	0	372443	0	{RIGHTARROW}	484	372927	NA	NA	right	llrll.bmp	354	0	NA	0	0	0	0	NA	0	0	0	NA	0	0	0	0	NA	0	0	4	1	30
Arrow Flanker 2014	12328	1	"<?xml version=""1.0""?>\n<Clock xmlns:dt=""urn:schemas-microsoft-com:datatypes""><Description dt:dt=""string"">E-Prime Primary Realtime Clock</Description><StartTime><Timestamp dt:dt=""int"">0</Timestamp><DateUtc dt:dt=""string"">2015-06-08T14:25:24Z</DateUtc></StartTime><FrequencyChanges><FrequencyChange><Frequency dt:dt=""r8"">2825566</Frequency><Timestamp dt:dt=""r8"">1642813906138</Timestamp><Current dt:dt=""r8"">0</Current><DateUtc dt:dt=""string"">2015-06-08T14:25:24Z</DateUtc></FrequencyChange></FrequencyChanges></Clock>\n"	Arrow Flanker 2014-12328-1	60.016	1.0.0.100	1	2136965626	Professional	2.0.10.353	2.0.10.353	06-08-2015	6/8/2015 2:25:24 PM	10:25:24	2.0.10.248	3	1	1	1	NA	NA	NA	NA	NA	NA	NA	NA	NA	NA	NA	NA	NA	NA	NA	NA	NA	NA	NA	NA	NA	NA	NA	NA	BlockProc	BlockList	NA	31	{RIGHTARROW}	NA	-100	1451	neutral	NA	NA	NA	NA	NA	NA	NA	NA	NA	NA	NA	NA	NA	NA	NA	NA	NA	NA	NA	NA	NA	NA	TrialProc	TrialList	0	5	375076	16	0	17	373476	0	1	{RIGHTARROW}	-999999	0	374542	0	{RIGHTARROW}	529	375071	NA	NA	right	ooroo.bmp	354	0	NA	0	0	0	0	NA	0	0	0	NA	0	0	0	0	NA	0	0	6	1	31
Arrow Flanker 2014	12328	1	"<?xml version=""1.0""?>\n<Clock xmlns:dt=""urn:schemas-microsoft-com:datatypes""><Description dt:dt=""string"">E-Prime Primary Realtime Clock</Description><StartTime><Timestamp dt:dt=""int"">0</Timestamp><DateUtc dt:dt=""string"">2015-06-08T14:25:24Z</DateUtc></StartTime><FrequencyChanges><FrequencyChange><Frequency dt:dt=""r8"">2825566</Frequency><Timestamp dt:dt=""r8"">1642813906138</Timestamp><Current dt:dt=""r8"">0</Current><DateUtc dt:dt=""string"">2015-06-08T14:25:24Z</DateUtc></FrequencyChange></FrequencyChanges></Clock>\n"	Arrow Flanker 2014-12328-1	60.016	1.0.0.100	1	2136965626	Professional	2.0.10.353	2.0.10.353	06-08-2015	6/8/2015 2:25:24 PM	10:25:24	2.0.10.248	3	1	1	1	NA	NA	NA	NA	NA	NA	NA	NA	NA	NA	NA	NA	NA	NA	NA	NA	NA	NA	NA	NA	NA	NA	NA	NA	BlockProc	BlockList	NA	32	{RIGHTARROW}	NA	-100	1550	incongruent	NA	NA	NA	NA	NA	NA	NA	NA	NA	NA	NA	NA	NA	NA	NA	NA	NA	NA	NA	NA	NA	NA	TrialProc	TrialList	1	12	377291	17	0	17	375609	0	1	{RIGHTARROW}	-999999	0	376725	0	{RIGHTARROW}	553	377278	NA	NA	right	llrll.bmp	354	0	NA	0	0	0	0	NA	0	0	0	NA	0	0	0	0	NA	0	0	4	1	32
Arrow Flanker 2014	12328	1	"<?xml version=""1.0""?>\n<Clock xmlns:dt=""urn:schemas-microsoft-com:datatypes""><Description dt:dt=""string"">E-Prime Primary Realtime Clock</Description><StartTime><Timestamp dt:dt=""int"">0</Timestamp><DateUtc dt:dt=""string"">2015-06-08T14:25:24Z</DateUtc></StartTime><FrequencyChanges><FrequencyChange><Frequency dt:dt=""r8"">2825566</Frequency><Timestamp dt:dt=""r8"">1642813906138</Timestamp><Current dt:dt=""r8"">0</Current><DateUtc dt:dt=""string"">2015-06-08T14:25:24Z</DateUtc></FrequencyChange></FrequencyChanges></Clock>\n"	Arrow Flanker 2014-12328-1	60.016	1.0.0.100	1	2136965626	Professional	2.0.10.353	2.0.10.353	06-08-2015	6/8/2015 2:25:24 PM	10:25:24	2.0.10.248	3	1	1	1	NA	NA	NA	NA	NA	NA	NA	NA	NA	NA	NA	NA	NA	NA	NA	NA	NA	NA	NA	NA	NA	NA	NA	NA	BlockProc	BlockList	NA	33	{RIGHTARROW}	NA	-100	1586	incongruent	NA	NA	NA	NA	NA	NA	NA	NA	NA	NA	NA	NA	NA	NA	NA	NA	NA	NA	NA	NA	NA	NA	TrialProc	TrialList	0	9	379624	17	0	17	377825	0	1	{RIGHTARROW}	-999999	0	379174	0	{RIGHTARROW}	441	379615	NA	NA	right	llrll.bmp	354	0	NA	0	0	0	0	NA	0	0	0	NA	0	0	0	0	NA	0	0	4	1	33
Arrow Flanker 2014	12328	1	"<?xml version=""1.0""?>\n<Clock xmlns:dt=""urn:schemas-microsoft-com:datatypes""><Description dt:dt=""string"">E-Prime Primary Realtime Clock</Description><StartTime><Timestamp dt:dt=""int"">0</Timestamp><DateUtc dt:dt=""string"">2015-06-08T14:25:24Z</DateUtc></StartTime><FrequencyChanges><FrequencyChange><Frequency dt:dt=""r8"">2825566</Frequency><Timestamp dt:dt=""r8"">1642813906138</Timestamp><Current dt:dt=""r8"">0</Current><DateUtc dt:dt=""string"">2015-06-08T14:25:24Z</DateUtc></FrequencyChange></FrequencyChanges></Clock>\n"	Arrow Flanker 2014-12328-1	60.016	1.0.0.100	1	2136965626	Professional	2.0.10.353	2.0.10.353	06-08-2015	6/8/2015 2:25:24 PM	10:25:24	2.0.10.248	3	1	1	1	NA	NA	NA	NA	NA	NA	NA	NA	NA	NA	NA	NA	NA	NA	NA	NA	NA	NA	NA	NA	NA	NA	NA	NA	BlockProc	BlockList	NA	34	{LEFTARROW}	NA	-100	1134	neutral	NA	NA	NA	NA	NA	NA	NA	NA	NA	NA	NA	NA	NA	NA	NA	NA	NA	NA	NA	NA	NA	NA	TrialProc	TrialList	0	10	382057	17	0	16	380157	0	1	{LEFTARROW}	-999999	0	381540	0	{LEFTARROW}	507	382047	NA	NA	left	ooloo.bmp	354	0	NA	0	0	0	0	NA	0	0	0	NA	0	0	0	0	NA	0	0	5	1	34
Arrow Flanker 2014	12328	1	"<?xml version=""1.0""?>\n<Clock xmlns:dt=""urn:schemas-microsoft-com:datatypes""><Description dt:dt=""string"">E-Prime Primary Realtime Clock</Description><StartTime><Timestamp dt:dt=""int"">0</Timestamp><DateUtc dt:dt=""string"">2015-06-08T14:25:24Z</DateUtc></StartTime><FrequencyChanges><FrequencyChange><Frequency dt:dt=""r8"">2825566</Frequency><Timestamp dt:dt=""r8"">1642813906138</Timestamp><Current dt:dt=""r8"">0</Current><DateUtc dt:dt=""string"">2015-06-08T14:25:24Z</DateUtc></FrequencyChange></FrequencyChanges></Clock>\n"	Arrow Flanker 2014-12328-1	60.016	1.0.0.100	1	2136965626	Professional	2.0.10.353	2.0.10.353	06-08-2015	6/8/2015 2:25:24 PM	10:25:24	2.0.10.248	3	1	1	1	NA	NA	NA	NA	NA	NA	NA	NA	NA	NA	NA	NA	NA	NA	NA	NA	NA	NA	NA	NA	NA	NA	NA	NA	BlockProc	BlockList	NA	35	{RIGHTARROW}	NA	-100	1902	incongruent	NA	NA	NA	NA	NA	NA	NA	NA	NA	NA	NA	NA	NA	NA	NA	NA	NA	NA	NA	NA	NA	NA	TrialProc	TrialList	0	8	384423	17	0	16	382590	0	1	{RIGHTARROW}	-999999	16	383873	0	{RIGHTARROW}	541	384414	NA	NA	right	llrll.bmp	354	0	NA	0	0	0	0	NA	0	0	0	NA	0	0	0	0	NA	0	0	4	1	35
Arrow Flanker 2014	12328	1	"<?xml version=""1.0""?>\n<Clock xmlns:dt=""urn:schemas-microsoft-com:datatypes""><Description dt:dt=""string"">E-Prime Primary Realtime Clock</Description><StartTime><Timestamp dt:dt=""int"">0</Timestamp><DateUtc dt:dt=""string"">2015-06-08T14:25:24Z</DateUtc></StartTime><FrequencyChanges><FrequencyChange><Frequency dt:dt=""r8"">2825566</Frequency><Timestamp dt:dt=""r8"">1642813906138</Timestamp><Current dt:dt=""r8"">0</Current><DateUtc dt:dt=""string"">2015-06-08T14:25:24Z</DateUtc></FrequencyChange></FrequencyChanges></Clock>\n"	Arrow Flanker 2014-12328-1	60.016	1.0.0.100	1	2136965626	Professional	2.0.10.353	2.0.10.353	06-08-2015	6/8/2015 2:25:24 PM	10:25:24	2.0.10.248	3	1	1	1	NA	NA	NA	NA	NA	NA	NA	NA	NA	NA	NA	NA	NA	NA	NA	NA	NA	NA	NA	NA	NA	NA	NA	NA	BlockProc	BlockList	NA	36	{LEFTARROW}	NA	-100	1622	neutral	NA	NA	NA	NA	NA	NA	NA	NA	NA	NA	NA	NA	NA	NA	NA	NA	NA	NA	NA	NA	NA	NA	TrialProc	TrialList	0	10	386856	16	0	16	384956	0	1	{LEFTARROW}	-999999	0	386356	0	{LEFTARROW}	490	386846	NA	NA	left	ooloo.bmp	354	0	NA	0	0	0	0	NA	0	0	0	NA	0	0	0	0	NA	0	0	5	1	36
Arrow Flanker 2014	12328	1	"<?xml version=""1.0""?>\n<Clock xmlns:dt=""urn:schemas-microsoft-com:datatypes""><Description dt:dt=""string"">E-Prime Primary Realtime Clock</Description><StartTime><Timestamp dt:dt=""int"">0</Timestamp><DateUtc dt:dt=""string"">2015-06-08T14:25:24Z</DateUtc></StartTime><FrequencyChanges><FrequencyChange><Frequency dt:dt=""r8"">2825566</Frequency><Timestamp dt:dt=""r8"">1642813906138</Timestamp><Current dt:dt=""r8"">0</Current><DateUtc dt:dt=""string"">2015-06-08T14:25:24Z</DateUtc></FrequencyChange></FrequencyChanges></Clock>\n"	Arrow Flanker 2014-12328-1	60.016	1.0.0.100	1	2136965626	Professional	2.0.10.353	2.0.10.353	06-08-2015	6/8/2015 2:25:24 PM	10:25:24	2.0.10.248	3	1	1	1	NA	NA	NA	NA	NA	NA	NA	NA	NA	NA	NA	NA	NA	NA	NA	NA	NA	NA	NA	NA	NA	NA	NA	NA	BlockProc	BlockList	NA	37	{RIGHTARROW}	NA	-100	841	congruent	NA	NA	NA	NA	NA	NA	NA	NA	NA	NA	NA	NA	NA	NA	NA	NA	NA	NA	NA	NA	1	NA	TrialProc	TrialList	1	5	388755	17	0	17	387389	0	1	{RIGHTARROW}	-999999	0	388355	0	{RIGHTARROW}	395	388750	NA	NA	right	rrrrr.bmp	354	0	NA	-999999	16	389288	0	1	2375	391663	0	NA	0	0	0	0	NA	0	0	2	1	37
Arrow Flanker 2014	12328	1	"<?xml version=""1.0""?>\n<Clock xmlns:dt=""urn:schemas-microsoft-com:datatypes""><Description dt:dt=""string"">E-Prime Primary Realtime Clock</Description><StartTime><Timestamp dt:dt=""int"">0</Timestamp><DateUtc dt:dt=""string"">2015-06-08T14:25:24Z</DateUtc></StartTime><FrequencyChanges><FrequencyChange><Frequency dt:dt=""r8"">2825566</Frequency><Timestamp dt:dt=""r8"">1642813906138</Timestamp><Current dt:dt=""r8"">0</Current><DateUtc dt:dt=""string"">2015-06-08T14:25:24Z</DateUtc></FrequencyChange></FrequencyChanges></Clock>\n"	Arrow Flanker 2014-12328-1	60.016	1.0.0.100	1	2136965626	Professional	2.0.10.353	2.0.10.353	06-08-2015	6/8/2015 2:25:24 PM	10:25:24	2.0.10.248	3	1	1	1	NA	NA	NA	NA	NA	NA	NA	NA	NA	NA	NA	NA	NA	NA	NA	NA	NA	NA	NA	NA	NA	NA	NA	NA	BlockProc	BlockList	NA	38	{LEFTARROW}	NA	-100	1501	incongruent	NA	NA	NA	NA	NA	NA	NA	NA	NA	NA	NA	NA	NA	NA	NA	NA	NA	NA	NA	NA	NA	NA	TrialProc	TrialList	1	11	395353	17	0	28	393354	0	1	{LEFTARROW}	-999999	0	394637	0	{LEFTARROW}	705	395342	NA	NA	left	rrlrr.bmp	354	0	NA	0	0	0	0	NA	0	0	0	NA	0	0	0	0	NA	0	0	3	1	38
Arrow Flanker 2014	12328	1	"<?xml version=""1.0""?>\n<Clock xmlns:dt=""urn:schemas-microsoft-com:datatypes""><Description dt:dt=""string"">E-Prime Primary Realtime Clock</Description><StartTime><Timestamp dt:dt=""int"">0</Timestamp><DateUtc dt:dt=""string"">2015-06-08T14:25:24Z</DateUtc></StartTime><FrequencyChanges><FrequencyChange><Frequency dt:dt=""r8"">2825566</Frequency><Timestamp dt:dt=""r8"">1642813906138</Timestamp><Current dt:dt=""r8"">0</Current><DateUtc dt:dt=""string"">2015-06-08T14:25:24Z</DateUtc></FrequencyChange></FrequencyChanges></Clock>\n"	Arrow Flanker 2014-12328-1	60.016	1.0.0.100	1	2136965626	Professional	2.0.10.353	2.0.10.353	06-08-2015	6/8/2015 2:25:24 PM	10:25:24	2.0.10.248	3	1	1	1	NA	NA	NA	NA	NA	NA	NA	NA	NA	NA	NA	NA	NA	NA	NA	NA	NA	NA	NA	NA	NA	NA	NA	NA	BlockProc	BlockList	NA	39	{RIGHTARROW}	NA	-100	1852	incongruent	NA	NA	NA	NA	NA	NA	NA	NA	NA	NA	NA	NA	NA	NA	NA	NA	NA	NA	NA	NA	NA	NA	TrialProc	TrialList	0	18	398336	17	0	17	395887	0	1	{RIGHTARROW}	-999999	0	397869	0	{RIGHTARROW}	449	398318	NA	NA	right	llrll.bmp	354	0	NA	0	0	0	0	NA	0	0	0	NA	0	0	0	0	NA	0	0	4	1	39
Arrow Flanker 2014	12328	1	"<?xml version=""1.0""?>\n<Clock xmlns:dt=""urn:schemas-microsoft-com:datatypes""><Description dt:dt=""string"">E-Prime Primary Realtime Clock</Description><StartTime><Timestamp dt:dt=""int"">0</Timestamp><DateUtc dt:dt=""string"">2015-06-08T14:25:24Z</DateUtc></StartTime><FrequencyChanges><FrequencyChange><Frequency dt:dt=""r8"">2825566</Frequency><Timestamp dt:dt=""r8"">1642813906138</Timestamp><Current dt:dt=""r8"">0</Current><DateUtc dt:dt=""string"">2015-06-08T14:25:24Z</DateUtc></FrequencyChange></FrequencyChanges></Clock>\n"	Arrow Flanker 2014-12328-1	60.016	1.0.0.100	1	2136965626	Professional	2.0.10.353	2.0.10.353	06-08-2015	6/8/2015 2:25:24 PM	10:25:24	2.0.10.248	3	1	1	1	NA	NA	NA	NA	NA	NA	NA	NA	NA	NA	NA	NA	NA	NA	NA	NA	NA	NA	NA	NA	NA	NA	NA	NA	BlockProc	BlockList	NA	40	{LEFTARROW}	NA	-100	1633	incongruent	NA	NA	NA	NA	NA	NA	NA	NA	NA	NA	NA	NA	NA	NA	NA	NA	NA	NA	NA	NA	NA	NA	TrialProc	TrialList	1	7	400885	17	0	16	398869	0	1	{LEFTARROW}	-999999	0	400319	0	{LEFTARROW}	559	400878	NA	NA	left	rrlrr.bmp	354	0	NA	0	0	0	0	NA	0	0	0	NA	0	0	0	0	NA	0	0	3	1	40
Arrow Flanker 2014	12328	1	"<?xml version=""1.0""?>\n<Clock xmlns:dt=""urn:schemas-microsoft-com:datatypes""><Description dt:dt=""string"">E-Prime Primary Realtime Clock</Description><StartTime><Timestamp dt:dt=""int"">0</Timestamp><DateUtc dt:dt=""string"">2015-06-08T14:25:24Z</DateUtc></StartTime><FrequencyChanges><FrequencyChange><Frequency dt:dt=""r8"">2825566</Frequency><Timestamp dt:dt=""r8"">1642813906138</Timestamp><Current dt:dt=""r8"">0</Current><DateUtc dt:dt=""string"">2015-06-08T14:25:24Z</DateUtc></FrequencyChange></FrequencyChanges></Clock>\n"	Arrow Flanker 2014-12328-1	60.016	1.0.0.100	1	2136965626	Professional	2.0.10.353	2.0.10.353	06-08-2015	6/8/2015 2:25:24 PM	10:25:24	2.0.10.248	3	1	1	1	NA	NA	NA	NA	NA	NA	NA	NA	NA	NA	NA	NA	NA	NA	NA	NA	NA	NA	NA	NA	NA	NA	NA	NA	BlockProc	BlockList	NA	41	{LEFTARROW}	NA	-100	1826	incongruent	NA	NA	NA	NA	NA	NA	NA	NA	NA	NA	NA	NA	NA	NA	NA	NA	NA	NA	NA	NA	NA	NA	TrialProc	TrialList	1	18	403584	17	0	16	401418	0	1	{LEFTARROW}	-999999	0	403068	0	{LEFTARROW}	498	403566	NA	NA	left	rrlrr.bmp	354	0	NA	0	0	0	0	NA	0	0	0	NA	0	0	0	0	NA	0	0	3	1	41
Arrow Flanker 2014	12328	1	"<?xml version=""1.0""?>\n<Clock xmlns:dt=""urn:schemas-microsoft-com:datatypes""><Description dt:dt=""string"">E-Prime Primary Realtime Clock</Description><StartTime><Timestamp dt:dt=""int"">0</Timestamp><DateUtc dt:dt=""string"">2015-06-08T14:25:24Z</DateUtc></StartTime><FrequencyChanges><FrequencyChange><Frequency dt:dt=""r8"">2825566</Frequency><Timestamp dt:dt=""r8"">1642813906138</Timestamp><Current dt:dt=""r8"">0</Current><DateUtc dt:dt=""string"">2015-06-08T14:25:24Z</DateUtc></FrequencyChange></FrequencyChanges></Clock>\n"	Arrow Flanker 2014-12328-1	60.016	1.0.0.100	1	2136965626	Professional	2.0.10.353	2.0.10.353	06-08-2015	6/8/2015 2:25:24 PM	10:25:24	2.0.10.248	3	1	1	1	NA	NA	NA	NA	NA	NA	NA	NA	NA	NA	NA	NA	NA	NA	NA	NA	NA	NA	NA	NA	NA	NA	NA	NA	BlockProc	BlockList	NA	42	{LEFTARROW}	NA	-100	1127	incongruent	NA	NA	NA	NA	NA	NA	NA	NA	NA	NA	NA	NA	NA	NA	NA	NA	NA	NA	NA	NA	NA	NA	TrialProc	TrialList	0	14	405884	17	0	17	404118	0	1	{LEFTARROW}	-999999	0	405384	0	{LEFTARROW}	486	405870	NA	NA	left	rrlrr.bmp	354	0	NA	0	0	0	0	NA	0	0	0	NA	0	0	0	0	NA	0	0	3	1	42
Arrow Flanker 2014	12328	1	"<?xml version=""1.0""?>\n<Clock xmlns:dt=""urn:schemas-microsoft-com:datatypes""><Description dt:dt=""string"">E-Prime Primary Realtime Clock</Description><StartTime><Timestamp dt:dt=""int"">0</Timestamp><DateUtc dt:dt=""string"">2015-06-08T14:25:24Z</DateUtc></StartTime><FrequencyChanges><FrequencyChange><Frequency dt:dt=""r8"">2825566</Frequency><Timestamp dt:dt=""r8"">1642813906138</Timestamp><Current dt:dt=""r8"">0</Current><DateUtc dt:dt=""string"">2015-06-08T14:25:24Z</DateUtc></FrequencyChange></FrequencyChanges></Clock>\n"	Arrow Flanker 2014-12328-1	60.016	1.0.0.100	1	2136965626	Professional	2.0.10.353	2.0.10.353	06-08-2015	6/8/2015 2:25:24 PM	10:25:24	2.0.10.248	3	1	1	1	NA	NA	NA	NA	NA	NA	NA	NA	NA	NA	NA	NA	NA	NA	NA	NA	NA	NA	NA	NA	NA	NA	NA	NA	BlockProc	BlockList	NA	43	{LEFTARROW}	NA	-100	2180	incongruent	NA	NA	NA	NA	NA	NA	NA	NA	NA	NA	NA	NA	NA	NA	NA	NA	NA	NA	NA	NA	NA	NA	TrialProc	TrialList	1	20	408866	17	0	16	406417	0	1	{LEFTARROW}	-999999	0	408267	0	{LEFTARROW}	579	408846	NA	NA	left	rrlrr.bmp	354	0	NA	0	0	0	0	NA	0	0	0	NA	0	0	0	0	NA	0	0	3	1	43
Arrow Flanker 2014	12328	1	"<?xml version=""1.0""?>\n<Clock xmlns:dt=""urn:schemas-microsoft-com:datatypes""><Description dt:dt=""string"">E-Prime Primary Realtime Clock</Description><StartTime><Timestamp dt:dt=""int"">0</Timestamp><DateUtc dt:dt=""string"">2015-06-08T14:25:24Z</DateUtc></StartTime><FrequencyChanges><FrequencyChange><Frequency dt:dt=""r8"">2825566</Frequency><Timestamp dt:dt=""r8"">1642813906138</Timestamp><Current dt:dt=""r8"">0</Current><DateUtc dt:dt=""string"">2015-06-08T14:25:24Z</DateUtc></FrequencyChange></FrequencyChanges></Clock>\n"	Arrow Flanker 2014-12328-1	60.016	1.0.0.100	1	2136965626	Professional	2.0.10.353	2.0.10.353	06-08-2015	6/8/2015 2:25:24 PM	10:25:24	2.0.10.248	3	1	1	1	NA	NA	NA	NA	NA	NA	NA	NA	NA	NA	NA	NA	NA	NA	NA	NA	NA	NA	NA	NA	NA	NA	NA	NA	BlockProc	BlockList	NA	44	{LEFTARROW}	NA	-100	1327	congruent	NA	NA	NA	NA	NA	NA	NA	NA	NA	NA	NA	NA	NA	NA	NA	NA	NA	NA	NA	NA	NA	NA	TrialProc	TrialList	1	7	410949	17	0	17	409400	500	1	{LEFTARROW}	-999999	16	410416	0	{LEFTARROW}	526	410942	NA	NA	left	lllll.bmp	354	0	NA	0	0	0	0	NA	0	0	0	NA	0	0	0	0	NA	0	0	1	1	44
Arrow Flanker 2014	12328	1	"<?xml version=""1.0""?>\n<Clock xmlns:dt=""urn:schemas-microsoft-com:datatypes""><Description dt:dt=""string"">E-Prime Primary Realtime Clock</Description><StartTime><Timestamp dt:dt=""int"">0</Timestamp><DateUtc dt:dt=""string"">2015-06-08T14:25:24Z</DateUtc></StartTime><FrequencyChanges><FrequencyChange><Frequency dt:dt=""r8"">2825566</Frequency><Timestamp dt:dt=""r8"">1642813906138</Timestamp><Current dt:dt=""r8"">0</Current><DateUtc dt:dt=""string"">2015-06-08T14:25:24Z</DateUtc></FrequencyChange></FrequencyChanges></Clock>\n"	Arrow Flanker 2014-12328-1	60.016	1.0.0.100	1	2136965626	Professional	2.0.10.353	2.0.10.353	06-08-2015	6/8/2015 2:25:24 PM	10:25:24	2.0.10.248	3	1	1	1	NA	NA	NA	NA	NA	NA	NA	NA	NA	NA	NA	NA	NA	NA	NA	NA	NA	NA	NA	NA	NA	NA	NA	NA	BlockProc	BlockList	NA	45	{RIGHTARROW}	NA	-100	1055	neutral	NA	NA	NA	NA	NA	NA	NA	NA	NA	NA	NA	NA	NA	NA	NA	NA	NA	NA	NA	NA	NA	NA	TrialProc	TrialList	0	18	413232	17	0	16	411482	0	1	{RIGHTARROW}	-999999	16	412782	0	{RIGHTARROW}	432	413214	NA	NA	right	ooroo.bmp	354	0	NA	0	0	0	0	NA	0	0	0	NA	0	0	0	0	NA	0	0	6	1	45
Arrow Flanker 2014	12328	1	"<?xml version=""1.0""?>\n<Clock xmlns:dt=""urn:schemas-microsoft-com:datatypes""><Description dt:dt=""string"">E-Prime Primary Realtime Clock</Description><StartTime><Timestamp dt:dt=""int"">0</Timestamp><DateUtc dt:dt=""string"">2015-06-08T14:25:24Z</DateUtc></StartTime><FrequencyChanges><FrequencyChange><Frequency dt:dt=""r8"">2825566</Frequency><Timestamp dt:dt=""r8"">1642813906138</Timestamp><Current dt:dt=""r8"">0</Current><DateUtc dt:dt=""string"">2015-06-08T14:25:24Z</DateUtc></FrequencyChange></FrequencyChanges></Clock>\n"	Arrow Flanker 2014-12328-1	60.016	1.0.0.100	1	2136965626	Professional	2.0.10.353	2.0.10.353	06-08-2015	6/8/2015 2:25:24 PM	10:25:24	2.0.10.248	3	1	1	1	NA	NA	NA	NA	NA	NA	NA	NA	NA	NA	NA	NA	NA	NA	NA	NA	NA	NA	NA	NA	NA	NA	NA	NA	BlockProc	BlockList	NA	46	{RIGHTARROW}	NA	-100	1063	congruent	NA	NA	NA	NA	NA	NA	NA	NA	NA	NA	NA	NA	NA	NA	NA	NA	NA	NA	NA	NA	NA	NA	TrialProc	TrialList	0	16	415598	17	0	16	413765	0	1	{RIGHTARROW}	-999999	0	415115	0	{RIGHTARROW}	466	415581	NA	NA	right	rrrrr.bmp	354	0	NA	0	0	0	0	NA	0	0	0	NA	0	0	0	0	NA	0	0	2	1	46
Arrow Flanker 2014	12328	1	"<?xml version=""1.0""?>\n<Clock xmlns:dt=""urn:schemas-microsoft-com:datatypes""><Description dt:dt=""string"">E-Prime Primary Realtime Clock</Description><StartTime><Timestamp dt:dt=""int"">0</Timestamp><DateUtc dt:dt=""string"">2015-06-08T14:25:24Z</DateUtc></StartTime><FrequencyChanges><FrequencyChange><Frequency dt:dt=""r8"">2825566</Frequency><Timestamp dt:dt=""r8"">1642813906138</Timestamp><Current dt:dt=""r8"">0</Current><DateUtc dt:dt=""string"">2015-06-08T14:25:24Z</DateUtc></FrequencyChange></FrequencyChanges></Clock>\n"	Arrow Flanker 2014-12328-1	60.016	1.0.0.100	1	2136965626	Professional	2.0.10.353	2.0.10.353	06-08-2015	6/8/2015 2:25:24 PM	10:25:24	2.0.10.248	3	1	1	1	NA	NA	NA	NA	NA	NA	NA	NA	NA	NA	NA	NA	NA	NA	NA	NA	NA	NA	NA	NA	NA	NA	NA	NA	BlockProc	BlockList	NA	47	{LEFTARROW}	NA	-100	584	congruent	NA	NA	NA	NA	NA	NA	NA	NA	NA	NA	NA	NA	NA	NA	NA	NA	NA	NA	NA	NA	NA	NA	TrialProc	TrialList	0	5	417715	16	0	16	416131	0	1	{LEFTARROW}	-999999	0	417114	0	{LEFTARROW}	595	417709	NA	NA	left	lllll.bmp	354	0	NA	0	0	0	0	NA	0	0	0	NA	0	0	0	0	NA	0	0	1	1	47
Arrow Flanker 2014	12328	1	"<?xml version=""1.0""?>\n<Clock xmlns:dt=""urn:schemas-microsoft-com:datatypes""><Description dt:dt=""string"">E-Prime Primary Realtime Clock</Description><StartTime><Timestamp dt:dt=""int"">0</Timestamp><DateUtc dt:dt=""string"">2015-06-08T14:25:24Z</DateUtc></StartTime><FrequencyChanges><FrequencyChange><Frequency dt:dt=""r8"">2825566</Frequency><Timestamp dt:dt=""r8"">1642813906138</Timestamp><Current dt:dt=""r8"">0</Current><DateUtc dt:dt=""string"">2015-06-08T14:25:24Z</DateUtc></FrequencyChange></FrequencyChanges></Clock>\n"	Arrow Flanker 2014-12328-1	60.016	1.0.0.100	1	2136965626	Professional	2.0.10.353	2.0.10.353	06-08-2015	6/8/2015 2:25:24 PM	10:25:24	2.0.10.248	3	1	1	1	NA	NA	NA	NA	NA	NA	NA	NA	NA	NA	NA	NA	NA	NA	NA	NA	NA	NA	NA	NA	NA	NA	NA	NA	BlockProc	BlockList	NA	48	{RIGHTARROW}	NA	-100	1049	neutral	NA	NA	NA	NA	NA	NA	NA	NA	NA	NA	NA	NA	NA	NA	NA	NA	NA	NA	NA	NA	NA	NA	TrialProc	TrialList	0	8	419814	16	0	16	418247	0	1	{RIGHTARROW}	-999999	16	419347	0	{RIGHTARROW}	458	419805	NA	NA	right	ooroo.bmp	354	0	NA	0	0	0	0	NA	0	0	0	NA	0	0	0	0	NA	0	0	6	1	48
Arrow Flanker 2014	12328	1	"<?xml version=""1.0""?>\n<Clock xmlns:dt=""urn:schemas-microsoft-com:datatypes""><Description dt:dt=""string"">E-Prime Primary Realtime Clock</Description><StartTime><Timestamp dt:dt=""int"">0</Timestamp><DateUtc dt:dt=""string"">2015-06-08T14:25:24Z</DateUtc></StartTime><FrequencyChanges><FrequencyChange><Frequency dt:dt=""r8"">2825566</Frequency><Timestamp dt:dt=""r8"">1642813906138</Timestamp><Current dt:dt=""r8"">0</Current><DateUtc dt:dt=""string"">2015-06-08T14:25:24Z</DateUtc></FrequencyChange></FrequencyChanges></Clock>\n"	Arrow Flanker 2014-12328-1	60.016	1.0.0.100	1	2136965626	Professional	2.0.10.353	2.0.10.353	06-08-2015	6/8/2015 2:25:24 PM	10:25:24	2.0.10.248	3	1	1	1	NA	NA	NA	NA	NA	NA	NA	NA	NA	NA	NA	NA	NA	NA	NA	NA	NA	NA	NA	NA	NA	NA	NA	NA	BlockProc	BlockList	NA	49	{RIGHTARROW}	NA	-100	1694	incongruent	NA	NA	NA	NA	NA	NA	NA	NA	NA	NA	NA	NA	NA	NA	NA	NA	NA	NA	NA	NA	NA	NA	TrialProc	TrialList	0	17	422863	16	0	17	420347	0	1	{RIGHTARROW}	-999999	0	422346	0	{RIGHTARROW}	499	422845	NA	NA	right	llrll.bmp	354	0	NA	0	0	0	0	NA	0	0	0	NA	0	0	0	0	NA	0	0	4	1	49
Arrow Flanker 2014	12328	1	"<?xml version=""1.0""?>\n<Clock xmlns:dt=""urn:schemas-microsoft-com:datatypes""><Description dt:dt=""string"">E-Prime Primary Realtime Clock</Description><StartTime><Timestamp dt:dt=""int"">0</Timestamp><DateUtc dt:dt=""string"">2015-06-08T14:25:24Z</DateUtc></StartTime><FrequencyChanges><FrequencyChange><Frequency dt:dt=""r8"">2825566</Frequency><Timestamp dt:dt=""r8"">1642813906138</Timestamp><Current dt:dt=""r8"">0</Current><DateUtc dt:dt=""string"">2015-06-08T14:25:24Z</DateUtc></FrequencyChange></FrequencyChanges></Clock>\n"	Arrow Flanker 2014-12328-1	60.016	1.0.0.100	1	2136965626	Professional	2.0.10.353	2.0.10.353	06-08-2015	6/8/2015 2:25:24 PM	10:25:24	2.0.10.248	3	1	1	1	NA	NA	NA	NA	NA	NA	NA	NA	NA	NA	NA	NA	NA	NA	NA	NA	NA	NA	NA	NA	NA	NA	NA	NA	BlockProc	BlockList	NA	50	{LEFTARROW}	NA	-100	2518	neutral	NA	NA	NA	NA	NA	NA	NA	NA	NA	NA	NA	NA	NA	NA	NA	NA	NA	NA	NA	NA	NA	NA	TrialProc	TrialList	0	11	425912	17	0	17	423396	0	1	{LEFTARROW}	-999999	16	425462	0	{LEFTARROW}	439	425901	NA	NA	left	ooloo.bmp	354	0	NA	0	0	0	0	NA	0	0	0	NA	0	0	0	0	NA	0	0	5	1	50
Arrow Flanker 2014	12328	1	"<?xml version=""1.0""?>\n<Clock xmlns:dt=""urn:schemas-microsoft-com:datatypes""><Description dt:dt=""string"">E-Prime Primary Realtime Clock</Description><StartTime><Timestamp dt:dt=""int"">0</Timestamp><DateUtc dt:dt=""string"">2015-06-08T14:25:24Z</DateUtc></StartTime><FrequencyChanges><FrequencyChange><Frequency dt:dt=""r8"">2825566</Frequency><Timestamp dt:dt=""r8"">1642813906138</Timestamp><Current dt:dt=""r8"">0</Current><DateUtc dt:dt=""string"">2015-06-08T14:25:24Z</DateUtc></FrequencyChange></FrequencyChanges></Clock>\n"	Arrow Flanker 2014-12328-1	60.016	1.0.0.100	1	2136965626	Professional	2.0.10.353	2.0.10.353	06-08-2015	6/8/2015 2:25:24 PM	10:25:24	2.0.10.248	3	1	1	1	NA	NA	NA	NA	NA	NA	NA	NA	NA	NA	NA	NA	NA	NA	NA	NA	NA	NA	NA	NA	NA	NA	NA	NA	BlockProc	BlockList	NA	51	{RIGHTARROW}	NA	-100	1087	neutral	NA	NA	NA	NA	NA	NA	NA	NA	NA	NA	NA	NA	NA	NA	NA	NA	NA	NA	NA	NA	NA	NA	TrialProc	TrialList	0	8	428245	16	0	16	426445	0	1	{RIGHTARROW}	-999999	16	427728	0	{RIGHTARROW}	509	428237	NA	NA	right	ooroo.bmp	354	0	NA	0	0	0	0	NA	0	0	0	NA	0	0	0	0	NA	0	0	6	1	51
Arrow Flanker 2014	12328	1	"<?xml version=""1.0""?>\n<Clock xmlns:dt=""urn:schemas-microsoft-com:datatypes""><Description dt:dt=""string"">E-Prime Primary Realtime Clock</Description><StartTime><Timestamp dt:dt=""int"">0</Timestamp><DateUtc dt:dt=""string"">2015-06-08T14:25:24Z</DateUtc></StartTime><FrequencyChanges><FrequencyChange><Frequency dt:dt=""r8"">2825566</Frequency><Timestamp dt:dt=""r8"">1642813906138</Timestamp><Current dt:dt=""r8"">0</Current><DateUtc dt:dt=""string"">2015-06-08T14:25:24Z</DateUtc></FrequencyChange></FrequencyChanges></Clock>\n"	Arrow Flanker 2014-12328-1	60.016	1.0.0.100	1	2136965626	Professional	2.0.10.353	2.0.10.353	06-08-2015	6/8/2015 2:25:24 PM	10:25:24	2.0.10.248	3	1	1	1	NA	NA	NA	NA	NA	NA	NA	NA	NA	NA	NA	NA	NA	NA	NA	NA	NA	NA	NA	NA	NA	NA	NA	NA	BlockProc	BlockList	NA	52	{RIGHTARROW}	NA	-100	2107	incongruent	NA	NA	NA	NA	NA	NA	NA	NA	NA	NA	NA	NA	NA	NA	NA	NA	NA	NA	NA	NA	NA	NA	TrialProc	TrialList	0	12	431161	16	0	17	428778	0	1	{RIGHTARROW}	-999999	0	430644	0	{RIGHTARROW}	505	431149	NA	NA	right	llrll.bmp	354	0	NA	0	0	0	0	NA	0	0	0	NA	0	0	0	0	NA	0	0	4	1	52
Arrow Flanker 2014	12328	1	"<?xml version=""1.0""?>\n<Clock xmlns:dt=""urn:schemas-microsoft-com:datatypes""><Description dt:dt=""string"">E-Prime Primary Realtime Clock</Description><StartTime><Timestamp dt:dt=""int"">0</Timestamp><DateUtc dt:dt=""string"">2015-06-08T14:25:24Z</DateUtc></StartTime><FrequencyChanges><FrequencyChange><Frequency dt:dt=""r8"">2825566</Frequency><Timestamp dt:dt=""r8"">1642813906138</Timestamp><Current dt:dt=""r8"">0</Current><DateUtc dt:dt=""string"">2015-06-08T14:25:24Z</DateUtc></FrequencyChange></FrequencyChanges></Clock>\n"	Arrow Flanker 2014-12328-1	60.016	1.0.0.100	1	2136965626	Professional	2.0.10.353	2.0.10.353	06-08-2015	6/8/2015 2:25:24 PM	10:25:24	2.0.10.248	3	1	1	1	NA	NA	NA	NA	NA	NA	NA	NA	NA	NA	NA	NA	NA	NA	NA	NA	NA	NA	NA	NA	NA	NA	NA	NA	BlockProc	BlockList	NA	53	{LEFTARROW}	NA	-100	1337	neutral	NA	NA	NA	NA	NA	NA	NA	NA	NA	NA	NA	NA	NA	NA	NA	NA	NA	NA	NA	NA	NA	NA	TrialProc	TrialList	1	12	433193	17	0	17	431694	0	1	{LEFTARROW}	-999999	0	432660	0	{LEFTARROW}	521	433181	NA	NA	left	ooloo.bmp	354	0	NA	0	0	0	0	NA	0	0	0	NA	0	0	0	0	NA	0	0	5	1	53
Arrow Flanker 2014	12328	1	"<?xml version=""1.0""?>\n<Clock xmlns:dt=""urn:schemas-microsoft-com:datatypes""><Description dt:dt=""string"">E-Prime Primary Realtime Clock</Description><StartTime><Timestamp dt:dt=""int"">0</Timestamp><DateUtc dt:dt=""string"">2015-06-08T14:25:24Z</DateUtc></StartTime><FrequencyChanges><FrequencyChange><Frequency dt:dt=""r8"">2825566</Frequency><Timestamp dt:dt=""r8"">1642813906138</Timestamp><Current dt:dt=""r8"">0</Current><DateUtc dt:dt=""string"">2015-06-08T14:25:24Z</DateUtc></FrequencyChange></FrequencyChanges></Clock>\n"	Arrow Flanker 2014-12328-1	60.016	1.0.0.100	1	2136965626	Professional	2.0.10.353	2.0.10.353	06-08-2015	6/8/2015 2:25:24 PM	10:25:24	2.0.10.248	3	1	1	1	NA	NA	NA	NA	NA	NA	NA	NA	NA	NA	NA	NA	NA	NA	NA	NA	NA	NA	NA	NA	NA	NA	NA	NA	BlockProc	BlockList	NA	54	{RIGHTARROW}	NA	-100	2157	neutral	NA	NA	NA	NA	NA	NA	NA	NA	NA	NA	NA	NA	NA	NA	NA	NA	NA	NA	NA	NA	1	NA	TrialProc	TrialList	1	20	435809	17	0	17	433727	0	1	{RIGHTARROW}	-999999	0	435376	0	{RIGHTARROW}	413	435789	NA	NA	right	ooroo.bmp	354	0	NA	-999999	17	436343	0	1	1966	438309	0	NA	0	0	0	0	NA	0	0	6	1	54
Arrow Flanker 2014	12328	1	"<?xml version=""1.0""?>\n<Clock xmlns:dt=""urn:schemas-microsoft-com:datatypes""><Description dt:dt=""string"">E-Prime Primary Realtime Clock</Description><StartTime><Timestamp dt:dt=""int"">0</Timestamp><DateUtc dt:dt=""string"">2015-06-08T14:25:24Z</DateUtc></StartTime><FrequencyChanges><FrequencyChange><Frequency dt:dt=""r8"">2825566</Frequency><Timestamp dt:dt=""r8"">1642813906138</Timestamp><Current dt:dt=""r8"">0</Current><DateUtc dt:dt=""string"">2015-06-08T14:25:24Z</DateUtc></FrequencyChange></FrequencyChanges></Clock>\n"	Arrow Flanker 2014-12328-1	60.016	1.0.0.100	1	2136965626	Professional	2.0.10.353	2.0.10.353	06-08-2015	6/8/2015 2:25:24 PM	10:25:24	2.0.10.248	3	1	1	1	NA	NA	NA	NA	NA	NA	NA	NA	NA	NA	NA	NA	NA	NA	NA	NA	NA	NA	NA	NA	NA	NA	NA	NA	BlockProc	BlockList	NA	55	{RIGHTARROW}	NA	-100	1635	incongruent	NA	NA	NA	NA	NA	NA	NA	NA	NA	NA	NA	NA	NA	NA	NA	NA	NA	NA	NA	NA	NA	NA	TrialProc	TrialList	0	7	441508	17	0	14	439275	0	1	{RIGHTARROW}	-999999	0	440975	0	{RIGHTARROW}	526	441501	NA	NA	right	llrll.bmp	354	0	NA	0	0	0	0	NA	0	0	0	NA	0	0	0	0	NA	0	0	4	1	55
Arrow Flanker 2014	12328	1	"<?xml version=""1.0""?>\n<Clock xmlns:dt=""urn:schemas-microsoft-com:datatypes""><Description dt:dt=""string"">E-Prime Primary Realtime Clock</Description><StartTime><Timestamp dt:dt=""int"">0</Timestamp><DateUtc dt:dt=""string"">2015-06-08T14:25:24Z</DateUtc></StartTime><FrequencyChanges><FrequencyChange><Frequency dt:dt=""r8"">2825566</Frequency><Timestamp dt:dt=""r8"">1642813906138</Timestamp><Current dt:dt=""r8"">0</Current><DateUtc dt:dt=""string"">2015-06-08T14:25:24Z</DateUtc></FrequencyChange></FrequencyChanges></Clock>\n"	Arrow Flanker 2014-12328-1	60.016	1.0.0.100	1	2136965626	Professional	2.0.10.353	2.0.10.353	06-08-2015	6/8/2015 2:25:24 PM	10:25:24	2.0.10.248	3	1	1	1	NA	NA	NA	NA	NA	NA	NA	NA	NA	NA	NA	NA	NA	NA	NA	NA	NA	NA	NA	NA	NA	NA	NA	NA	BlockProc	BlockList	NA	56	{LEFTARROW}	NA	-100	1834	incongruent	NA	NA	NA	NA	NA	NA	NA	NA	NA	NA	NA	NA	NA	NA	NA	NA	NA	NA	NA	NA	NA	NA	TrialProc	TrialList	0	21	444674	16	0	16	442041	0	1	{LEFTARROW}	-999999	0	444157	0	{LEFTARROW}	496	444653	NA	NA	left	rrlrr.bmp	354	0	NA	0	0	0	0	NA	0	0	0	NA	0	0	0	0	NA	0	0	3	1	56
Arrow Flanker 2014	12328	1	"<?xml version=""1.0""?>\n<Clock xmlns:dt=""urn:schemas-microsoft-com:datatypes""><Description dt:dt=""string"">E-Prime Primary Realtime Clock</Description><StartTime><Timestamp dt:dt=""int"">0</Timestamp><DateUtc dt:dt=""string"">2015-06-08T14:25:24Z</DateUtc></StartTime><FrequencyChanges><FrequencyChange><Frequency dt:dt=""r8"">2825566</Frequency><Timestamp dt:dt=""r8"">1642813906138</Timestamp><Current dt:dt=""r8"">0</Current><DateUtc dt:dt=""string"">2015-06-08T14:25:24Z</DateUtc></FrequencyChange></FrequencyChanges></Clock>\n"	Arrow Flanker 2014-12328-1	60.016	1.0.0.100	1	2136965626	Professional	2.0.10.353	2.0.10.353	06-08-2015	6/8/2015 2:25:24 PM	10:25:24	2.0.10.248	3	1	1	1	NA	NA	NA	NA	NA	NA	NA	NA	NA	NA	NA	NA	NA	NA	NA	NA	NA	NA	NA	NA	NA	NA	NA	NA	BlockProc	BlockList	NA	57	{LEFTARROW}	NA	-100	1416	neutral	NA	NA	NA	NA	NA	NA	NA	NA	NA	NA	NA	NA	NA	NA	NA	NA	NA	NA	NA	NA	NA	NA	TrialProc	TrialList	0	13	446890	16	0	17	445207	0	1	{LEFTARROW}	-999999	0	446357	0	{LEFTARROW}	520	446877	NA	NA	left	ooloo.bmp	354	0	NA	0	0	0	0	NA	0	0	0	NA	0	0	0	0	NA	0	0	5	1	57
Arrow Flanker 2014	12328	1	"<?xml version=""1.0""?>\n<Clock xmlns:dt=""urn:schemas-microsoft-com:datatypes""><Description dt:dt=""string"">E-Prime Primary Realtime Clock</Description><StartTime><Timestamp dt:dt=""int"">0</Timestamp><DateUtc dt:dt=""string"">2015-06-08T14:25:24Z</DateUtc></StartTime><FrequencyChanges><FrequencyChange><Frequency dt:dt=""r8"">2825566</Frequency><Timestamp dt:dt=""r8"">1642813906138</Timestamp><Current dt:dt=""r8"">0</Current><DateUtc dt:dt=""string"">2015-06-08T14:25:24Z</DateUtc></FrequencyChange></FrequencyChanges></Clock>\n"	Arrow Flanker 2014-12328-1	60.016	1.0.0.100	1	2136965626	Professional	2.0.10.353	2.0.10.353	06-08-2015	6/8/2015 2:25:24 PM	10:25:24	2.0.10.248	3	1	1	1	NA	NA	NA	NA	NA	NA	NA	NA	NA	NA	NA	NA	NA	NA	NA	NA	NA	NA	NA	NA	NA	NA	NA	NA	BlockProc	BlockList	NA	58	{RIGHTARROW}	NA	-100	1340	congruent	NA	NA	NA	NA	NA	NA	NA	NA	NA	NA	NA	NA	NA	NA	NA	NA	NA	NA	NA	NA	NA	NA	TrialProc	TrialList	0	11	449256	16	0	17	447423	0	1	{RIGHTARROW}	-999999	0	448773	0	{RIGHTARROW}	472	449245	NA	NA	right	rrrrr.bmp	354	0	NA	0	0	0	0	NA	0	0	0	NA	0	0	0	0	NA	0	0	2	1	58
Arrow Flanker 2014	12328	1	"<?xml version=""1.0""?>\n<Clock xmlns:dt=""urn:schemas-microsoft-com:datatypes""><Description dt:dt=""string"">E-Prime Primary Realtime Clock</Description><StartTime><Timestamp dt:dt=""int"">0</Timestamp><DateUtc dt:dt=""string"">2015-06-08T14:25:24Z</DateUtc></StartTime><FrequencyChanges><FrequencyChange><Frequency dt:dt=""r8"">2825566</Frequency><Timestamp dt:dt=""r8"">1642813906138</Timestamp><Current dt:dt=""r8"">0</Current><DateUtc dt:dt=""string"">2015-06-08T14:25:24Z</DateUtc></FrequencyChange></FrequencyChanges></Clock>\n"	Arrow Flanker 2014-12328-1	60.016	1.0.0.100	1	2136965626	Professional	2.0.10.353	2.0.10.353	06-08-2015	6/8/2015 2:25:24 PM	10:25:24	2.0.10.248	3	1	1	1	NA	NA	NA	NA	NA	NA	NA	NA	NA	NA	NA	NA	NA	NA	NA	NA	NA	NA	NA	NA	NA	NA	NA	NA	BlockProc	BlockList	NA	59	{LEFTARROW}	NA	-100	1599	neutral	NA	NA	NA	NA	NA	NA	NA	NA	NA	NA	NA	NA	NA	NA	NA	NA	NA	NA	NA	NA	NA	NA	TrialProc	TrialList	0	10	451239	16	0	17	449789	0	1	{LEFTARROW}	-999999	16	450722	0	{LEFTARROW}	507	451229	NA	NA	left	ooloo.bmp	354	0	NA	0	0	0	0	NA	0	0	0	NA	0	0	0	0	NA	0	0	5	1	59
Arrow Flanker 2014	12328	1	"<?xml version=""1.0""?>\n<Clock xmlns:dt=""urn:schemas-microsoft-com:datatypes""><Description dt:dt=""string"">E-Prime Primary Realtime Clock</Description><StartTime><Timestamp dt:dt=""int"">0</Timestamp><DateUtc dt:dt=""string"">2015-06-08T14:25:24Z</DateUtc></StartTime><FrequencyChanges><FrequencyChange><Frequency dt:dt=""r8"">2825566</Frequency><Timestamp dt:dt=""r8"">1642813906138</Timestamp><Current dt:dt=""r8"">0</Current><DateUtc dt:dt=""string"">2015-06-08T14:25:24Z</DateUtc></FrequencyChange></FrequencyChanges></Clock>\n"	Arrow Flanker 2014-12328-1	60.016	1.0.0.100	1	2136965626	Professional	2.0.10.353	2.0.10.353	06-08-2015	6/8/2015 2:25:24 PM	10:25:24	2.0.10.248	3	1	1	1	NA	NA	NA	NA	NA	NA	NA	NA	NA	NA	NA	NA	NA	NA	NA	NA	NA	NA	NA	NA	NA	NA	NA	NA	BlockProc	BlockList	NA	60	{RIGHTARROW}	NA	-100	2464	neutral	NA	NA	NA	NA	NA	NA	NA	NA	NA	NA	NA	NA	NA	NA	NA	NA	NA	NA	NA	NA	NA	NA	TrialProc	TrialList	0	20	454321	17	0	17	451772	0	1	{RIGHTARROW}	-999999	0	453871	0	{RIGHTARROW}	429	454300	NA	NA	right	ooroo.bmp	354	0	NA	0	0	0	0	NA	0	0	0	NA	0	0	0	0	NA	0	0	6	1	60
Arrow Flanker 2014	12328	1	"<?xml version=""1.0""?>\n<Clock xmlns:dt=""urn:schemas-microsoft-com:datatypes""><Description dt:dt=""string"">E-Prime Primary Realtime Clock</Description><StartTime><Timestamp dt:dt=""int"">0</Timestamp><DateUtc dt:dt=""string"">2015-06-08T14:25:24Z</DateUtc></StartTime><FrequencyChanges><FrequencyChange><Frequency dt:dt=""r8"">2825566</Frequency><Timestamp dt:dt=""r8"">1642813906138</Timestamp><Current dt:dt=""r8"">0</Current><DateUtc dt:dt=""string"">2015-06-08T14:25:24Z</DateUtc></FrequencyChange></FrequencyChanges></Clock>\n"	Arrow Flanker 2014-12328-1	60.016	1.0.0.100	1	2136965626	Professional	2.0.10.353	2.0.10.353	06-08-2015	6/8/2015 2:25:24 PM	10:25:24	2.0.10.248	3	1	1	1	NA	NA	NA	NA	NA	NA	NA	NA	NA	NA	NA	NA	NA	NA	NA	NA	NA	NA	NA	NA	NA	NA	NA	NA	BlockProc	BlockList	NA	61	{RIGHTARROW}	NA	-100	1520	incongruent	NA	NA	NA	NA	NA	NA	NA	NA	NA	NA	NA	NA	NA	NA	NA	NA	NA	NA	NA	NA	NA	NA	TrialProc	TrialList	0	6	457187	17	0	16	454854	0	1	{RIGHTARROW}	-999999	-1	456670	0	{RIGHTARROW}	510	457180	NA	NA	right	llrll.bmp	354	0	NA	0	0	0	0	NA	0	0	0	NA	0	0	0	0	NA	0	0	4	1	61
Arrow Flanker 2014	12328	1	"<?xml version=""1.0""?>\n<Clock xmlns:dt=""urn:schemas-microsoft-com:datatypes""><Description dt:dt=""string"">E-Prime Primary Realtime Clock</Description><StartTime><Timestamp dt:dt=""int"">0</Timestamp><DateUtc dt:dt=""string"">2015-06-08T14:25:24Z</DateUtc></StartTime><FrequencyChanges><FrequencyChange><Frequency dt:dt=""r8"">2825566</Frequency><Timestamp dt:dt=""r8"">1642813906138</Timestamp><Current dt:dt=""r8"">0</Current><DateUtc dt:dt=""string"">2015-06-08T14:25:24Z</DateUtc></FrequencyChange></FrequencyChanges></Clock>\n"	Arrow Flanker 2014-12328-1	60.016	1.0.0.100	1	2136965626	Professional	2.0.10.353	2.0.10.353	06-08-2015	6/8/2015 2:25:24 PM	10:25:24	2.0.10.248	3	1	1	1	NA	NA	NA	NA	NA	NA	NA	NA	NA	NA	NA	NA	NA	NA	NA	NA	NA	NA	NA	NA	NA	NA	NA	NA	BlockProc	BlockList	NA	62	{LEFTARROW}	NA	-100	694	congruent	NA	NA	NA	NA	NA	NA	NA	NA	NA	NA	NA	NA	NA	NA	NA	NA	NA	NA	NA	NA	NA	NA	TrialProc	TrialList	1	8	459236	17	0	16	457720	0	1	{LEFTARROW}	-999999	0	458687	0	{LEFTARROW}	541	459228	NA	NA	left	lllll.bmp	354	0	NA	0	0	0	0	NA	0	0	0	NA	0	0	0	0	NA	0	0	1	1	62
Arrow Flanker 2014	12328	1	"<?xml version=""1.0""?>\n<Clock xmlns:dt=""urn:schemas-microsoft-com:datatypes""><Description dt:dt=""string"">E-Prime Primary Realtime Clock</Description><StartTime><Timestamp dt:dt=""int"">0</Timestamp><DateUtc dt:dt=""string"">2015-06-08T14:25:24Z</DateUtc></StartTime><FrequencyChanges><FrequencyChange><Frequency dt:dt=""r8"">2825566</Frequency><Timestamp dt:dt=""r8"">1642813906138</Timestamp><Current dt:dt=""r8"">0</Current><DateUtc dt:dt=""string"">2015-06-08T14:25:24Z</DateUtc></FrequencyChange></FrequencyChanges></Clock>\n"	Arrow Flanker 2014-12328-1	60.016	1.0.0.100	1	2136965626	Professional	2.0.10.353	2.0.10.353	06-08-2015	6/8/2015 2:25:24 PM	10:25:24	2.0.10.248	3	1	1	1	NA	NA	NA	NA	NA	NA	NA	NA	NA	NA	NA	NA	NA	NA	NA	NA	NA	NA	NA	NA	NA	NA	NA	NA	BlockProc	BlockList	NA	63	{LEFTARROW}	NA	-100	2368	neutral	NA	NA	NA	NA	NA	NA	NA	NA	NA	NA	NA	NA	NA	NA	NA	NA	NA	NA	NA	NA	NA	NA	TrialProc	TrialList	0	15	462219	17	0	17	459770	0	1	{LEFTARROW}	-999999	0	461719	0	{LEFTARROW}	485	462204	NA	NA	left	ooloo.bmp	354	0	NA	0	0	0	0	NA	0	0	0	NA	0	0	0	0	NA	0	0	5	1	63
Arrow Flanker 2014	12328	1	"<?xml version=""1.0""?>\n<Clock xmlns:dt=""urn:schemas-microsoft-com:datatypes""><Description dt:dt=""string"">E-Prime Primary Realtime Clock</Description><StartTime><Timestamp dt:dt=""int"">0</Timestamp><DateUtc dt:dt=""string"">2015-06-08T14:25:24Z</DateUtc></StartTime><FrequencyChanges><FrequencyChange><Frequency dt:dt=""r8"">2825566</Frequency><Timestamp dt:dt=""r8"">1642813906138</Timestamp><Current dt:dt=""r8"">0</Current><DateUtc dt:dt=""string"">2015-06-08T14:25:24Z</DateUtc></FrequencyChange></FrequencyChanges></Clock>\n"	Arrow Flanker 2014-12328-1	60.016	1.0.0.100	1	2136965626	Professional	2.0.10.353	2.0.10.353	06-08-2015	6/8/2015 2:25:24 PM	10:25:24	2.0.10.248	3	1	1	1	NA	NA	NA	NA	NA	NA	NA	NA	NA	NA	NA	NA	NA	NA	NA	NA	NA	NA	NA	NA	NA	NA	NA	NA	BlockProc	BlockList	NA	64	{RIGHTARROW}	NA	-100	1393	incongruent	NA	NA	NA	NA	NA	NA	NA	NA	NA	NA	NA	NA	NA	NA	NA	NA	NA	NA	NA	NA	NA	NA	TrialProc	TrialList	1	6	464818	17	0	16	462752	0	1	{RIGHTARROW}	-999999	0	464285	0	{RIGHTARROW}	527	464812	NA	NA	right	llrll.bmp	354	0	NA	0	0	0	0	NA	0	0	0	NA	0	0	0	0	NA	0	0	4	1	64
Arrow Flanker 2014	12328	1	"<?xml version=""1.0""?>\n<Clock xmlns:dt=""urn:schemas-microsoft-com:datatypes""><Description dt:dt=""string"">E-Prime Primary Realtime Clock</Description><StartTime><Timestamp dt:dt=""int"">0</Timestamp><DateUtc dt:dt=""string"">2015-06-08T14:25:24Z</DateUtc></StartTime><FrequencyChanges><FrequencyChange><Frequency dt:dt=""r8"">2825566</Frequency><Timestamp dt:dt=""r8"">1642813906138</Timestamp><Current dt:dt=""r8"">0</Current><DateUtc dt:dt=""string"">2015-06-08T14:25:24Z</DateUtc></FrequencyChange></FrequencyChanges></Clock>\n"	Arrow Flanker 2014-12328-1	60.016	1.0.0.100	1	2136965626	Professional	2.0.10.353	2.0.10.353	06-08-2015	6/8/2015 2:25:24 PM	10:25:24	2.0.10.248	3	1	1	1	NA	NA	NA	NA	NA	NA	NA	NA	NA	NA	NA	NA	NA	NA	NA	NA	NA	NA	NA	NA	NA	NA	NA	NA	BlockProc	BlockList	NA	65	{RIGHTARROW}	NA	-100	1608	neutral	NA	NA	NA	NA	NA	NA	NA	NA	NA	NA	NA	NA	NA	NA	NA	NA	NA	NA	NA	NA	NA	NA	TrialProc	TrialList	0	11	466951	17	0	17	465352	0	1	{RIGHTARROW}	-999999	0	466351	0	{RIGHTARROW}	589	466940	NA	NA	right	ooroo.bmp	354	0	NA	0	0	0	0	NA	0	0	0	NA	0	0	0	0	NA	0	0	6	1	65
Arrow Flanker 2014	12328	1	"<?xml version=""1.0""?>\n<Clock xmlns:dt=""urn:schemas-microsoft-com:datatypes""><Description dt:dt=""string"">E-Prime Primary Realtime Clock</Description><StartTime><Timestamp dt:dt=""int"">0</Timestamp><DateUtc dt:dt=""string"">2015-06-08T14:25:24Z</DateUtc></StartTime><FrequencyChanges><FrequencyChange><Frequency dt:dt=""r8"">2825566</Frequency><Timestamp dt:dt=""r8"">1642813906138</Timestamp><Current dt:dt=""r8"">0</Current><DateUtc dt:dt=""string"">2015-06-08T14:25:24Z</DateUtc></FrequencyChange></FrequencyChanges></Clock>\n"	Arrow Flanker 2014-12328-1	60.016	1.0.0.100	1	2136965626	Professional	2.0.10.353	2.0.10.353	06-08-2015	6/8/2015 2:25:24 PM	10:25:24	2.0.10.248	3	1	1	1	NA	NA	NA	NA	NA	NA	NA	NA	NA	NA	NA	NA	NA	NA	NA	NA	NA	NA	NA	NA	NA	NA	NA	NA	BlockProc	BlockList	NA	66	{RIGHTARROW}	NA	-100	2040	congruent	NA	NA	NA	NA	NA	NA	NA	NA	NA	NA	NA	NA	NA	NA	NA	NA	NA	NA	NA	NA	NA	NA	TrialProc	TrialList	0	18	469534	16	0	16	467484	0	1	{RIGHTARROW}	-999999	0	469017	0	{RIGHTARROW}	499	469516	NA	NA	right	rrrrr.bmp	354	0	NA	0	0	0	0	NA	0	0	0	NA	0	0	0	0	NA	0	0	2	1	66
Arrow Flanker 2014	12328	1	"<?xml version=""1.0""?>\n<Clock xmlns:dt=""urn:schemas-microsoft-com:datatypes""><Description dt:dt=""string"">E-Prime Primary Realtime Clock</Description><StartTime><Timestamp dt:dt=""int"">0</Timestamp><DateUtc dt:dt=""string"">2015-06-08T14:25:24Z</DateUtc></StartTime><FrequencyChanges><FrequencyChange><Frequency dt:dt=""r8"">2825566</Frequency><Timestamp dt:dt=""r8"">1642813906138</Timestamp><Current dt:dt=""r8"">0</Current><DateUtc dt:dt=""string"">2015-06-08T14:25:24Z</DateUtc></FrequencyChange></FrequencyChanges></Clock>\n"	Arrow Flanker 2014-12328-1	60.016	1.0.0.100	1	2136965626	Professional	2.0.10.353	2.0.10.353	06-08-2015	6/8/2015 2:25:24 PM	10:25:24	2.0.10.248	3	1	1	1	NA	NA	NA	NA	NA	NA	NA	NA	NA	NA	NA	NA	NA	NA	NA	NA	NA	NA	NA	NA	NA	NA	NA	NA	BlockProc	BlockList	NA	67	{LEFTARROW}	NA	-100	1243	neutral	NA	NA	NA	NA	NA	NA	NA	NA	NA	NA	NA	NA	NA	NA	NA	NA	NA	NA	NA	NA	NA	NA	TrialProc	TrialList	0	12	472200	16	0	17	470067	0	1	{LEFTARROW}	-999999	0	471700	0	{LEFTARROW}	488	472188	NA	NA	left	ooloo.bmp	354	0	NA	0	0	0	0	NA	0	0	0	NA	0	0	0	0	NA	0	0	5	1	67
Arrow Flanker 2014	12328	1	"<?xml version=""1.0""?>\n<Clock xmlns:dt=""urn:schemas-microsoft-com:datatypes""><Description dt:dt=""string"">E-Prime Primary Realtime Clock</Description><StartTime><Timestamp dt:dt=""int"">0</Timestamp><DateUtc dt:dt=""string"">2015-06-08T14:25:24Z</DateUtc></StartTime><FrequencyChanges><FrequencyChange><Frequency dt:dt=""r8"">2825566</Frequency><Timestamp dt:dt=""r8"">1642813906138</Timestamp><Current dt:dt=""r8"">0</Current><DateUtc dt:dt=""string"">2015-06-08T14:25:24Z</DateUtc></FrequencyChange></FrequencyChanges></Clock>\n"	Arrow Flanker 2014-12328-1	60.016	1.0.0.100	1	2136965626	Professional	2.0.10.353	2.0.10.353	06-08-2015	6/8/2015 2:25:24 PM	10:25:24	2.0.10.248	3	1	1	1	NA	NA	NA	NA	NA	NA	NA	NA	NA	NA	NA	NA	NA	NA	NA	NA	NA	NA	NA	NA	NA	NA	NA	NA	BlockProc	BlockList	NA	68	{RIGHTARROW}	NA	-100	1205	neutral	NA	NA	NA	NA	NA	NA	NA	NA	NA	NA	NA	NA	NA	NA	NA	NA	NA	NA	NA	NA	NA	NA	TrialProc	TrialList	0	16	474316	17	0	17	472733	0	1	{RIGHTARROW}	-999999	0	473849	0	{RIGHTARROW}	451	474300	NA	NA	right	ooroo.bmp	354	0	NA	0	0	0	0	NA	0	0	0	NA	0	0	0	0	NA	0	0	6	1	68
Arrow Flanker 2014	12328	1	"<?xml version=""1.0""?>\n<Clock xmlns:dt=""urn:schemas-microsoft-com:datatypes""><Description dt:dt=""string"">E-Prime Primary Realtime Clock</Description><StartTime><Timestamp dt:dt=""int"">0</Timestamp><DateUtc dt:dt=""string"">2015-06-08T14:25:24Z</DateUtc></StartTime><FrequencyChanges><FrequencyChange><Frequency dt:dt=""r8"">2825566</Frequency><Timestamp dt:dt=""r8"">1642813906138</Timestamp><Current dt:dt=""r8"">0</Current><DateUtc dt:dt=""string"">2015-06-08T14:25:24Z</DateUtc></FrequencyChange></FrequencyChanges></Clock>\n"	Arrow Flanker 2014-12328-1	60.016	1.0.0.100	1	2136965626	Professional	2.0.10.353	2.0.10.353	06-08-2015	6/8/2015 2:25:24 PM	10:25:24	2.0.10.248	3	1	1	1	NA	NA	NA	NA	NA	NA	NA	NA	NA	NA	NA	NA	NA	NA	NA	NA	NA	NA	NA	NA	NA	NA	NA	NA	BlockProc	BlockList	NA	69	{LEFTARROW}	NA	-100	2603	incongruent	NA	NA	NA	NA	NA	NA	NA	NA	NA	NA	NA	NA	NA	NA	NA	NA	NA	NA	NA	NA	NA	NA	TrialProc	TrialList	1	14	477498	17	0	16	474849	0	1	{LEFTARROW}	-999999	16	476965	0	{LEFTARROW}	519	477484	NA	NA	left	rrlrr.bmp	354	0	NA	0	0	0	0	NA	0	0	0	NA	0	0	0	0	NA	0	0	3	1	69
Arrow Flanker 2014	12328	1	"<?xml version=""1.0""?>\n<Clock xmlns:dt=""urn:schemas-microsoft-com:datatypes""><Description dt:dt=""string"">E-Prime Primary Realtime Clock</Description><StartTime><Timestamp dt:dt=""int"">0</Timestamp><DateUtc dt:dt=""string"">2015-06-08T14:25:24Z</DateUtc></StartTime><FrequencyChanges><FrequencyChange><Frequency dt:dt=""r8"">2825566</Frequency><Timestamp dt:dt=""r8"">1642813906138</Timestamp><Current dt:dt=""r8"">0</Current><DateUtc dt:dt=""string"">2015-06-08T14:25:24Z</DateUtc></FrequencyChange></FrequencyChanges></Clock>\n"	Arrow Flanker 2014-12328-1	60.016	1.0.0.100	1	2136965626	Professional	2.0.10.353	2.0.10.353	06-08-2015	6/8/2015 2:25:24 PM	10:25:24	2.0.10.248	3	1	1	1	NA	NA	NA	NA	NA	NA	NA	NA	NA	NA	NA	NA	NA	NA	NA	NA	NA	NA	NA	NA	NA	NA	NA	NA	BlockProc	BlockList	NA	70	{LEFTARROW}	NA	-100	1142	neutral	NA	NA	NA	NA	NA	NA	NA	NA	NA	NA	NA	NA	NA	NA	NA	NA	NA	NA	NA	NA	1	NA	TrialProc	TrialList	0	12	480248	16	0	17	478032	0	1	{LEFTARROW}	-999999	0	479531	0	{LEFTARROW}	705	480236	NA	NA	left	ooloo.bmp	354	0	NA	-999999	17	480781	0	1	2487	483268	0	NA	0	0	0	0	NA	0	0	5	1	70
Arrow Flanker 2014	12328	1	"<?xml version=""1.0""?>\n<Clock xmlns:dt=""urn:schemas-microsoft-com:datatypes""><Description dt:dt=""string"">E-Prime Primary Realtime Clock</Description><StartTime><Timestamp dt:dt=""int"">0</Timestamp><DateUtc dt:dt=""string"">2015-06-08T14:25:24Z</DateUtc></StartTime><FrequencyChanges><FrequencyChange><Frequency dt:dt=""r8"">2825566</Frequency><Timestamp dt:dt=""r8"">1642813906138</Timestamp><Current dt:dt=""r8"">0</Current><DateUtc dt:dt=""string"">2015-06-08T14:25:24Z</DateUtc></FrequencyChange></FrequencyChanges></Clock>\n"	Arrow Flanker 2014-12328-1	60.016	1.0.0.100	1	2136965626	Professional	2.0.10.353	2.0.10.353	06-08-2015	6/8/2015 2:25:24 PM	10:25:24	2.0.10.248	3	1	1	1	NA	NA	NA	NA	NA	NA	NA	NA	NA	NA	NA	NA	NA	NA	NA	NA	NA	NA	NA	NA	NA	NA	NA	NA	BlockProc	BlockList	NA	71	{RIGHTARROW}	NA	-100	2210	incongruent	NA	NA	NA	NA	NA	NA	NA	NA	NA	NA	NA	NA	NA	NA	NA	NA	NA	NA	NA	NA	NA	NA	TrialProc	TrialList	1	10	487062	17	0	28	484680	0	1	{RIGHTARROW}	-999999	0	486529	0	{RIGHTARROW}	523	487052	NA	NA	right	llrll.bmp	354	0	NA	0	0	0	0	NA	0	0	0	NA	0	0	0	0	NA	0	0	4	1	71
Arrow Flanker 2014	12328	1	"<?xml version=""1.0""?>\n<Clock xmlns:dt=""urn:schemas-microsoft-com:datatypes""><Description dt:dt=""string"">E-Prime Primary Realtime Clock</Description><StartTime><Timestamp dt:dt=""int"">0</Timestamp><DateUtc dt:dt=""string"">2015-06-08T14:25:24Z</DateUtc></StartTime><FrequencyChanges><FrequencyChange><Frequency dt:dt=""r8"">2825566</Frequency><Timestamp dt:dt=""r8"">1642813906138</Timestamp><Current dt:dt=""r8"">0</Current><DateUtc dt:dt=""string"">2015-06-08T14:25:24Z</DateUtc></FrequencyChange></FrequencyChanges></Clock>\n"	Arrow Flanker 2014-12328-1	60.016	1.0.0.100	1	2136965626	Professional	2.0.10.353	2.0.10.353	06-08-2015	6/8/2015 2:25:24 PM	10:25:24	2.0.10.248	3	1	1	1	NA	NA	NA	NA	NA	NA	NA	NA	NA	NA	NA	NA	NA	NA	NA	NA	NA	NA	NA	NA	NA	NA	NA	NA	BlockProc	BlockList	NA	72	{RIGHTARROW}	NA	-100	1439	congruent	NA	NA	NA	NA	NA	NA	NA	NA	NA	NA	NA	NA	NA	NA	NA	NA	NA	NA	NA	NA	NA	NA	TrialProc	TrialList	0	13	489129	16	0	17	487596	0	1	{RIGHTARROW}	-999999	0	488695	0	{RIGHTARROW}	421	489116	NA	NA	right	rrrrr.bmp	354	0	NA	0	0	0	0	NA	0	0	0	NA	0	0	0	0	NA	0	0	2	1	72
Arrow Flanker 2014	12328	1	"<?xml version=""1.0""?>\n<Clock xmlns:dt=""urn:schemas-microsoft-com:datatypes""><Description dt:dt=""string"">E-Prime Primary Realtime Clock</Description><StartTime><Timestamp dt:dt=""int"">0</Timestamp><DateUtc dt:dt=""string"">2015-06-08T14:25:24Z</DateUtc></StartTime><FrequencyChanges><FrequencyChange><Frequency dt:dt=""r8"">2825566</Frequency><Timestamp dt:dt=""r8"">1642813906138</Timestamp><Current dt:dt=""r8"">0</Current><DateUtc dt:dt=""string"">2015-06-08T14:25:24Z</DateUtc></FrequencyChange></FrequencyChanges></Clock>\n"	Arrow Flanker 2014-12328-1	60.016	1.0.0.100	1	2136965626	Professional	2.0.10.353	2.0.10.353	06-08-2015	6/8/2015 2:25:24 PM	10:25:24	2.0.10.248	3	1	1	1	NA	NA	NA	NA	NA	NA	NA	NA	NA	NA	NA	NA	NA	NA	NA	NA	NA	NA	NA	NA	NA	NA	NA	NA	BlockProc	BlockList	NA	73	{RIGHTARROW}	NA	-100	1394	congruent	NA	NA	NA	NA	NA	NA	NA	NA	NA	NA	NA	NA	NA	NA	NA	NA	NA	NA	NA	NA	NA	NA	TrialProc	TrialList	0	16	491228	17	0	17	489662	0	1	{RIGHTARROW}	-999999	0	490728	0	{RIGHTARROW}	483	491211	NA	NA	right	rrrrr.bmp	354	0	NA	0	0	0	0	NA	0	0	0	NA	0	0	0	0	NA	0	0	2	1	73
