ExperimentName	Subject	Session	Clock.Information	DataFile.Basename	Display.RefreshRate	ExperimentVersion	Group	RandomSeed	RuntimeCapabilities	RuntimeVersion	RuntimeVersionExpected	SessionDate	SessionStartDateTimeUtc	SessionTime	StudioVersion	Block	BlockList	BlockList.Cycle	BlockList.Sample	Both	CompletelyMW	CongMeanRT	CongTotal	Fragmented	GoodByeList	GoodByeList.Cycle	GoodByeList.Sample	IncongMeanRT	IncongTotal	MapBlockList	MapBlockList.Cycle	MapBlockList.Sample	Mindwandering	MostlyMW	MostlyOT	NeutralMeanRT	NeutralTotal	NumberProbes1	NumberProbes2	OnTask	PracBlockList	PracBlockList.Cycle	PracBlockList.Sample	Procedure[Block]	Running[Block]	Sequential	Trial	CorrectAnswer	CuePositionY	CuePositionY2	DurationOfFixation	FlankerType	MapTrialList	MapTrialList.Cycle	MapTrialList.Sample	PracSlideFixationStart.DurationError	PracSlideFixationStart.OnsetDelay	PracSlideFixationStart.OnsetTime	PracSlideFixationStart.OnsetToOnsetTime	PracSlideTarget.ACC	PracSlideTarget.CRESP	PracSlideTarget.DurationError	PracSlideTarget.OnsetDelay	PracSlideTarget.OnsetTime	PracSlideTarget.OnsetToOnsetTime	PracSlideTarget.RESP	PracSlideTarget.RT	PracSlideTarget.RTTime	PracSlideTarget.Tag	PracTrialList	PracTrialList.Cycle	PracTrialList.Sample	Probe1Resp	Probe2Resp	Procedure[Trial]	Running[Trial]	SlideFixationEnd.DurationError	SlideFixationEnd.OnsetDelay	SlideFixationEnd.OnsetTime	SlideFixationEnd.OnsetToOnsetTime	SlideFixationStart.DurationError	SlideFixationStart.OnsetDelay	SlideFixationStart.OnsetTime	SlideFixationStart.OnsetToOnsetTime	SlideTarget.ACC	SlideTarget.CRESP	SlideTarget.DurationError	SlideTarget.OnsetDelay	SlideTarget.OnsetTime	SlideTarget.OnsetToOnsetTime	SlideTarget.RESP	SlideTarget.RT	SlideTarget.RTTime	SlideTarget.Tag	TargerDirection	TargetDirection	TargetImage	TargetPosition	ThoughtProbe1.ACC	ThoughtProbe1.CRESP	ThoughtProbe1.DurationError	ThoughtProbe1.OnsetDelay	ThoughtProbe1.OnsetTime	ThoughtProbe1.OnsetToOnsetTime	ThoughtProbe1.RESP	ThoughtProbe1.RT	ThoughtProbe1.RTTime	ThoughtProbe2.ACC	ThoughtProbe2.CRESP	ThoughtProbe2.DurationError	ThoughtProbe2.OnsetDelay	ThoughtProbe2.OnsetTime	ThoughtProbe2.OnsetToOnsetTime	ThoughtProbe2.RESP	ThoughtProbe2.RT	ThoughtProbe2.RTTime	TrialList	TrialList.Cycle	TrialList.Sample
Arrow Flanker 2014	12349	1	"<?xml version=""1.0""?>\n<Clock xmlns:dt=""urn:schemas-microsoft-com:datatypes""><Description dt:dt=""string"">E-Prime Primary Realtime Clock</Description><StartTime><Timestamp dt:dt=""int"">0</Timestamp><DateUtc dt:dt=""string"">2015-06-18T20:05:17Z</DateUtc></StartTime><FrequencyChanges><FrequencyChange><Frequency dt:dt=""r8"">2825693</Frequency><Timestamp dt:dt=""r8"">1837869533436</Timestamp><Current dt:dt=""r8"">0</Current><DateUtc dt:dt=""string"">2015-06-18T20:05:17Z</DateUtc></FrequencyChange></FrequencyChanges></Clock>\n"	Arrow Flanker 2014-12349-1	60.019	1.0.0.100	1	-375935795	Professional	2.0.10.353	2.0.10.353	06-18-2015	6/18/2015 8:05:17 PM	16:05:17	2.0.10.248	1	NA	NA	NA	NA	NA	NA	NA	NA	NA	NA	NA	NA	NA	1	1	1	NA	NA	NA	NA	NA	NA	NA	NA	NA	NA	NA	MapBlockProc	MapBlockList	NA	1	{RIGHTARROW}	-100	NA	679	NA	2	1	1	0	12	72982	683	0	{RIGHTARROW}	0	0	74165	1716	NA	0	0	NA	NA	NA	NA	NA	NA	MapTrialProc	MapTrialList	NA	NA	NA	NA	NA	NA	NA	NA	NA	NA	NA	NA	NA	NA	NA	NA	NA	NA	right	NA	R.bmp	354	NA	NA	NA	NA	NA	NA	NA	NA	NA	NA	NA	NA	NA	NA	NA	NA	NA	NA	NA	NA	NA
Arrow Flanker 2014	12349	1	"<?xml version=""1.0""?>\n<Clock xmlns:dt=""urn:schemas-microsoft-com:datatypes""><Description dt:dt=""string"">E-Prime Primary Realtime Clock</Description><StartTime><Timestamp dt:dt=""int"">0</Timestamp><DateUtc dt:dt=""string"">2015-06-18T20:05:17Z</DateUtc></StartTime><FrequencyChanges><FrequencyChange><Frequency dt:dt=""r8"">2825693</Frequency><Timestamp dt:dt=""r8"">1837869533436</Timestamp><Current dt:dt=""r8"">0</Current><DateUtc dt:dt=""string"">2015-06-18T20:05:17Z</DateUtc></FrequencyChange></FrequencyChanges></Clock>\n"	Arrow Flanker 2014-12349-1	60.019	1.0.0.100	1	-375935795	Professional	2.0.10.353	2.0.10.353	06-18-2015	6/18/2015 8:05:17 PM	16:05:17	2.0.10.248	1	NA	NA	NA	NA	NA	NA	NA	NA	NA	NA	NA	NA	NA	1	1	1	NA	NA	NA	NA	NA	NA	NA	NA	NA	NA	NA	MapBlockProc	MapBlockList	NA	2	{RIGHTARROW}	-100	NA	899	NA	2	1	2	0	16	77397	900	0	{RIGHTARROW}	0	0	78797	1716	NA	0	0	NA	NA	NA	NA	NA	NA	MapTrialProc	MapTrialList	NA	NA	NA	NA	NA	NA	NA	NA	NA	NA	NA	NA	NA	NA	NA	NA	NA	NA	right	NA	R.bmp	354	NA	NA	NA	NA	NA	NA	NA	NA	NA	NA	NA	NA	NA	NA	NA	NA	NA	NA	NA	NA	NA
Arrow Flanker 2014	12349	1	"<?xml version=""1.0""?>\n<Clock xmlns:dt=""urn:schemas-microsoft-com:datatypes""><Description dt:dt=""string"">E-Prime Primary Realtime Clock</Description><StartTime><Timestamp dt:dt=""int"">0</Timestamp><DateUtc dt:dt=""string"">2015-06-18T20:05:17Z</DateUtc></StartTime><FrequencyChanges><FrequencyChange><Frequency dt:dt=""r8"">2825693</Frequency><Timestamp dt:dt=""r8"">1837869533436</Timestamp><Current dt:dt=""r8"">0</Current><DateUtc dt:dt=""string"">2015-06-18T20:05:17Z</DateUtc></FrequencyChange></FrequencyChanges></Clock>\n"	Arrow Flanker 2014-12349-1	60.019	1.0.0.100	1	-375935795	Professional	2.0.10.353	2.0.10.353	06-18-2015	6/18/2015 8:05:17 PM	16:05:17	2.0.10.248	1	NA	NA	NA	NA	NA	NA	NA	NA	NA	NA	NA	NA	NA	1	1	1	NA	NA	NA	NA	NA	NA	NA	NA	NA	NA	NA	MapBlockProc	MapBlockList	NA	3	{LEFTARROW}	-100	NA	430	NA	1	1	3	0	16	82029	433	1	{LEFTARROW}	-999999	0	82962	0	{LEFTARROW}	1431	84393	NA	NA	NA	NA	NA	NA	MapTrialProc	MapTrialList	NA	NA	NA	NA	NA	NA	NA	NA	NA	NA	NA	NA	NA	NA	NA	NA	NA	NA	left	NA	L.bmp	354	NA	NA	NA	NA	NA	NA	NA	NA	NA	NA	NA	NA	NA	NA	NA	NA	NA	NA	NA	NA	NA
Arrow Flanker 2014	12349	1	"<?xml version=""1.0""?>\n<Clock xmlns:dt=""urn:schemas-microsoft-com:datatypes""><Description dt:dt=""string"">E-Prime Primary Realtime Clock</Description><StartTime><Timestamp dt:dt=""int"">0</Timestamp><DateUtc dt:dt=""string"">2015-06-18T20:05:17Z</DateUtc></StartTime><FrequencyChanges><FrequencyChange><Frequency dt:dt=""r8"">2825693</Frequency><Timestamp dt:dt=""r8"">1837869533436</Timestamp><Current dt:dt=""r8"">0</Current><DateUtc dt:dt=""string"">2015-06-18T20:05:17Z</DateUtc></FrequencyChange></FrequencyChanges></Clock>\n"	Arrow Flanker 2014-12349-1	60.019	1.0.0.100	1	-375935795	Professional	2.0.10.353	2.0.10.353	06-18-2015	6/18/2015 8:05:17 PM	16:05:17	2.0.10.248	1	NA	NA	NA	NA	NA	NA	NA	NA	NA	NA	NA	NA	NA	1	1	1	NA	NA	NA	NA	NA	NA	NA	NA	NA	NA	NA	MapBlockProc	MapBlockList	NA	4	{RIGHTARROW}	-100	NA	577	NA	2	1	4	0	16	85928	583	1	{RIGHTARROW}	-999999	0	87011	0	{RIGHTARROW}	454	87465	NA	NA	NA	NA	NA	NA	MapTrialProc	MapTrialList	NA	NA	NA	NA	NA	NA	NA	NA	NA	NA	NA	NA	NA	NA	NA	NA	NA	NA	right	NA	R.bmp	354	NA	NA	NA	NA	NA	NA	NA	NA	NA	NA	NA	NA	NA	NA	NA	NA	NA	NA	NA	NA	NA
Arrow Flanker 2014	12349	1	"<?xml version=""1.0""?>\n<Clock xmlns:dt=""urn:schemas-microsoft-com:datatypes""><Description dt:dt=""string"">E-Prime Primary Realtime Clock</Description><StartTime><Timestamp dt:dt=""int"">0</Timestamp><DateUtc dt:dt=""string"">2015-06-18T20:05:17Z</DateUtc></StartTime><FrequencyChanges><FrequencyChange><Frequency dt:dt=""r8"">2825693</Frequency><Timestamp dt:dt=""r8"">1837869533436</Timestamp><Current dt:dt=""r8"">0</Current><DateUtc dt:dt=""string"">2015-06-18T20:05:17Z</DateUtc></FrequencyChange></FrequencyChanges></Clock>\n"	Arrow Flanker 2014-12349-1	60.019	1.0.0.100	1	-375935795	Professional	2.0.10.353	2.0.10.353	06-18-2015	6/18/2015 8:05:17 PM	16:05:17	2.0.10.248	1	NA	NA	NA	NA	NA	NA	NA	NA	NA	NA	NA	NA	NA	1	1	1	NA	NA	NA	NA	NA	NA	NA	NA	NA	NA	NA	MapBlockProc	MapBlockList	NA	5	{LEFTARROW}	-100	NA	1467	NA	1	1	5	0	17	88994	1483	1	{LEFTARROW}	-999999	16	90993	0	{LEFTARROW}	456	91449	NA	NA	NA	NA	NA	NA	MapTrialProc	MapTrialList	NA	NA	NA	NA	NA	NA	NA	NA	NA	NA	NA	NA	NA	NA	NA	NA	NA	NA	left	NA	L.bmp	354	NA	NA	NA	NA	NA	NA	NA	NA	NA	NA	NA	NA	NA	NA	NA	NA	NA	NA	NA	NA	NA
Arrow Flanker 2014	12349	1	"<?xml version=""1.0""?>\n<Clock xmlns:dt=""urn:schemas-microsoft-com:datatypes""><Description dt:dt=""string"">E-Prime Primary Realtime Clock</Description><StartTime><Timestamp dt:dt=""int"">0</Timestamp><DateUtc dt:dt=""string"">2015-06-18T20:05:17Z</DateUtc></StartTime><FrequencyChanges><FrequencyChange><Frequency dt:dt=""r8"">2825693</Frequency><Timestamp dt:dt=""r8"">1837869533436</Timestamp><Current dt:dt=""r8"">0</Current><DateUtc dt:dt=""string"">2015-06-18T20:05:17Z</DateUtc></FrequencyChange></FrequencyChanges></Clock>\n"	Arrow Flanker 2014-12349-1	60.019	1.0.0.100	1	-375935795	Professional	2.0.10.353	2.0.10.353	06-18-2015	6/18/2015 8:05:17 PM	16:05:17	2.0.10.248	1	NA	NA	NA	NA	NA	NA	NA	NA	NA	NA	NA	NA	NA	1	1	1	NA	NA	NA	NA	NA	NA	NA	NA	NA	NA	NA	MapBlockProc	MapBlockList	NA	6	{RIGHTARROW}	-100	NA	1534	NA	2	1	6	0	16	92976	1549	1	{RIGHTARROW}	-999999	0	95025	0	{RIGHTARROW}	423	95448	NA	NA	NA	NA	NA	NA	MapTrialProc	MapTrialList	NA	NA	NA	NA	NA	NA	NA	NA	NA	NA	NA	NA	NA	NA	NA	NA	NA	NA	right	NA	R.bmp	354	NA	NA	NA	NA	NA	NA	NA	NA	NA	NA	NA	NA	NA	NA	NA	NA	NA	NA	NA	NA	NA
Arrow Flanker 2014	12349	1	"<?xml version=""1.0""?>\n<Clock xmlns:dt=""urn:schemas-microsoft-com:datatypes""><Description dt:dt=""string"">E-Prime Primary Realtime Clock</Description><StartTime><Timestamp dt:dt=""int"">0</Timestamp><DateUtc dt:dt=""string"">2015-06-18T20:05:17Z</DateUtc></StartTime><FrequencyChanges><FrequencyChange><Frequency dt:dt=""r8"">2825693</Frequency><Timestamp dt:dt=""r8"">1837869533436</Timestamp><Current dt:dt=""r8"">0</Current><DateUtc dt:dt=""string"">2015-06-18T20:05:17Z</DateUtc></FrequencyChange></FrequencyChanges></Clock>\n"	Arrow Flanker 2014-12349-1	60.019	1.0.0.100	1	-375935795	Professional	2.0.10.353	2.0.10.353	06-18-2015	6/18/2015 8:05:17 PM	16:05:17	2.0.10.248	1	NA	NA	NA	NA	NA	NA	NA	NA	NA	NA	NA	NA	NA	1	1	1	NA	NA	NA	NA	NA	NA	NA	NA	NA	NA	NA	MapBlockProc	MapBlockList	NA	7	{RIGHTARROW}	-100	NA	1535	NA	2	1	7	0	15	96974	1550	1	{RIGHTARROW}	-999999	0	99024	0	{RIGHTARROW}	520	99544	NA	NA	NA	NA	NA	NA	MapTrialProc	MapTrialList	NA	NA	NA	NA	NA	NA	NA	NA	NA	NA	NA	NA	NA	NA	NA	NA	NA	NA	right	NA	R.bmp	354	NA	NA	NA	NA	NA	NA	NA	NA	NA	NA	NA	NA	NA	NA	NA	NA	NA	NA	NA	NA	NA
Arrow Flanker 2014	12349	1	"<?xml version=""1.0""?>\n<Clock xmlns:dt=""urn:schemas-microsoft-com:datatypes""><Description dt:dt=""string"">E-Prime Primary Realtime Clock</Description><StartTime><Timestamp dt:dt=""int"">0</Timestamp><DateUtc dt:dt=""string"">2015-06-18T20:05:17Z</DateUtc></StartTime><FrequencyChanges><FrequencyChange><Frequency dt:dt=""r8"">2825693</Frequency><Timestamp dt:dt=""r8"">1837869533436</Timestamp><Current dt:dt=""r8"">0</Current><DateUtc dt:dt=""string"">2015-06-18T20:05:17Z</DateUtc></FrequencyChange></FrequencyChanges></Clock>\n"	Arrow Flanker 2014-12349-1	60.019	1.0.0.100	1	-375935795	Professional	2.0.10.353	2.0.10.353	06-18-2015	6/18/2015 8:05:17 PM	16:05:17	2.0.10.248	1	NA	NA	NA	NA	NA	NA	NA	NA	NA	NA	NA	NA	NA	1	1	1	NA	NA	NA	NA	NA	NA	NA	NA	NA	NA	NA	MapBlockProc	MapBlockList	NA	8	{LEFTARROW}	-100	NA	1326	NA	1	1	8	0	16	101073	1333	1	{LEFTARROW}	-999999	0	102906	0	{LEFTARROW}	494	103400	NA	NA	NA	NA	NA	NA	MapTrialProc	MapTrialList	NA	NA	NA	NA	NA	NA	NA	NA	NA	NA	NA	NA	NA	NA	NA	NA	NA	NA	left	NA	L.bmp	354	NA	NA	NA	NA	NA	NA	NA	NA	NA	NA	NA	NA	NA	NA	NA	NA	NA	NA	NA	NA	NA
Arrow Flanker 2014	12349	1	"<?xml version=""1.0""?>\n<Clock xmlns:dt=""urn:schemas-microsoft-com:datatypes""><Description dt:dt=""string"">E-Prime Primary Realtime Clock</Description><StartTime><Timestamp dt:dt=""int"">0</Timestamp><DateUtc dt:dt=""string"">2015-06-18T20:05:17Z</DateUtc></StartTime><FrequencyChanges><FrequencyChange><Frequency dt:dt=""r8"">2825693</Frequency><Timestamp dt:dt=""r8"">1837869533436</Timestamp><Current dt:dt=""r8"">0</Current><DateUtc dt:dt=""string"">2015-06-18T20:05:17Z</DateUtc></FrequencyChange></FrequencyChanges></Clock>\n"	Arrow Flanker 2014-12349-1	60.019	1.0.0.100	1	-375935795	Professional	2.0.10.353	2.0.10.353	06-18-2015	6/18/2015 8:05:17 PM	16:05:17	2.0.10.248	1	NA	NA	NA	NA	NA	NA	NA	NA	NA	NA	NA	NA	NA	1	1	1	NA	NA	NA	NA	NA	NA	NA	NA	NA	NA	NA	MapBlockProc	MapBlockList	NA	9	{LEFTARROW}	-100	NA	1446	NA	1	1	9	0	17	104939	1449	1	{LEFTARROW}	-999999	0	106888	0	{LEFTARROW}	479	107367	NA	NA	NA	NA	NA	NA	MapTrialProc	MapTrialList	NA	NA	NA	NA	NA	NA	NA	NA	NA	NA	NA	NA	NA	NA	NA	NA	NA	NA	left	NA	L.bmp	354	NA	NA	NA	NA	NA	NA	NA	NA	NA	NA	NA	NA	NA	NA	NA	NA	NA	NA	NA	NA	NA
Arrow Flanker 2014	12349	1	"<?xml version=""1.0""?>\n<Clock xmlns:dt=""urn:schemas-microsoft-com:datatypes""><Description dt:dt=""string"">E-Prime Primary Realtime Clock</Description><StartTime><Timestamp dt:dt=""int"">0</Timestamp><DateUtc dt:dt=""string"">2015-06-18T20:05:17Z</DateUtc></StartTime><FrequencyChanges><FrequencyChange><Frequency dt:dt=""r8"">2825693</Frequency><Timestamp dt:dt=""r8"">1837869533436</Timestamp><Current dt:dt=""r8"">0</Current><DateUtc dt:dt=""string"">2015-06-18T20:05:17Z</DateUtc></FrequencyChange></FrequencyChanges></Clock>\n"	Arrow Flanker 2014-12349-1	60.019	1.0.0.100	1	-375935795	Professional	2.0.10.353	2.0.10.353	06-18-2015	6/18/2015 8:05:17 PM	16:05:17	2.0.10.248	1	NA	NA	NA	NA	NA	NA	NA	NA	NA	NA	NA	NA	NA	1	1	1	NA	NA	NA	NA	NA	NA	NA	NA	NA	NA	NA	MapBlockProc	MapBlockList	NA	10	{LEFTARROW}	-100	NA	788	NA	1	1	10	0	16	108904	800	1	{LEFTARROW}	-999999	0	110204	0	{LEFTARROW}	491	110695	NA	NA	NA	NA	NA	NA	MapTrialProc	MapTrialList	NA	NA	NA	NA	NA	NA	NA	NA	NA	NA	NA	NA	NA	NA	NA	NA	NA	NA	left	NA	L.bmp	354	NA	NA	NA	NA	NA	NA	NA	NA	NA	NA	NA	NA	NA	NA	NA	NA	NA	NA	NA	NA	NA
Arrow Flanker 2014	12349	1	"<?xml version=""1.0""?>\n<Clock xmlns:dt=""urn:schemas-microsoft-com:datatypes""><Description dt:dt=""string"">E-Prime Primary Realtime Clock</Description><StartTime><Timestamp dt:dt=""int"">0</Timestamp><DateUtc dt:dt=""string"">2015-06-18T20:05:17Z</DateUtc></StartTime><FrequencyChanges><FrequencyChange><Frequency dt:dt=""r8"">2825693</Frequency><Timestamp dt:dt=""r8"">1837869533436</Timestamp><Current dt:dt=""r8"">0</Current><DateUtc dt:dt=""string"">2015-06-18T20:05:17Z</DateUtc></FrequencyChange></FrequencyChanges></Clock>\n"	Arrow Flanker 2014-12349-1	60.019	1.0.0.100	1	-375935795	Professional	2.0.10.353	2.0.10.353	06-18-2015	6/18/2015 8:05:17 PM	16:05:17	2.0.10.248	2	NA	NA	NA	NA	NA	NA	NA	NA	NA	NA	NA	NA	NA	NA	NA	NA	NA	NA	NA	NA	NA	NA	NA	NA	1	1	1	PracBlockProc	PracBlockList	NA	1	{RIGHTARROW}	-100	NA	786	congruent	NA	NA	NA	0	9	126799	799	1	{RIGHTARROW}	-999999	0	128098	0	{RIGHTARROW}	948	129046	NA	4	1	1	NA	NA	PracTrialProc	PracTrialList	NA	NA	NA	NA	NA	NA	NA	NA	NA	NA	NA	NA	NA	NA	NA	NA	NA	NA	right	NA	rrrrr.bmp	354	NA	NA	NA	NA	NA	NA	NA	NA	NA	NA	NA	NA	NA	NA	NA	NA	NA	NA	NA	NA	NA
Arrow Flanker 2014	12349	1	"<?xml version=""1.0""?>\n<Clock xmlns:dt=""urn:schemas-microsoft-com:datatypes""><Description dt:dt=""string"">E-Prime Primary Realtime Clock</Description><StartTime><Timestamp dt:dt=""int"">0</Timestamp><DateUtc dt:dt=""string"">2015-06-18T20:05:17Z</DateUtc></StartTime><FrequencyChanges><FrequencyChange><Frequency dt:dt=""r8"">2825693</Frequency><Timestamp dt:dt=""r8"">1837869533436</Timestamp><Current dt:dt=""r8"">0</Current><DateUtc dt:dt=""string"">2015-06-18T20:05:17Z</DateUtc></FrequencyChange></FrequencyChanges></Clock>\n"	Arrow Flanker 2014-12349-1	60.019	1.0.0.100	1	-375935795	Professional	2.0.10.353	2.0.10.353	06-18-2015	6/18/2015 8:05:17 PM	16:05:17	2.0.10.248	2	NA	NA	NA	NA	NA	NA	NA	NA	NA	NA	NA	NA	NA	NA	NA	NA	NA	NA	NA	NA	NA	NA	NA	NA	1	1	1	PracBlockProc	PracBlockList	NA	2	{RIGHTARROW}	-100	NA	1340	incongruent	NA	NA	NA	0	16	130581	1349	1	{RIGHTARROW}	-999999	0	132430	0	{RIGHTARROW}	920	133350	NA	5	1	2	NA	NA	PracTrialProc	PracTrialList	NA	NA	NA	NA	NA	NA	NA	NA	NA	NA	NA	NA	NA	NA	NA	NA	NA	NA	right	NA	llrll.bmp	354	NA	NA	NA	NA	NA	NA	NA	NA	NA	NA	NA	NA	NA	NA	NA	NA	NA	NA	NA	NA	NA
Arrow Flanker 2014	12349	1	"<?xml version=""1.0""?>\n<Clock xmlns:dt=""urn:schemas-microsoft-com:datatypes""><Description dt:dt=""string"">E-Prime Primary Realtime Clock</Description><StartTime><Timestamp dt:dt=""int"">0</Timestamp><DateUtc dt:dt=""string"">2015-06-18T20:05:17Z</DateUtc></StartTime><FrequencyChanges><FrequencyChange><Frequency dt:dt=""r8"">2825693</Frequency><Timestamp dt:dt=""r8"">1837869533436</Timestamp><Current dt:dt=""r8"">0</Current><DateUtc dt:dt=""string"">2015-06-18T20:05:17Z</DateUtc></FrequencyChange></FrequencyChanges></Clock>\n"	Arrow Flanker 2014-12349-1	60.019	1.0.0.100	1	-375935795	Professional	2.0.10.353	2.0.10.353	06-18-2015	6/18/2015 8:05:17 PM	16:05:17	2.0.10.248	2	NA	NA	NA	NA	NA	NA	NA	NA	NA	NA	NA	NA	NA	NA	NA	NA	NA	NA	NA	NA	NA	NA	NA	NA	1	1	1	PracBlockProc	PracBlockList	NA	3	{LEFTARROW}	-100	NA	587	neutral	NA	NA	NA	0	16	134879	600	1	{LEFTARROW}	-999999	0	135979	0	{LEFTARROW}	618	136597	NA	3	1	3	NA	NA	PracTrialProc	PracTrialList	NA	NA	NA	NA	NA	NA	NA	NA	NA	NA	NA	NA	NA	NA	NA	NA	NA	NA	left	NA	ooloo.bmp	354	NA	NA	NA	NA	NA	NA	NA	NA	NA	NA	NA	NA	NA	NA	NA	NA	NA	NA	NA	NA	NA
Arrow Flanker 2014	12349	1	"<?xml version=""1.0""?>\n<Clock xmlns:dt=""urn:schemas-microsoft-com:datatypes""><Description dt:dt=""string"">E-Prime Primary Realtime Clock</Description><StartTime><Timestamp dt:dt=""int"">0</Timestamp><DateUtc dt:dt=""string"">2015-06-18T20:05:17Z</DateUtc></StartTime><FrequencyChanges><FrequencyChange><Frequency dt:dt=""r8"">2825693</Frequency><Timestamp dt:dt=""r8"">1837869533436</Timestamp><Current dt:dt=""r8"">0</Current><DateUtc dt:dt=""string"">2015-06-18T20:05:17Z</DateUtc></FrequencyChange></FrequencyChanges></Clock>\n"	Arrow Flanker 2014-12349-1	60.019	1.0.0.100	1	-375935795	Professional	2.0.10.353	2.0.10.353	06-18-2015	6/18/2015 8:05:17 PM	16:05:17	2.0.10.248	2	NA	NA	NA	NA	NA	NA	NA	NA	NA	NA	NA	NA	NA	NA	NA	NA	NA	NA	NA	NA	NA	NA	NA	NA	1	1	1	PracBlockProc	PracBlockList	NA	4	{LEFTARROW}	-100	NA	769	incongruent	NA	NA	NA	0	16	138128	784	1	{LEFTARROW}	-999999	0	139411	0	{LEFTARROW}	1234	140645	NA	2	1	4	NA	NA	PracTrialProc	PracTrialList	NA	NA	NA	NA	NA	NA	NA	NA	NA	NA	NA	NA	NA	NA	NA	NA	NA	NA	left	NA	rrlrr.bmp	354	NA	NA	NA	NA	NA	NA	NA	NA	NA	NA	NA	NA	NA	NA	NA	NA	NA	NA	NA	NA	NA
Arrow Flanker 2014	12349	1	"<?xml version=""1.0""?>\n<Clock xmlns:dt=""urn:schemas-microsoft-com:datatypes""><Description dt:dt=""string"">E-Prime Primary Realtime Clock</Description><StartTime><Timestamp dt:dt=""int"">0</Timestamp><DateUtc dt:dt=""string"">2015-06-18T20:05:17Z</DateUtc></StartTime><FrequencyChanges><FrequencyChange><Frequency dt:dt=""r8"">2825693</Frequency><Timestamp dt:dt=""r8"">1837869533436</Timestamp><Current dt:dt=""r8"">0</Current><DateUtc dt:dt=""string"">2015-06-18T20:05:17Z</DateUtc></FrequencyChange></FrequencyChanges></Clock>\n"	Arrow Flanker 2014-12349-1	60.019	1.0.0.100	1	-375935795	Professional	2.0.10.353	2.0.10.353	06-18-2015	6/18/2015 8:05:17 PM	16:05:17	2.0.10.248	2	NA	NA	NA	NA	NA	NA	NA	NA	NA	NA	NA	NA	NA	NA	NA	NA	NA	NA	NA	NA	NA	NA	NA	NA	1	1	1	PracBlockProc	PracBlockList	NA	5	{LEFTARROW}	-100	NA	698	congruent	NA	NA	NA	0	16	142177	700	1	{LEFTARROW}	-999999	0	143377	0	{LEFTARROW}	756	144133	NA	1	1	5	NA	NA	PracTrialProc	PracTrialList	NA	NA	NA	NA	NA	NA	NA	NA	NA	NA	NA	NA	NA	NA	NA	NA	NA	NA	left	NA	lllll.bmp	354	NA	NA	NA	NA	NA	NA	NA	NA	NA	NA	NA	NA	NA	NA	NA	NA	NA	NA	NA	NA	NA
Arrow Flanker 2014	12349	1	"<?xml version=""1.0""?>\n<Clock xmlns:dt=""urn:schemas-microsoft-com:datatypes""><Description dt:dt=""string"">E-Prime Primary Realtime Clock</Description><StartTime><Timestamp dt:dt=""int"">0</Timestamp><DateUtc dt:dt=""string"">2015-06-18T20:05:17Z</DateUtc></StartTime><FrequencyChanges><FrequencyChange><Frequency dt:dt=""r8"">2825693</Frequency><Timestamp dt:dt=""r8"">1837869533436</Timestamp><Current dt:dt=""r8"">0</Current><DateUtc dt:dt=""string"">2015-06-18T20:05:17Z</DateUtc></FrequencyChange></FrequencyChanges></Clock>\n"	Arrow Flanker 2014-12349-1	60.019	1.0.0.100	1	-375935795	Professional	2.0.10.353	2.0.10.353	06-18-2015	6/18/2015 8:05:17 PM	16:05:17	2.0.10.248	2	NA	NA	NA	NA	NA	NA	NA	NA	NA	NA	NA	NA	NA	NA	NA	NA	NA	NA	NA	NA	NA	NA	NA	NA	1	1	1	PracBlockProc	PracBlockList	NA	6	{RIGHTARROW}	-100	NA	1378	neutral	NA	NA	NA	0	16	145659	1383	1	{RIGHTARROW}	-999999	0	147542	0	{RIGHTARROW}	638	148180	NA	6	1	6	NA	NA	PracTrialProc	PracTrialList	NA	NA	NA	NA	NA	NA	NA	NA	NA	NA	NA	NA	NA	NA	NA	NA	NA	NA	right	NA	ooroo.bmp	354	NA	NA	NA	NA	NA	NA	NA	NA	NA	NA	NA	NA	NA	NA	NA	NA	NA	NA	NA	NA	NA
Arrow Flanker 2014	12349	1	"<?xml version=""1.0""?>\n<Clock xmlns:dt=""urn:schemas-microsoft-com:datatypes""><Description dt:dt=""string"">E-Prime Primary Realtime Clock</Description><StartTime><Timestamp dt:dt=""int"">0</Timestamp><DateUtc dt:dt=""string"">2015-06-18T20:05:17Z</DateUtc></StartTime><FrequencyChanges><FrequencyChange><Frequency dt:dt=""r8"">2825693</Frequency><Timestamp dt:dt=""r8"">1837869533436</Timestamp><Current dt:dt=""r8"">0</Current><DateUtc dt:dt=""string"">2015-06-18T20:05:17Z</DateUtc></FrequencyChange></FrequencyChanges></Clock>\n"	Arrow Flanker 2014-12349-1	60.019	1.0.0.100	1	-375935795	Professional	2.0.10.353	2.0.10.353	06-18-2015	6/18/2015 8:05:17 PM	16:05:17	2.0.10.248	3	1	1	1	NA	NA	NA	NA	NA	NA	NA	NA	NA	NA	NA	NA	NA	NA	NA	NA	NA	NA	NA	NA	NA	NA	NA	NA	BlockProc	BlockList	NA	1	{LEFTARROW}	NA	-100	1565	incongruent	NA	NA	NA	NA	NA	NA	NA	NA	NA	NA	NA	NA	NA	NA	NA	NA	NA	NA	NA	NA	NA	NA	TrialProc	TrialList	0	11	157439	17	0	16	154540	1516	1	{LEFTARROW}	-999999	0	156556	0	{LEFTARROW}	872	157428	NA	NA	left	rrlrr.bmp	354	0	NA	0	0	0	0	NA	0	0	0	NA	0	0	0	0	NA	0	0	3	1	1
Arrow Flanker 2014	12349	1	"<?xml version=""1.0""?>\n<Clock xmlns:dt=""urn:schemas-microsoft-com:datatypes""><Description dt:dt=""string"">E-Prime Primary Realtime Clock</Description><StartTime><Timestamp dt:dt=""int"">0</Timestamp><DateUtc dt:dt=""string"">2015-06-18T20:05:17Z</DateUtc></StartTime><FrequencyChanges><FrequencyChange><Frequency dt:dt=""r8"">2825693</Frequency><Timestamp dt:dt=""r8"">1837869533436</Timestamp><Current dt:dt=""r8"">0</Current><DateUtc dt:dt=""string"">2015-06-18T20:05:17Z</DateUtc></FrequencyChange></FrequencyChanges></Clock>\n"	Arrow Flanker 2014-12349-1	60.019	1.0.0.100	1	-375935795	Professional	2.0.10.353	2.0.10.353	06-18-2015	6/18/2015 8:05:17 PM	16:05:17	2.0.10.248	3	1	1	1	NA	NA	NA	NA	NA	NA	NA	NA	NA	NA	NA	NA	NA	NA	NA	NA	NA	NA	NA	NA	NA	NA	NA	NA	BlockProc	BlockList	NA	2	{RIGHTARROW}	NA	-100	2153	incongruent	NA	NA	NA	NA	NA	NA	NA	NA	NA	NA	NA	NA	NA	NA	NA	NA	NA	NA	NA	NA	NA	NA	TrialProc	TrialList	0	20	160488	17	0	16	157972	1300	1	{RIGHTARROW}	-999999	0	159772	0	{RIGHTARROW}	696	160468	NA	NA	right	llrll.bmp	354	0	NA	0	0	0	0	NA	0	0	0	NA	0	0	0	0	NA	0	0	4	1	2
Arrow Flanker 2014	12349	1	"<?xml version=""1.0""?>\n<Clock xmlns:dt=""urn:schemas-microsoft-com:datatypes""><Description dt:dt=""string"">E-Prime Primary Realtime Clock</Description><StartTime><Timestamp dt:dt=""int"">0</Timestamp><DateUtc dt:dt=""string"">2015-06-18T20:05:17Z</DateUtc></StartTime><FrequencyChanges><FrequencyChange><Frequency dt:dt=""r8"">2825693</Frequency><Timestamp dt:dt=""r8"">1837869533436</Timestamp><Current dt:dt=""r8"">0</Current><DateUtc dt:dt=""string"">2015-06-18T20:05:17Z</DateUtc></FrequencyChange></FrequencyChanges></Clock>\n"	Arrow Flanker 2014-12349-1	60.019	1.0.0.100	1	-375935795	Professional	2.0.10.353	2.0.10.353	06-18-2015	6/18/2015 8:05:17 PM	16:05:17	2.0.10.248	3	1	1	1	NA	NA	NA	NA	NA	NA	NA	NA	NA	NA	NA	NA	NA	NA	NA	NA	NA	NA	NA	NA	NA	NA	NA	NA	BlockProc	BlockList	NA	3	{LEFTARROW}	NA	-100	1905	incongruent	NA	NA	NA	NA	NA	NA	NA	NA	NA	NA	NA	NA	NA	NA	NA	NA	NA	NA	NA	NA	NA	NA	TrialProc	TrialList	0	7	163787	17	0	16	161021	1467	1	{LEFTARROW}	-999999	16	163004	0	{LEFTARROW}	775	163779	NA	NA	left	rrlrr.bmp	354	0	NA	0	0	0	0	NA	0	0	0	NA	0	0	0	0	NA	0	0	3	1	3
Arrow Flanker 2014	12349	1	"<?xml version=""1.0""?>\n<Clock xmlns:dt=""urn:schemas-microsoft-com:datatypes""><Description dt:dt=""string"">E-Prime Primary Realtime Clock</Description><StartTime><Timestamp dt:dt=""int"">0</Timestamp><DateUtc dt:dt=""string"">2015-06-18T20:05:17Z</DateUtc></StartTime><FrequencyChanges><FrequencyChange><Frequency dt:dt=""r8"">2825693</Frequency><Timestamp dt:dt=""r8"">1837869533436</Timestamp><Current dt:dt=""r8"">0</Current><DateUtc dt:dt=""string"">2015-06-18T20:05:17Z</DateUtc></FrequencyChange></FrequencyChanges></Clock>\n"	Arrow Flanker 2014-12349-1	60.019	1.0.0.100	1	-375935795	Professional	2.0.10.353	2.0.10.353	06-18-2015	6/18/2015 8:05:17 PM	16:05:17	2.0.10.248	3	1	1	1	NA	NA	NA	NA	NA	NA	NA	NA	NA	NA	NA	NA	NA	NA	NA	NA	NA	NA	NA	NA	NA	NA	NA	NA	BlockProc	BlockList	NA	4	{LEFTARROW}	NA	-100	1750	neutral	NA	NA	NA	NA	NA	NA	NA	NA	NA	NA	NA	NA	NA	NA	NA	NA	NA	NA	NA	NA	NA	NA	TrialProc	TrialList	0	20	166903	16	0	16	164320	1433	1	{LEFTARROW}	-999999	0	166253	0	{LEFTARROW}	630	166883	NA	NA	left	ooloo.bmp	354	0	NA	0	0	0	0	NA	0	0	0	NA	0	0	0	0	NA	0	0	5	1	4
Arrow Flanker 2014	12349	1	"<?xml version=""1.0""?>\n<Clock xmlns:dt=""urn:schemas-microsoft-com:datatypes""><Description dt:dt=""string"">E-Prime Primary Realtime Clock</Description><StartTime><Timestamp dt:dt=""int"">0</Timestamp><DateUtc dt:dt=""string"">2015-06-18T20:05:17Z</DateUtc></StartTime><FrequencyChanges><FrequencyChange><Frequency dt:dt=""r8"">2825693</Frequency><Timestamp dt:dt=""r8"">1837869533436</Timestamp><Current dt:dt=""r8"">0</Current><DateUtc dt:dt=""string"">2015-06-18T20:05:17Z</DateUtc></FrequencyChange></FrequencyChanges></Clock>\n"	Arrow Flanker 2014-12349-1	60.019	1.0.0.100	1	-375935795	Professional	2.0.10.353	2.0.10.353	06-18-2015	6/18/2015 8:05:17 PM	16:05:17	2.0.10.248	3	1	1	1	NA	NA	NA	NA	NA	NA	NA	NA	NA	NA	NA	NA	NA	NA	NA	NA	NA	NA	NA	NA	NA	NA	NA	NA	BlockProc	BlockList	NA	5	{RIGHTARROW}	NA	-100	1655	neutral	NA	NA	NA	NA	NA	NA	NA	NA	NA	NA	NA	NA	NA	NA	NA	NA	NA	NA	NA	NA	NA	NA	TrialProc	TrialList	0	12	169119	16	0	17	167436	633	1	{RIGHTARROW}	-999999	0	168569	0	{RIGHTARROW}	538	169107	NA	NA	right	ooroo.bmp	354	0	NA	0	0	0	0	NA	0	0	0	NA	0	0	0	0	NA	0	0	6	1	5
Arrow Flanker 2014	12349	1	"<?xml version=""1.0""?>\n<Clock xmlns:dt=""urn:schemas-microsoft-com:datatypes""><Description dt:dt=""string"">E-Prime Primary Realtime Clock</Description><StartTime><Timestamp dt:dt=""int"">0</Timestamp><DateUtc dt:dt=""string"">2015-06-18T20:05:17Z</DateUtc></StartTime><FrequencyChanges><FrequencyChange><Frequency dt:dt=""r8"">2825693</Frequency><Timestamp dt:dt=""r8"">1837869533436</Timestamp><Current dt:dt=""r8"">0</Current><DateUtc dt:dt=""string"">2015-06-18T20:05:17Z</DateUtc></FrequencyChange></FrequencyChanges></Clock>\n"	Arrow Flanker 2014-12349-1	60.019	1.0.0.100	1	-375935795	Professional	2.0.10.353	2.0.10.353	06-18-2015	6/18/2015 8:05:17 PM	16:05:17	2.0.10.248	3	1	1	1	NA	NA	NA	NA	NA	NA	NA	NA	NA	NA	NA	NA	NA	NA	NA	NA	NA	NA	NA	NA	NA	NA	NA	NA	BlockProc	BlockList	NA	6	{RIGHTARROW}	NA	-100	2249	neutral	NA	NA	NA	NA	NA	NA	NA	NA	NA	NA	NA	NA	NA	NA	NA	NA	NA	NA	NA	NA	NA	NA	TrialProc	TrialList	0	9	172268	17	0	17	169652	1483	1	{RIGHTARROW}	-999999	0	171635	0	{RIGHTARROW}	624	172259	NA	NA	right	ooroo.bmp	354	0	NA	0	0	0	0	NA	0	0	0	NA	0	0	0	0	NA	0	0	6	1	6
Arrow Flanker 2014	12349	1	"<?xml version=""1.0""?>\n<Clock xmlns:dt=""urn:schemas-microsoft-com:datatypes""><Description dt:dt=""string"">E-Prime Primary Realtime Clock</Description><StartTime><Timestamp dt:dt=""int"">0</Timestamp><DateUtc dt:dt=""string"">2015-06-18T20:05:17Z</DateUtc></StartTime><FrequencyChanges><FrequencyChange><Frequency dt:dt=""r8"">2825693</Frequency><Timestamp dt:dt=""r8"">1837869533436</Timestamp><Current dt:dt=""r8"">0</Current><DateUtc dt:dt=""string"">2015-06-18T20:05:17Z</DateUtc></FrequencyChange></FrequencyChanges></Clock>\n"	Arrow Flanker 2014-12349-1	60.019	1.0.0.100	1	-375935795	Professional	2.0.10.353	2.0.10.353	06-18-2015	6/18/2015 8:05:17 PM	16:05:17	2.0.10.248	3	1	1	1	NA	NA	NA	NA	NA	NA	NA	NA	NA	NA	NA	NA	NA	NA	NA	NA	NA	NA	NA	NA	NA	NA	NA	NA	BlockProc	BlockList	NA	7	{RIGHTARROW}	NA	-100	1472	neutral	NA	NA	NA	NA	NA	NA	NA	NA	NA	NA	NA	NA	NA	NA	NA	NA	NA	NA	NA	NA	NA	NA	TrialProc	TrialList	1	19	175350	17	0	16	172801	1366	1	{RIGHTARROW}	-999999	0	174667	0	{RIGHTARROW}	664	175331	NA	NA	right	ooroo.bmp	354	0	NA	0	0	0	0	NA	0	0	0	NA	0	0	0	0	NA	0	0	6	1	7
Arrow Flanker 2014	12349	1	"<?xml version=""1.0""?>\n<Clock xmlns:dt=""urn:schemas-microsoft-com:datatypes""><Description dt:dt=""string"">E-Prime Primary Realtime Clock</Description><StartTime><Timestamp dt:dt=""int"">0</Timestamp><DateUtc dt:dt=""string"">2015-06-18T20:05:17Z</DateUtc></StartTime><FrequencyChanges><FrequencyChange><Frequency dt:dt=""r8"">2825693</Frequency><Timestamp dt:dt=""r8"">1837869533436</Timestamp><Current dt:dt=""r8"">0</Current><DateUtc dt:dt=""string"">2015-06-18T20:05:17Z</DateUtc></FrequencyChange></FrequencyChanges></Clock>\n"	Arrow Flanker 2014-12349-1	60.019	1.0.0.100	1	-375935795	Professional	2.0.10.353	2.0.10.353	06-18-2015	6/18/2015 8:05:17 PM	16:05:17	2.0.10.248	3	1	1	1	NA	NA	NA	NA	NA	NA	NA	NA	NA	NA	NA	NA	NA	NA	NA	NA	NA	NA	NA	NA	NA	NA	NA	NA	BlockProc	BlockList	NA	8	{LEFTARROW}	NA	-100	1147	incongruent	NA	NA	NA	NA	NA	NA	NA	NA	NA	NA	NA	NA	NA	NA	NA	NA	NA	NA	NA	NA	NA	NA	TrialProc	TrialList	0	5	178200	16	0	16	175883	1084	1	{LEFTARROW}	-999999	0	177466	0	{LEFTARROW}	728	178194	NA	NA	left	rrlrr.bmp	354	0	NA	0	0	0	0	NA	0	0	0	NA	0	0	0	0	NA	0	0	3	1	8
Arrow Flanker 2014	12349	1	"<?xml version=""1.0""?>\n<Clock xmlns:dt=""urn:schemas-microsoft-com:datatypes""><Description dt:dt=""string"">E-Prime Primary Realtime Clock</Description><StartTime><Timestamp dt:dt=""int"">0</Timestamp><DateUtc dt:dt=""string"">2015-06-18T20:05:17Z</DateUtc></StartTime><FrequencyChanges><FrequencyChange><Frequency dt:dt=""r8"">2825693</Frequency><Timestamp dt:dt=""r8"">1837869533436</Timestamp><Current dt:dt=""r8"">0</Current><DateUtc dt:dt=""string"">2015-06-18T20:05:17Z</DateUtc></FrequencyChange></FrequencyChanges></Clock>\n"	Arrow Flanker 2014-12349-1	60.019	1.0.0.100	1	-375935795	Professional	2.0.10.353	2.0.10.353	06-18-2015	6/18/2015 8:05:17 PM	16:05:17	2.0.10.248	3	1	1	1	NA	NA	NA	NA	NA	NA	NA	NA	NA	NA	NA	NA	NA	NA	NA	NA	NA	NA	NA	NA	NA	NA	NA	NA	BlockProc	BlockList	NA	9	{LEFTARROW}	NA	-100	1350	incongruent	NA	NA	NA	NA	NA	NA	NA	NA	NA	NA	NA	NA	NA	NA	NA	NA	NA	NA	NA	NA	NA	NA	TrialProc	TrialList	1	7	180665	17	0	16	178732	667	1	{LEFTARROW}	-999999	0	179899	0	{LEFTARROW}	759	180658	NA	NA	left	rrlrr.bmp	354	0	NA	0	0	0	0	NA	0	0	0	NA	0	0	0	0	NA	0	0	3	1	9
Arrow Flanker 2014	12349	1	"<?xml version=""1.0""?>\n<Clock xmlns:dt=""urn:schemas-microsoft-com:datatypes""><Description dt:dt=""string"">E-Prime Primary Realtime Clock</Description><StartTime><Timestamp dt:dt=""int"">0</Timestamp><DateUtc dt:dt=""string"">2015-06-18T20:05:17Z</DateUtc></StartTime><FrequencyChanges><FrequencyChange><Frequency dt:dt=""r8"">2825693</Frequency><Timestamp dt:dt=""r8"">1837869533436</Timestamp><Current dt:dt=""r8"">0</Current><DateUtc dt:dt=""string"">2015-06-18T20:05:17Z</DateUtc></FrequencyChange></FrequencyChanges></Clock>\n"	Arrow Flanker 2014-12349-1	60.019	1.0.0.100	1	-375935795	Professional	2.0.10.353	2.0.10.353	06-18-2015	6/18/2015 8:05:17 PM	16:05:17	2.0.10.248	3	1	1	1	NA	NA	NA	NA	NA	NA	NA	NA	NA	NA	NA	NA	NA	NA	NA	NA	NA	NA	NA	NA	NA	NA	NA	NA	BlockProc	BlockList	NA	10	{LEFTARROW}	NA	-100	1459	congruent	NA	NA	NA	NA	NA	NA	NA	NA	NA	NA	NA	NA	NA	NA	NA	NA	NA	NA	NA	NA	NA	NA	TrialProc	TrialList	0	20	182998	17	0	16	181198	650	1	{LEFTARROW}	-999999	0	182348	0	{LEFTARROW}	630	182978	NA	NA	left	lllll.bmp	354	0	NA	0	0	0	0	NA	0	0	0	NA	0	0	0	0	NA	0	0	1	1	10
Arrow Flanker 2014	12349	1	"<?xml version=""1.0""?>\n<Clock xmlns:dt=""urn:schemas-microsoft-com:datatypes""><Description dt:dt=""string"">E-Prime Primary Realtime Clock</Description><StartTime><Timestamp dt:dt=""int"">0</Timestamp><DateUtc dt:dt=""string"">2015-06-18T20:05:17Z</DateUtc></StartTime><FrequencyChanges><FrequencyChange><Frequency dt:dt=""r8"">2825693</Frequency><Timestamp dt:dt=""r8"">1837869533436</Timestamp><Current dt:dt=""r8"">0</Current><DateUtc dt:dt=""string"">2015-06-18T20:05:17Z</DateUtc></FrequencyChange></FrequencyChanges></Clock>\n"	Arrow Flanker 2014-12349-1	60.019	1.0.0.100	1	-375935795	Professional	2.0.10.353	2.0.10.353	06-18-2015	6/18/2015 8:05:17 PM	16:05:17	2.0.10.248	3	1	1	1	NA	NA	NA	NA	NA	NA	NA	NA	NA	NA	NA	NA	NA	NA	NA	NA	NA	NA	NA	NA	NA	NA	NA	NA	BlockProc	BlockList	NA	11	{RIGHTARROW}	NA	-100	1620	incongruent	NA	NA	NA	NA	NA	NA	NA	NA	NA	NA	NA	NA	NA	NA	NA	NA	NA	NA	NA	NA	NA	NA	TrialProc	TrialList	0	7	185897	17	0	16	183531	1134	1	{RIGHTARROW}	-999999	0	185164	0	{RIGHTARROW}	726	185890	NA	NA	right	llrll.bmp	354	0	NA	0	0	0	0	NA	0	0	0	NA	0	0	0	0	NA	0	0	4	1	11
Arrow Flanker 2014	12349	1	"<?xml version=""1.0""?>\n<Clock xmlns:dt=""urn:schemas-microsoft-com:datatypes""><Description dt:dt=""string"">E-Prime Primary Realtime Clock</Description><StartTime><Timestamp dt:dt=""int"">0</Timestamp><DateUtc dt:dt=""string"">2015-06-18T20:05:17Z</DateUtc></StartTime><FrequencyChanges><FrequencyChange><Frequency dt:dt=""r8"">2825693</Frequency><Timestamp dt:dt=""r8"">1837869533436</Timestamp><Current dt:dt=""r8"">0</Current><DateUtc dt:dt=""string"">2015-06-18T20:05:17Z</DateUtc></FrequencyChange></FrequencyChanges></Clock>\n"	Arrow Flanker 2014-12349-1	60.019	1.0.0.100	1	-375935795	Professional	2.0.10.353	2.0.10.353	06-18-2015	6/18/2015 8:05:17 PM	16:05:17	2.0.10.248	3	1	1	1	NA	NA	NA	NA	NA	NA	NA	NA	NA	NA	NA	NA	NA	NA	NA	NA	NA	NA	NA	NA	NA	NA	NA	NA	BlockProc	BlockList	NA	12	{RIGHTARROW}	NA	-100	1866	neutral	NA	NA	NA	NA	NA	NA	NA	NA	NA	NA	NA	NA	NA	NA	NA	NA	NA	NA	NA	NA	NA	NA	TrialProc	TrialList	1	19	189029	17	0	16	186430	1500	1	{RIGHTARROW}	-999999	0	188430	0	{RIGHTARROW}	580	189010	NA	NA	right	ooroo.bmp	354	0	NA	0	0	0	0	NA	0	0	0	NA	0	0	0	0	NA	0	0	6	1	12
Arrow Flanker 2014	12349	1	"<?xml version=""1.0""?>\n<Clock xmlns:dt=""urn:schemas-microsoft-com:datatypes""><Description dt:dt=""string"">E-Prime Primary Realtime Clock</Description><StartTime><Timestamp dt:dt=""int"">0</Timestamp><DateUtc dt:dt=""string"">2015-06-18T20:05:17Z</DateUtc></StartTime><FrequencyChanges><FrequencyChange><Frequency dt:dt=""r8"">2825693</Frequency><Timestamp dt:dt=""r8"">1837869533436</Timestamp><Current dt:dt=""r8"">0</Current><DateUtc dt:dt=""string"">2015-06-18T20:05:17Z</DateUtc></FrequencyChange></FrequencyChanges></Clock>\n"	Arrow Flanker 2014-12349-1	60.019	1.0.0.100	1	-375935795	Professional	2.0.10.353	2.0.10.353	06-18-2015	6/18/2015 8:05:17 PM	16:05:17	2.0.10.248	3	1	1	1	NA	NA	NA	NA	NA	NA	NA	NA	NA	NA	NA	NA	NA	NA	NA	NA	NA	NA	NA	NA	NA	NA	NA	NA	BlockProc	BlockList	NA	13	{LEFTARROW}	NA	-100	2468	congruent	NA	NA	NA	NA	NA	NA	NA	NA	NA	NA	NA	NA	NA	NA	NA	NA	NA	NA	NA	NA	NA	NA	TrialProc	TrialList	1	10	192028	17	0	17	189563	1349	1	{LEFTARROW}	-999999	0	191412	0	{LEFTARROW}	605	192017	NA	NA	left	lllll.bmp	354	0	NA	0	0	0	0	NA	0	0	0	NA	0	0	0	0	NA	0	0	1	1	13
Arrow Flanker 2014	12349	1	"<?xml version=""1.0""?>\n<Clock xmlns:dt=""urn:schemas-microsoft-com:datatypes""><Description dt:dt=""string"">E-Prime Primary Realtime Clock</Description><StartTime><Timestamp dt:dt=""int"">0</Timestamp><DateUtc dt:dt=""string"">2015-06-18T20:05:17Z</DateUtc></StartTime><FrequencyChanges><FrequencyChange><Frequency dt:dt=""r8"">2825693</Frequency><Timestamp dt:dt=""r8"">1837869533436</Timestamp><Current dt:dt=""r8"">0</Current><DateUtc dt:dt=""string"">2015-06-18T20:05:17Z</DateUtc></FrequencyChange></FrequencyChanges></Clock>\n"	Arrow Flanker 2014-12349-1	60.019	1.0.0.100	1	-375935795	Professional	2.0.10.353	2.0.10.353	06-18-2015	6/18/2015 8:05:17 PM	16:05:17	2.0.10.248	3	1	1	1	NA	NA	NA	NA	NA	NA	NA	NA	NA	NA	NA	NA	NA	NA	NA	NA	NA	NA	NA	NA	NA	NA	NA	NA	BlockProc	BlockList	NA	14	{LEFTARROW}	NA	-100	2135	neutral	NA	NA	NA	NA	NA	NA	NA	NA	NA	NA	NA	NA	NA	NA	NA	NA	NA	NA	NA	NA	NA	NA	TrialProc	TrialList	1	12	195277	17	0	17	192562	1566	1	{LEFTARROW}	-999999	0	194628	0	{LEFTARROW}	637	195265	NA	NA	left	ooloo.bmp	354	0	NA	0	0	0	0	NA	0	0	0	NA	0	0	0	0	NA	0	0	5	1	14
Arrow Flanker 2014	12349	1	"<?xml version=""1.0""?>\n<Clock xmlns:dt=""urn:schemas-microsoft-com:datatypes""><Description dt:dt=""string"">E-Prime Primary Realtime Clock</Description><StartTime><Timestamp dt:dt=""int"">0</Timestamp><DateUtc dt:dt=""string"">2015-06-18T20:05:17Z</DateUtc></StartTime><FrequencyChanges><FrequencyChange><Frequency dt:dt=""r8"">2825693</Frequency><Timestamp dt:dt=""r8"">1837869533436</Timestamp><Current dt:dt=""r8"">0</Current><DateUtc dt:dt=""string"">2015-06-18T20:05:17Z</DateUtc></FrequencyChange></FrequencyChanges></Clock>\n"	Arrow Flanker 2014-12349-1	60.019	1.0.0.100	1	-375935795	Professional	2.0.10.353	2.0.10.353	06-18-2015	6/18/2015 8:05:17 PM	16:05:17	2.0.10.248	3	1	1	1	NA	NA	NA	NA	NA	NA	NA	NA	NA	NA	NA	NA	NA	NA	NA	NA	NA	NA	NA	NA	NA	NA	NA	NA	BlockProc	BlockList	NA	15	{RIGHTARROW}	NA	-100	1263	congruent	NA	NA	NA	NA	NA	NA	NA	NA	NA	NA	NA	NA	NA	NA	NA	NA	NA	NA	NA	NA	NA	NA	TrialProc	TrialList	0	11	197660	17	0	17	195811	416	1	{RIGHTARROW}	-999999	0	196727	0	{RIGHTARROW}	922	197649	NA	NA	right	rrrrr.bmp	354	0	NA	0	0	0	0	NA	0	0	0	NA	0	0	0	0	NA	0	0	2	1	15
Arrow Flanker 2014	12349	1	"<?xml version=""1.0""?>\n<Clock xmlns:dt=""urn:schemas-microsoft-com:datatypes""><Description dt:dt=""string"">E-Prime Primary Realtime Clock</Description><StartTime><Timestamp dt:dt=""int"">0</Timestamp><DateUtc dt:dt=""string"">2015-06-18T20:05:17Z</DateUtc></StartTime><FrequencyChanges><FrequencyChange><Frequency dt:dt=""r8"">2825693</Frequency><Timestamp dt:dt=""r8"">1837869533436</Timestamp><Current dt:dt=""r8"">0</Current><DateUtc dt:dt=""string"">2015-06-18T20:05:17Z</DateUtc></FrequencyChange></FrequencyChanges></Clock>\n"	Arrow Flanker 2014-12349-1	60.019	1.0.0.100	1	-375935795	Professional	2.0.10.353	2.0.10.353	06-18-2015	6/18/2015 8:05:17 PM	16:05:17	2.0.10.248	3	1	1	1	NA	NA	NA	NA	NA	NA	NA	NA	NA	NA	NA	NA	NA	NA	NA	NA	NA	NA	NA	NA	NA	NA	NA	NA	BlockProc	BlockList	NA	16	{RIGHTARROW}	NA	-100	1535	congruent	NA	NA	NA	NA	NA	NA	NA	NA	NA	NA	NA	NA	NA	NA	NA	NA	NA	NA	NA	NA	NA	NA	TrialProc	TrialList	0	14	200559	17	0	16	198193	1100	1	{RIGHTARROW}	-999999	0	199793	0	{RIGHTARROW}	752	200545	NA	NA	right	rrrrr.bmp	354	0	NA	0	0	0	0	NA	0	0	0	NA	0	0	0	0	NA	0	0	2	1	16
Arrow Flanker 2014	12349	1	"<?xml version=""1.0""?>\n<Clock xmlns:dt=""urn:schemas-microsoft-com:datatypes""><Description dt:dt=""string"">E-Prime Primary Realtime Clock</Description><StartTime><Timestamp dt:dt=""int"">0</Timestamp><DateUtc dt:dt=""string"">2015-06-18T20:05:17Z</DateUtc></StartTime><FrequencyChanges><FrequencyChange><Frequency dt:dt=""r8"">2825693</Frequency><Timestamp dt:dt=""r8"">1837869533436</Timestamp><Current dt:dt=""r8"">0</Current><DateUtc dt:dt=""string"">2015-06-18T20:05:17Z</DateUtc></FrequencyChange></FrequencyChanges></Clock>\n"	Arrow Flanker 2014-12349-1	60.019	1.0.0.100	1	-375935795	Professional	2.0.10.353	2.0.10.353	06-18-2015	6/18/2015 8:05:17 PM	16:05:17	2.0.10.248	3	1	1	1	NA	NA	NA	NA	NA	NA	NA	NA	NA	NA	NA	NA	NA	NA	NA	NA	NA	NA	NA	NA	NA	NA	NA	NA	BlockProc	BlockList	NA	17	{LEFTARROW}	NA	-100	1760	incongruent	NA	NA	NA	NA	NA	NA	NA	NA	NA	NA	NA	NA	NA	NA	NA	NA	NA	NA	NA	NA	NA	NA	TrialProc	TrialList	0	21	203542	16	0	16	201092	1333	1	{LEFTARROW}	-999999	0	202925	0	{LEFTARROW}	596	203521	NA	NA	left	rrlrr.bmp	354	0	NA	0	0	0	0	NA	0	0	0	NA	0	0	0	0	NA	0	0	3	1	17
Arrow Flanker 2014	12349	1	"<?xml version=""1.0""?>\n<Clock xmlns:dt=""urn:schemas-microsoft-com:datatypes""><Description dt:dt=""string"">E-Prime Primary Realtime Clock</Description><StartTime><Timestamp dt:dt=""int"">0</Timestamp><DateUtc dt:dt=""string"">2015-06-18T20:05:17Z</DateUtc></StartTime><FrequencyChanges><FrequencyChange><Frequency dt:dt=""r8"">2825693</Frequency><Timestamp dt:dt=""r8"">1837869533436</Timestamp><Current dt:dt=""r8"">0</Current><DateUtc dt:dt=""string"">2015-06-18T20:05:17Z</DateUtc></FrequencyChange></FrequencyChanges></Clock>\n"	Arrow Flanker 2014-12349-1	60.019	1.0.0.100	1	-375935795	Professional	2.0.10.353	2.0.10.353	06-18-2015	6/18/2015 8:05:17 PM	16:05:17	2.0.10.248	3	1	1	1	NA	NA	NA	NA	NA	NA	NA	NA	NA	NA	NA	NA	NA	NA	NA	NA	NA	NA	NA	NA	NA	NA	NA	NA	BlockProc	BlockList	NA	18	{LEFTARROW}	NA	-100	2156	congruent	NA	NA	NA	NA	NA	NA	NA	NA	NA	NA	NA	NA	NA	NA	NA	NA	NA	NA	NA	NA	NA	NA	TrialProc	TrialList	1	20	206357	17	0	17	204075	1249	1	{LEFTARROW}	-999999	0	205824	0	{LEFTARROW}	512	206336	NA	NA	left	lllll.bmp	354	0	NA	0	0	0	0	NA	0	0	0	NA	0	0	0	0	NA	0	0	1	1	18
Arrow Flanker 2014	12349	1	"<?xml version=""1.0""?>\n<Clock xmlns:dt=""urn:schemas-microsoft-com:datatypes""><Description dt:dt=""string"">E-Prime Primary Realtime Clock</Description><StartTime><Timestamp dt:dt=""int"">0</Timestamp><DateUtc dt:dt=""string"">2015-06-18T20:05:17Z</DateUtc></StartTime><FrequencyChanges><FrequencyChange><Frequency dt:dt=""r8"">2825693</Frequency><Timestamp dt:dt=""r8"">1837869533436</Timestamp><Current dt:dt=""r8"">0</Current><DateUtc dt:dt=""string"">2015-06-18T20:05:17Z</DateUtc></FrequencyChange></FrequencyChanges></Clock>\n"	Arrow Flanker 2014-12349-1	60.019	1.0.0.100	1	-375935795	Professional	2.0.10.353	2.0.10.353	06-18-2015	6/18/2015 8:05:17 PM	16:05:17	2.0.10.248	3	1	1	1	NA	NA	NA	NA	NA	NA	NA	NA	NA	NA	NA	NA	NA	NA	NA	NA	NA	NA	NA	NA	NA	NA	NA	NA	BlockProc	BlockList	NA	19	{RIGHTARROW}	NA	-100	585	incongruent	NA	NA	NA	NA	NA	NA	NA	NA	NA	NA	NA	NA	NA	NA	NA	NA	NA	NA	NA	NA	NA	NA	TrialProc	TrialList	1	15	208623	17	0	17	206891	483	1	{RIGHTARROW}	-999999	-1	207873	0	{RIGHTARROW}	735	208608	NA	NA	right	llrll.bmp	354	0	NA	0	0	0	0	NA	0	0	0	NA	0	0	0	0	NA	0	0	4	1	19
Arrow Flanker 2014	12349	1	"<?xml version=""1.0""?>\n<Clock xmlns:dt=""urn:schemas-microsoft-com:datatypes""><Description dt:dt=""string"">E-Prime Primary Realtime Clock</Description><StartTime><Timestamp dt:dt=""int"">0</Timestamp><DateUtc dt:dt=""string"">2015-06-18T20:05:17Z</DateUtc></StartTime><FrequencyChanges><FrequencyChange><Frequency dt:dt=""r8"">2825693</Frequency><Timestamp dt:dt=""r8"">1837869533436</Timestamp><Current dt:dt=""r8"">0</Current><DateUtc dt:dt=""string"">2015-06-18T20:05:17Z</DateUtc></FrequencyChange></FrequencyChanges></Clock>\n"	Arrow Flanker 2014-12349-1	60.019	1.0.0.100	1	-375935795	Professional	2.0.10.353	2.0.10.353	06-18-2015	6/18/2015 8:05:17 PM	16:05:17	2.0.10.248	3	1	1	1	NA	NA	NA	NA	NA	NA	NA	NA	NA	NA	NA	NA	NA	NA	NA	NA	NA	NA	NA	NA	NA	NA	NA	NA	BlockProc	BlockList	NA	20	{RIGHTARROW}	NA	-100	2339	congruent	NA	NA	NA	NA	NA	NA	NA	NA	NA	NA	NA	NA	NA	NA	NA	NA	NA	NA	NA	NA	NA	NA	TrialProc	TrialList	0	18	211906	16	0	16	209156	1550	1	{RIGHTARROW}	-999999	0	211206	0	{RIGHTARROW}	682	211888	NA	NA	right	rrrrr.bmp	354	0	NA	0	0	0	0	NA	0	0	0	NA	0	0	0	0	NA	0	0	2	1	20
Arrow Flanker 2014	12349	1	"<?xml version=""1.0""?>\n<Clock xmlns:dt=""urn:schemas-microsoft-com:datatypes""><Description dt:dt=""string"">E-Prime Primary Realtime Clock</Description><StartTime><Timestamp dt:dt=""int"">0</Timestamp><DateUtc dt:dt=""string"">2015-06-18T20:05:17Z</DateUtc></StartTime><FrequencyChanges><FrequencyChange><Frequency dt:dt=""r8"">2825693</Frequency><Timestamp dt:dt=""r8"">1837869533436</Timestamp><Current dt:dt=""r8"">0</Current><DateUtc dt:dt=""string"">2015-06-18T20:05:17Z</DateUtc></FrequencyChange></FrequencyChanges></Clock>\n"	Arrow Flanker 2014-12349-1	60.019	1.0.0.100	1	-375935795	Professional	2.0.10.353	2.0.10.353	06-18-2015	6/18/2015 8:05:17 PM	16:05:17	2.0.10.248	3	1	1	1	NA	NA	NA	NA	NA	NA	NA	NA	NA	NA	NA	NA	NA	NA	NA	NA	NA	NA	NA	NA	NA	NA	NA	NA	BlockProc	BlockList	NA	21	{LEFTARROW}	NA	-100	1928	neutral	NA	NA	NA	NA	NA	NA	NA	NA	NA	NA	NA	NA	NA	NA	NA	NA	NA	NA	NA	NA	NA	NA	TrialProc	TrialList	1	7	214871	17	0	17	212439	1366	1	{LEFTARROW}	-999999	0	214305	0	{LEFTARROW}	559	214864	NA	NA	left	ooloo.bmp	354	0	NA	0	0	0	0	NA	0	0	0	NA	0	0	0	0	NA	0	0	5	1	21
Arrow Flanker 2014	12349	1	"<?xml version=""1.0""?>\n<Clock xmlns:dt=""urn:schemas-microsoft-com:datatypes""><Description dt:dt=""string"">E-Prime Primary Realtime Clock</Description><StartTime><Timestamp dt:dt=""int"">0</Timestamp><DateUtc dt:dt=""string"">2015-06-18T20:05:17Z</DateUtc></StartTime><FrequencyChanges><FrequencyChange><Frequency dt:dt=""r8"">2825693</Frequency><Timestamp dt:dt=""r8"">1837869533436</Timestamp><Current dt:dt=""r8"">0</Current><DateUtc dt:dt=""string"">2015-06-18T20:05:17Z</DateUtc></FrequencyChange></FrequencyChanges></Clock>\n"	Arrow Flanker 2014-12349-1	60.019	1.0.0.100	1	-375935795	Professional	2.0.10.353	2.0.10.353	06-18-2015	6/18/2015 8:05:17 PM	16:05:17	2.0.10.248	3	1	1	1	NA	NA	NA	NA	NA	NA	NA	NA	NA	NA	NA	NA	NA	NA	NA	NA	NA	NA	NA	NA	NA	NA	NA	NA	BlockProc	BlockList	NA	22	{RIGHTARROW}	NA	-100	1684	neutral	NA	NA	NA	NA	NA	NA	NA	NA	NA	NA	NA	NA	NA	NA	NA	NA	NA	NA	NA	NA	4	2	TrialProc	TrialList	0	17	217937	17	0	17	215405	1283	1	{RIGHTARROW}	-999999	0	217204	0	{RIGHTARROW}	715	217919	NA	NA	right	ooroo.bmp	354	0	NA	-999999	16	218470	0	1	6045	224515	0	NA	-999999	19	224535	0	1	2908	227443	6	1	22
Arrow Flanker 2014	12349	1	"<?xml version=""1.0""?>\n<Clock xmlns:dt=""urn:schemas-microsoft-com:datatypes""><Description dt:dt=""string"">E-Prime Primary Realtime Clock</Description><StartTime><Timestamp dt:dt=""int"">0</Timestamp><DateUtc dt:dt=""string"">2015-06-18T20:05:17Z</DateUtc></StartTime><FrequencyChanges><FrequencyChange><Frequency dt:dt=""r8"">2825693</Frequency><Timestamp dt:dt=""r8"">1837869533436</Timestamp><Current dt:dt=""r8"">0</Current><DateUtc dt:dt=""string"">2015-06-18T20:05:17Z</DateUtc></FrequencyChange></FrequencyChanges></Clock>\n"	Arrow Flanker 2014-12349-1	60.019	1.0.0.100	1	-375935795	Professional	2.0.10.353	2.0.10.353	06-18-2015	6/18/2015 8:05:17 PM	16:05:17	2.0.10.248	3	1	1	1	NA	NA	NA	NA	NA	NA	NA	NA	NA	NA	NA	NA	NA	NA	NA	NA	NA	NA	NA	NA	NA	NA	NA	NA	BlockProc	BlockList	NA	23	{LEFTARROW}	NA	-100	2381	neutral	NA	NA	NA	NA	NA	NA	NA	NA	NA	NA	NA	NA	NA	NA	NA	NA	NA	NA	NA	NA	NA	NA	TrialProc	TrialList	1	14	231949	17	0	23	228950	1233	1	{LEFTARROW}	-999999	0	230683	0	{LEFTARROW}	1252	231935	NA	NA	left	ooloo.bmp	354	0	NA	0	0	0	0	NA	0	0	0	NA	0	0	0	0	NA	0	0	5	1	23
Arrow Flanker 2014	12349	1	"<?xml version=""1.0""?>\n<Clock xmlns:dt=""urn:schemas-microsoft-com:datatypes""><Description dt:dt=""string"">E-Prime Primary Realtime Clock</Description><StartTime><Timestamp dt:dt=""int"">0</Timestamp><DateUtc dt:dt=""string"">2015-06-18T20:05:17Z</DateUtc></StartTime><FrequencyChanges><FrequencyChange><Frequency dt:dt=""r8"">2825693</Frequency><Timestamp dt:dt=""r8"">1837869533436</Timestamp><Current dt:dt=""r8"">0</Current><DateUtc dt:dt=""string"">2015-06-18T20:05:17Z</DateUtc></FrequencyChange></FrequencyChanges></Clock>\n"	Arrow Flanker 2014-12349-1	60.019	1.0.0.100	1	-375935795	Professional	2.0.10.353	2.0.10.353	06-18-2015	6/18/2015 8:05:17 PM	16:05:17	2.0.10.248	3	1	1	1	NA	NA	NA	NA	NA	NA	NA	NA	NA	NA	NA	NA	NA	NA	NA	NA	NA	NA	NA	NA	NA	NA	NA	NA	BlockProc	BlockList	NA	24	{LEFTARROW}	NA	-100	1449	congruent	NA	NA	NA	NA	NA	NA	NA	NA	NA	NA	NA	NA	NA	NA	NA	NA	NA	NA	NA	NA	NA	NA	TrialProc	TrialList	0	6	234549	16	0	17	232483	916	1	{LEFTARROW}	-999999	0	233899	0	{LEFTARROW}	643	234542	NA	NA	left	lllll.bmp	354	0	NA	0	0	0	0	NA	0	0	0	NA	0	0	0	0	NA	0	0	1	1	24
Arrow Flanker 2014	12349	1	"<?xml version=""1.0""?>\n<Clock xmlns:dt=""urn:schemas-microsoft-com:datatypes""><Description dt:dt=""string"">E-Prime Primary Realtime Clock</Description><StartTime><Timestamp dt:dt=""int"">0</Timestamp><DateUtc dt:dt=""string"">2015-06-18T20:05:17Z</DateUtc></StartTime><FrequencyChanges><FrequencyChange><Frequency dt:dt=""r8"">2825693</Frequency><Timestamp dt:dt=""r8"">1837869533436</Timestamp><Current dt:dt=""r8"">0</Current><DateUtc dt:dt=""string"">2015-06-18T20:05:17Z</DateUtc></FrequencyChange></FrequencyChanges></Clock>\n"	Arrow Flanker 2014-12349-1	60.019	1.0.0.100	1	-375935795	Professional	2.0.10.353	2.0.10.353	06-18-2015	6/18/2015 8:05:17 PM	16:05:17	2.0.10.248	3	1	1	1	NA	NA	NA	NA	NA	NA	NA	NA	NA	NA	NA	NA	NA	NA	NA	NA	NA	NA	NA	NA	NA	NA	NA	NA	BlockProc	BlockList	NA	25	{RIGHTARROW}	NA	-100	1763	congruent	NA	NA	NA	NA	NA	NA	NA	NA	NA	NA	NA	NA	NA	NA	NA	NA	NA	NA	NA	NA	NA	NA	TrialProc	TrialList	0	16	236798	17	0	17	235082	683	1	{RIGHTARROW}	-999999	0	236265	0	{RIGHTARROW}	517	236782	NA	NA	right	rrrrr.bmp	354	0	NA	0	0	0	0	NA	0	0	0	NA	0	0	0	0	NA	0	0	2	1	25
Arrow Flanker 2014	12349	1	"<?xml version=""1.0""?>\n<Clock xmlns:dt=""urn:schemas-microsoft-com:datatypes""><Description dt:dt=""string"">E-Prime Primary Realtime Clock</Description><StartTime><Timestamp dt:dt=""int"">0</Timestamp><DateUtc dt:dt=""string"">2015-06-18T20:05:17Z</DateUtc></StartTime><FrequencyChanges><FrequencyChange><Frequency dt:dt=""r8"">2825693</Frequency><Timestamp dt:dt=""r8"">1837869533436</Timestamp><Current dt:dt=""r8"">0</Current><DateUtc dt:dt=""string"">2015-06-18T20:05:17Z</DateUtc></FrequencyChange></FrequencyChanges></Clock>\n"	Arrow Flanker 2014-12349-1	60.019	1.0.0.100	1	-375935795	Professional	2.0.10.353	2.0.10.353	06-18-2015	6/18/2015 8:05:17 PM	16:05:17	2.0.10.248	3	1	1	1	NA	NA	NA	NA	NA	NA	NA	NA	NA	NA	NA	NA	NA	NA	NA	NA	NA	NA	NA	NA	NA	NA	NA	NA	BlockProc	BlockList	NA	26	{RIGHTARROW}	NA	-100	1547	incongruent	NA	NA	NA	NA	NA	NA	NA	NA	NA	NA	NA	NA	NA	NA	NA	NA	NA	NA	NA	NA	NA	NA	TrialProc	TrialList	0	14	239564	16	0	16	237331	0	1	{RIGHTARROW}	-999999	0	238881	0	{RIGHTARROW}	669	239550	NA	NA	right	llrll.bmp	354	0	NA	0	0	0	0	NA	0	0	0	NA	0	0	0	0	NA	0	0	4	1	26
Arrow Flanker 2014	12349	1	"<?xml version=""1.0""?>\n<Clock xmlns:dt=""urn:schemas-microsoft-com:datatypes""><Description dt:dt=""string"">E-Prime Primary Realtime Clock</Description><StartTime><Timestamp dt:dt=""int"">0</Timestamp><DateUtc dt:dt=""string"">2015-06-18T20:05:17Z</DateUtc></StartTime><FrequencyChanges><FrequencyChange><Frequency dt:dt=""r8"">2825693</Frequency><Timestamp dt:dt=""r8"">1837869533436</Timestamp><Current dt:dt=""r8"">0</Current><DateUtc dt:dt=""string"">2015-06-18T20:05:17Z</DateUtc></FrequencyChange></FrequencyChanges></Clock>\n"	Arrow Flanker 2014-12349-1	60.019	1.0.0.100	1	-375935795	Professional	2.0.10.353	2.0.10.353	06-18-2015	6/18/2015 8:05:17 PM	16:05:17	2.0.10.248	3	1	1	1	NA	NA	NA	NA	NA	NA	NA	NA	NA	NA	NA	NA	NA	NA	NA	NA	NA	NA	NA	NA	NA	NA	NA	NA	BlockProc	BlockList	NA	27	{RIGHTARROW}	NA	-100	2298	incongruent	NA	NA	NA	NA	NA	NA	NA	NA	NA	NA	NA	NA	NA	NA	NA	NA	NA	NA	NA	NA	NA	NA	TrialProc	TrialList	0	20	242546	17	0	17	240097	0	1	{RIGHTARROW}	-999999	16	241913	0	{RIGHTARROW}	613	242526	NA	NA	right	llrll.bmp	354	0	NA	0	0	0	0	NA	0	0	0	NA	0	0	0	0	NA	0	0	4	1	27
Arrow Flanker 2014	12349	1	"<?xml version=""1.0""?>\n<Clock xmlns:dt=""urn:schemas-microsoft-com:datatypes""><Description dt:dt=""string"">E-Prime Primary Realtime Clock</Description><StartTime><Timestamp dt:dt=""int"">0</Timestamp><DateUtc dt:dt=""string"">2015-06-18T20:05:17Z</DateUtc></StartTime><FrequencyChanges><FrequencyChange><Frequency dt:dt=""r8"">2825693</Frequency><Timestamp dt:dt=""r8"">1837869533436</Timestamp><Current dt:dt=""r8"">0</Current><DateUtc dt:dt=""string"">2015-06-18T20:05:17Z</DateUtc></FrequencyChange></FrequencyChanges></Clock>\n"	Arrow Flanker 2014-12349-1	60.019	1.0.0.100	1	-375935795	Professional	2.0.10.353	2.0.10.353	06-18-2015	6/18/2015 8:05:17 PM	16:05:17	2.0.10.248	3	1	1	1	NA	NA	NA	NA	NA	NA	NA	NA	NA	NA	NA	NA	NA	NA	NA	NA	NA	NA	NA	NA	NA	NA	NA	NA	BlockProc	BlockList	NA	28	{LEFTARROW}	NA	-100	865	congruent	NA	NA	NA	NA	NA	NA	NA	NA	NA	NA	NA	NA	NA	NA	NA	NA	NA	NA	NA	NA	NA	NA	TrialProc	TrialList	0	18	244912	17	0	16	243079	0	1	{LEFTARROW}	-999999	0	244262	0	{LEFTARROW}	632	244894	NA	NA	left	lllll.bmp	354	0	NA	0	0	0	0	NA	0	0	0	NA	0	0	0	0	NA	0	0	1	1	28
Arrow Flanker 2014	12349	1	"<?xml version=""1.0""?>\n<Clock xmlns:dt=""urn:schemas-microsoft-com:datatypes""><Description dt:dt=""string"">E-Prime Primary Realtime Clock</Description><StartTime><Timestamp dt:dt=""int"">0</Timestamp><DateUtc dt:dt=""string"">2015-06-18T20:05:17Z</DateUtc></StartTime><FrequencyChanges><FrequencyChange><Frequency dt:dt=""r8"">2825693</Frequency><Timestamp dt:dt=""r8"">1837869533436</Timestamp><Current dt:dt=""r8"">0</Current><DateUtc dt:dt=""string"">2015-06-18T20:05:17Z</DateUtc></FrequencyChange></FrequencyChanges></Clock>\n"	Arrow Flanker 2014-12349-1	60.019	1.0.0.100	1	-375935795	Professional	2.0.10.353	2.0.10.353	06-18-2015	6/18/2015 8:05:17 PM	16:05:17	2.0.10.248	3	1	1	1	NA	NA	NA	NA	NA	NA	NA	NA	NA	NA	NA	NA	NA	NA	NA	NA	NA	NA	NA	NA	NA	NA	NA	NA	BlockProc	BlockList	NA	29	{LEFTARROW}	NA	-100	1118	neutral	NA	NA	NA	NA	NA	NA	NA	NA	NA	NA	NA	NA	NA	NA	NA	NA	NA	NA	NA	NA	NA	NA	TrialProc	TrialList	1	13	247611	17	0	16	245445	0	1	{LEFTARROW}	-999999	0	247061	0	{LEFTARROW}	536	247597	NA	NA	left	ooloo.bmp	354	0	NA	0	0	0	0	NA	0	0	0	NA	0	0	0	0	NA	0	0	5	1	29
Arrow Flanker 2014	12349	1	"<?xml version=""1.0""?>\n<Clock xmlns:dt=""urn:schemas-microsoft-com:datatypes""><Description dt:dt=""string"">E-Prime Primary Realtime Clock</Description><StartTime><Timestamp dt:dt=""int"">0</Timestamp><DateUtc dt:dt=""string"">2015-06-18T20:05:17Z</DateUtc></StartTime><FrequencyChanges><FrequencyChange><Frequency dt:dt=""r8"">2825693</Frequency><Timestamp dt:dt=""r8"">1837869533436</Timestamp><Current dt:dt=""r8"">0</Current><DateUtc dt:dt=""string"">2015-06-18T20:05:17Z</DateUtc></FrequencyChange></FrequencyChanges></Clock>\n"	Arrow Flanker 2014-12349-1	60.019	1.0.0.100	1	-375935795	Professional	2.0.10.353	2.0.10.353	06-18-2015	6/18/2015 8:05:17 PM	16:05:17	2.0.10.248	3	1	1	1	NA	NA	NA	NA	NA	NA	NA	NA	NA	NA	NA	NA	NA	NA	NA	NA	NA	NA	NA	NA	NA	NA	NA	NA	BlockProc	BlockList	NA	30	{RIGHTARROW}	NA	-100	784	neutral	NA	NA	NA	NA	NA	NA	NA	NA	NA	NA	NA	NA	NA	NA	NA	NA	NA	NA	NA	NA	NA	NA	TrialProc	TrialList	1	7	249860	17	0	16	248144	417	1	{RIGHTARROW}	-999999	0	249061	0	{RIGHTARROW}	792	249853	NA	NA	right	ooroo.bmp	354	0	NA	0	0	0	0	NA	0	0	0	NA	0	0	0	0	NA	0	0	6	1	30
Arrow Flanker 2014	12349	1	"<?xml version=""1.0""?>\n<Clock xmlns:dt=""urn:schemas-microsoft-com:datatypes""><Description dt:dt=""string"">E-Prime Primary Realtime Clock</Description><StartTime><Timestamp dt:dt=""int"">0</Timestamp><DateUtc dt:dt=""string"">2015-06-18T20:05:17Z</DateUtc></StartTime><FrequencyChanges><FrequencyChange><Frequency dt:dt=""r8"">2825693</Frequency><Timestamp dt:dt=""r8"">1837869533436</Timestamp><Current dt:dt=""r8"">0</Current><DateUtc dt:dt=""string"">2015-06-18T20:05:17Z</DateUtc></FrequencyChange></FrequencyChanges></Clock>\n"	Arrow Flanker 2014-12349-1	60.019	1.0.0.100	1	-375935795	Professional	2.0.10.353	2.0.10.353	06-18-2015	6/18/2015 8:05:17 PM	16:05:17	2.0.10.248	3	1	1	1	NA	NA	NA	NA	NA	NA	NA	NA	NA	NA	NA	NA	NA	NA	NA	NA	NA	NA	NA	NA	NA	NA	NA	NA	BlockProc	BlockList	NA	31	{RIGHTARROW}	NA	-100	2279	neutral	NA	NA	NA	NA	NA	NA	NA	NA	NA	NA	NA	NA	NA	NA	NA	NA	NA	NA	NA	NA	NA	NA	TrialProc	TrialList	1	9	253126	17	0	17	250394	0	1	{RIGHTARROW}	-999999	16	252393	0	{RIGHTARROW}	724	253117	NA	NA	right	ooroo.bmp	354	0	NA	0	0	0	0	NA	0	0	0	NA	0	0	0	0	NA	0	0	6	1	31
Arrow Flanker 2014	12349	1	"<?xml version=""1.0""?>\n<Clock xmlns:dt=""urn:schemas-microsoft-com:datatypes""><Description dt:dt=""string"">E-Prime Primary Realtime Clock</Description><StartTime><Timestamp dt:dt=""int"">0</Timestamp><DateUtc dt:dt=""string"">2015-06-18T20:05:17Z</DateUtc></StartTime><FrequencyChanges><FrequencyChange><Frequency dt:dt=""r8"">2825693</Frequency><Timestamp dt:dt=""r8"">1837869533436</Timestamp><Current dt:dt=""r8"">0</Current><DateUtc dt:dt=""string"">2015-06-18T20:05:17Z</DateUtc></FrequencyChange></FrequencyChanges></Clock>\n"	Arrow Flanker 2014-12349-1	60.019	1.0.0.100	1	-375935795	Professional	2.0.10.353	2.0.10.353	06-18-2015	6/18/2015 8:05:17 PM	16:05:17	2.0.10.248	3	1	1	1	NA	NA	NA	NA	NA	NA	NA	NA	NA	NA	NA	NA	NA	NA	NA	NA	NA	NA	NA	NA	NA	NA	NA	NA	BlockProc	BlockList	NA	32	{LEFTARROW}	NA	-100	574	incongruent	NA	NA	NA	NA	NA	NA	NA	NA	NA	NA	NA	NA	NA	NA	NA	NA	NA	NA	NA	NA	NA	NA	TrialProc	TrialList	0	17	255326	16	0	16	253659	0	1	{LEFTARROW}	-999999	0	254659	0	{LEFTARROW}	650	255309	NA	NA	left	rrlrr.bmp	354	0	NA	0	0	0	0	NA	0	0	0	NA	0	0	0	0	NA	0	0	3	1	32
Arrow Flanker 2014	12349	1	"<?xml version=""1.0""?>\n<Clock xmlns:dt=""urn:schemas-microsoft-com:datatypes""><Description dt:dt=""string"">E-Prime Primary Realtime Clock</Description><StartTime><Timestamp dt:dt=""int"">0</Timestamp><DateUtc dt:dt=""string"">2015-06-18T20:05:17Z</DateUtc></StartTime><FrequencyChanges><FrequencyChange><Frequency dt:dt=""r8"">2825693</Frequency><Timestamp dt:dt=""r8"">1837869533436</Timestamp><Current dt:dt=""r8"">0</Current><DateUtc dt:dt=""string"">2015-06-18T20:05:17Z</DateUtc></FrequencyChange></FrequencyChanges></Clock>\n"	Arrow Flanker 2014-12349-1	60.019	1.0.0.100	1	-375935795	Professional	2.0.10.353	2.0.10.353	06-18-2015	6/18/2015 8:05:17 PM	16:05:17	2.0.10.248	3	1	1	1	NA	NA	NA	NA	NA	NA	NA	NA	NA	NA	NA	NA	NA	NA	NA	NA	NA	NA	NA	NA	NA	NA	NA	NA	BlockProc	BlockList	NA	33	{LEFTARROW}	NA	-100	982	incongruent	NA	NA	NA	NA	NA	NA	NA	NA	NA	NA	NA	NA	NA	NA	NA	NA	NA	NA	NA	NA	NA	NA	TrialProc	TrialList	1	18	257791	17	0	17	255859	0	1	{LEFTARROW}	-999999	0	257108	0	{LEFTARROW}	665	257773	NA	NA	left	rrlrr.bmp	354	0	NA	0	0	0	0	NA	0	0	0	NA	0	0	0	0	NA	0	0	3	1	33
Arrow Flanker 2014	12349	1	"<?xml version=""1.0""?>\n<Clock xmlns:dt=""urn:schemas-microsoft-com:datatypes""><Description dt:dt=""string"">E-Prime Primary Realtime Clock</Description><StartTime><Timestamp dt:dt=""int"">0</Timestamp><DateUtc dt:dt=""string"">2015-06-18T20:05:17Z</DateUtc></StartTime><FrequencyChanges><FrequencyChange><Frequency dt:dt=""r8"">2825693</Frequency><Timestamp dt:dt=""r8"">1837869533436</Timestamp><Current dt:dt=""r8"">0</Current><DateUtc dt:dt=""string"">2015-06-18T20:05:17Z</DateUtc></FrequencyChange></FrequencyChanges></Clock>\n"	Arrow Flanker 2014-12349-1	60.019	1.0.0.100	1	-375935795	Professional	2.0.10.353	2.0.10.353	06-18-2015	6/18/2015 8:05:17 PM	16:05:17	2.0.10.248	3	1	1	1	NA	NA	NA	NA	NA	NA	NA	NA	NA	NA	NA	NA	NA	NA	NA	NA	NA	NA	NA	NA	NA	NA	NA	NA	BlockProc	BlockList	NA	34	{LEFTARROW}	NA	-100	999	congruent	NA	NA	NA	NA	NA	NA	NA	NA	NA	NA	NA	NA	NA	NA	NA	NA	NA	NA	NA	NA	NA	NA	TrialProc	TrialList	1	8	259957	17	0	17	258325	0	1	{LEFTARROW}	-999999	0	259391	0	{LEFTARROW}	558	259949	NA	NA	left	lllll.bmp	354	0	NA	0	0	0	0	NA	0	0	0	NA	0	0	0	0	NA	0	0	1	1	34
Arrow Flanker 2014	12349	1	"<?xml version=""1.0""?>\n<Clock xmlns:dt=""urn:schemas-microsoft-com:datatypes""><Description dt:dt=""string"">E-Prime Primary Realtime Clock</Description><StartTime><Timestamp dt:dt=""int"">0</Timestamp><DateUtc dt:dt=""string"">2015-06-18T20:05:17Z</DateUtc></StartTime><FrequencyChanges><FrequencyChange><Frequency dt:dt=""r8"">2825693</Frequency><Timestamp dt:dt=""r8"">1837869533436</Timestamp><Current dt:dt=""r8"">0</Current><DateUtc dt:dt=""string"">2015-06-18T20:05:17Z</DateUtc></FrequencyChange></FrequencyChanges></Clock>\n"	Arrow Flanker 2014-12349-1	60.019	1.0.0.100	1	-375935795	Professional	2.0.10.353	2.0.10.353	06-18-2015	6/18/2015 8:05:17 PM	16:05:17	2.0.10.248	3	1	1	1	NA	NA	NA	NA	NA	NA	NA	NA	NA	NA	NA	NA	NA	NA	NA	NA	NA	NA	NA	NA	NA	NA	NA	NA	BlockProc	BlockList	NA	35	{RIGHTARROW}	NA	-100	884	congruent	NA	NA	NA	NA	NA	NA	NA	NA	NA	NA	NA	NA	NA	NA	NA	NA	NA	NA	NA	NA	NA	NA	TrialProc	TrialList	0	5	262690	17	0	17	260491	0	1	{RIGHTARROW}	-999999	0	261690	0	{RIGHTARROW}	994	262684	NA	NA	right	rrrrr.bmp	354	0	NA	0	0	0	0	NA	0	0	0	NA	0	0	0	0	NA	0	0	2	1	35
Arrow Flanker 2014	12349	1	"<?xml version=""1.0""?>\n<Clock xmlns:dt=""urn:schemas-microsoft-com:datatypes""><Description dt:dt=""string"">E-Prime Primary Realtime Clock</Description><StartTime><Timestamp dt:dt=""int"">0</Timestamp><DateUtc dt:dt=""string"">2015-06-18T20:05:17Z</DateUtc></StartTime><FrequencyChanges><FrequencyChange><Frequency dt:dt=""r8"">2825693</Frequency><Timestamp dt:dt=""r8"">1837869533436</Timestamp><Current dt:dt=""r8"">0</Current><DateUtc dt:dt=""string"">2015-06-18T20:05:17Z</DateUtc></FrequencyChange></FrequencyChanges></Clock>\n"	Arrow Flanker 2014-12349-1	60.019	1.0.0.100	1	-375935795	Professional	2.0.10.353	2.0.10.353	06-18-2015	6/18/2015 8:05:17 PM	16:05:17	2.0.10.248	3	1	1	1	NA	NA	NA	NA	NA	NA	NA	NA	NA	NA	NA	NA	NA	NA	NA	NA	NA	NA	NA	NA	NA	NA	NA	NA	BlockProc	BlockList	NA	36	{RIGHTARROW}	NA	-100	1369	congruent	NA	NA	NA	NA	NA	NA	NA	NA	NA	NA	NA	NA	NA	NA	NA	NA	NA	NA	NA	NA	NA	NA	TrialProc	TrialList	0	18	265806	16	0	16	263223	0	1	{RIGHTARROW}	-999999	0	265039	0	{RIGHTARROW}	749	265788	NA	NA	right	rrrrr.bmp	354	0	NA	0	0	0	0	NA	0	0	0	NA	0	0	0	0	NA	0	0	2	1	36
Arrow Flanker 2014	12349	1	"<?xml version=""1.0""?>\n<Clock xmlns:dt=""urn:schemas-microsoft-com:datatypes""><Description dt:dt=""string"">E-Prime Primary Realtime Clock</Description><StartTime><Timestamp dt:dt=""int"">0</Timestamp><DateUtc dt:dt=""string"">2015-06-18T20:05:17Z</DateUtc></StartTime><FrequencyChanges><FrequencyChange><Frequency dt:dt=""r8"">2825693</Frequency><Timestamp dt:dt=""r8"">1837869533436</Timestamp><Current dt:dt=""r8"">0</Current><DateUtc dt:dt=""string"">2015-06-18T20:05:17Z</DateUtc></FrequencyChange></FrequencyChanges></Clock>\n"	Arrow Flanker 2014-12349-1	60.019	1.0.0.100	1	-375935795	Professional	2.0.10.353	2.0.10.353	06-18-2015	6/18/2015 8:05:17 PM	16:05:17	2.0.10.248	3	1	1	1	NA	NA	NA	NA	NA	NA	NA	NA	NA	NA	NA	NA	NA	NA	NA	NA	NA	NA	NA	NA	NA	NA	NA	NA	BlockProc	BlockList	NA	37	{LEFTARROW}	NA	-100	1279	neutral	NA	NA	NA	NA	NA	NA	NA	NA	NA	NA	NA	NA	NA	NA	NA	NA	NA	NA	NA	NA	4	1	TrialProc	TrialList	1	5	268705	16	0	17	266339	0	1	{LEFTARROW}	-999999	0	268005	0	{LEFTARROW}	695	268700	NA	NA	left	ooloo.bmp	354	0	NA	-999999	17	269238	0	1	3322	272560	0	NA	-999999	10	272570	0	1	1302	273872	5	1	37
Arrow Flanker 2014	12349	1	"<?xml version=""1.0""?>\n<Clock xmlns:dt=""urn:schemas-microsoft-com:datatypes""><Description dt:dt=""string"">E-Prime Primary Realtime Clock</Description><StartTime><Timestamp dt:dt=""int"">0</Timestamp><DateUtc dt:dt=""string"">2015-06-18T20:05:17Z</DateUtc></StartTime><FrequencyChanges><FrequencyChange><Frequency dt:dt=""r8"">2825693</Frequency><Timestamp dt:dt=""r8"">1837869533436</Timestamp><Current dt:dt=""r8"">0</Current><DateUtc dt:dt=""string"">2015-06-18T20:05:17Z</DateUtc></FrequencyChange></FrequencyChanges></Clock>\n"	Arrow Flanker 2014-12349-1	60.019	1.0.0.100	1	-375935795	Professional	2.0.10.353	2.0.10.353	06-18-2015	6/18/2015 8:05:17 PM	16:05:17	2.0.10.248	3	1	1	1	NA	NA	NA	NA	NA	NA	NA	NA	NA	NA	NA	NA	NA	NA	NA	NA	NA	NA	NA	NA	NA	NA	NA	NA	BlockProc	BlockList	NA	38	{RIGHTARROW}	NA	-100	1932	congruent	NA	NA	NA	NA	NA	NA	NA	NA	NA	NA	NA	NA	NA	NA	NA	NA	NA	NA	NA	NA	NA	NA	TrialProc	TrialList	1	13	278168	17	0	27	275303	0	1	{RIGHTARROW}	-999999	0	277219	0	{RIGHTARROW}	936	278155	NA	NA	right	rrrrr.bmp	354	0	NA	0	0	0	0	NA	0	0	0	NA	0	0	0	0	NA	0	0	2	1	38
Arrow Flanker 2014	12349	1	"<?xml version=""1.0""?>\n<Clock xmlns:dt=""urn:schemas-microsoft-com:datatypes""><Description dt:dt=""string"">E-Prime Primary Realtime Clock</Description><StartTime><Timestamp dt:dt=""int"">0</Timestamp><DateUtc dt:dt=""string"">2015-06-18T20:05:17Z</DateUtc></StartTime><FrequencyChanges><FrequencyChange><Frequency dt:dt=""r8"">2825693</Frequency><Timestamp dt:dt=""r8"">1837869533436</Timestamp><Current dt:dt=""r8"">0</Current><DateUtc dt:dt=""string"">2015-06-18T20:05:17Z</DateUtc></FrequencyChange></FrequencyChanges></Clock>\n"	Arrow Flanker 2014-12349-1	60.019	1.0.0.100	1	-375935795	Professional	2.0.10.353	2.0.10.353	06-18-2015	6/18/2015 8:05:17 PM	16:05:17	2.0.10.248	3	1	1	1	NA	NA	NA	NA	NA	NA	NA	NA	NA	NA	NA	NA	NA	NA	NA	NA	NA	NA	NA	NA	NA	NA	NA	NA	BlockProc	BlockList	NA	39	{LEFTARROW}	NA	-100	1274	neutral	NA	NA	NA	NA	NA	NA	NA	NA	NA	NA	NA	NA	NA	NA	NA	NA	NA	NA	NA	NA	NA	NA	TrialProc	TrialList	1	15	280634	17	0	17	278702	0	1	{LEFTARROW}	-999999	0	280035	0	{LEFTARROW}	584	280619	NA	NA	left	ooloo.bmp	354	0	NA	0	0	0	0	NA	0	0	0	NA	0	0	0	0	NA	0	0	5	1	39
Arrow Flanker 2014	12349	1	"<?xml version=""1.0""?>\n<Clock xmlns:dt=""urn:schemas-microsoft-com:datatypes""><Description dt:dt=""string"">E-Prime Primary Realtime Clock</Description><StartTime><Timestamp dt:dt=""int"">0</Timestamp><DateUtc dt:dt=""string"">2015-06-18T20:05:17Z</DateUtc></StartTime><FrequencyChanges><FrequencyChange><Frequency dt:dt=""r8"">2825693</Frequency><Timestamp dt:dt=""r8"">1837869533436</Timestamp><Current dt:dt=""r8"">0</Current><DateUtc dt:dt=""string"">2015-06-18T20:05:17Z</DateUtc></FrequencyChange></FrequencyChanges></Clock>\n"	Arrow Flanker 2014-12349-1	60.019	1.0.0.100	1	-375935795	Professional	2.0.10.353	2.0.10.353	06-18-2015	6/18/2015 8:05:17 PM	16:05:17	2.0.10.248	3	1	1	1	NA	NA	NA	NA	NA	NA	NA	NA	NA	NA	NA	NA	NA	NA	NA	NA	NA	NA	NA	NA	NA	NA	NA	NA	BlockProc	BlockList	NA	40	{LEFTARROW}	NA	-100	1077	incongruent	NA	NA	NA	NA	NA	NA	NA	NA	NA	NA	NA	NA	NA	NA	NA	NA	NA	NA	NA	NA	NA	NA	TrialProc	TrialList	0	8	283267	17	0	17	281168	0	1	{LEFTARROW}	-999999	16	282617	0	{LEFTARROW}	642	283259	NA	NA	left	rrlrr.bmp	354	0	NA	0	0	0	0	NA	0	0	0	NA	0	0	0	0	NA	0	0	3	1	40
Arrow Flanker 2014	12349	1	"<?xml version=""1.0""?>\n<Clock xmlns:dt=""urn:schemas-microsoft-com:datatypes""><Description dt:dt=""string"">E-Prime Primary Realtime Clock</Description><StartTime><Timestamp dt:dt=""int"">0</Timestamp><DateUtc dt:dt=""string"">2015-06-18T20:05:17Z</DateUtc></StartTime><FrequencyChanges><FrequencyChange><Frequency dt:dt=""r8"">2825693</Frequency><Timestamp dt:dt=""r8"">1837869533436</Timestamp><Current dt:dt=""r8"">0</Current><DateUtc dt:dt=""string"">2015-06-18T20:05:17Z</DateUtc></FrequencyChange></FrequencyChanges></Clock>\n"	Arrow Flanker 2014-12349-1	60.019	1.0.0.100	1	-375935795	Professional	2.0.10.353	2.0.10.353	06-18-2015	6/18/2015 8:05:17 PM	16:05:17	2.0.10.248	3	1	1	1	NA	NA	NA	NA	NA	NA	NA	NA	NA	NA	NA	NA	NA	NA	NA	NA	NA	NA	NA	NA	NA	NA	NA	NA	BlockProc	BlockList	NA	41	{LEFTARROW}	NA	-100	1702	neutral	NA	NA	NA	NA	NA	NA	NA	NA	NA	NA	NA	NA	NA	NA	NA	NA	NA	NA	NA	NA	NA	NA	TrialProc	TrialList	1	10	286149	17	0	16	283800	0	1	{LEFTARROW}	-999999	0	285566	0	{LEFTARROW}	573	286139	NA	NA	left	ooloo.bmp	354	0	NA	0	0	0	0	NA	0	0	0	NA	0	0	0	0	NA	0	0	5	1	41
Arrow Flanker 2014	12349	1	"<?xml version=""1.0""?>\n<Clock xmlns:dt=""urn:schemas-microsoft-com:datatypes""><Description dt:dt=""string"">E-Prime Primary Realtime Clock</Description><StartTime><Timestamp dt:dt=""int"">0</Timestamp><DateUtc dt:dt=""string"">2015-06-18T20:05:17Z</DateUtc></StartTime><FrequencyChanges><FrequencyChange><Frequency dt:dt=""r8"">2825693</Frequency><Timestamp dt:dt=""r8"">1837869533436</Timestamp><Current dt:dt=""r8"">0</Current><DateUtc dt:dt=""string"">2015-06-18T20:05:17Z</DateUtc></FrequencyChange></FrequencyChanges></Clock>\n"	Arrow Flanker 2014-12349-1	60.019	1.0.0.100	1	-375935795	Professional	2.0.10.353	2.0.10.353	06-18-2015	6/18/2015 8:05:17 PM	16:05:17	2.0.10.248	3	1	1	1	NA	NA	NA	NA	NA	NA	NA	NA	NA	NA	NA	NA	NA	NA	NA	NA	NA	NA	NA	NA	NA	NA	NA	NA	BlockProc	BlockList	NA	42	{RIGHTARROW}	NA	-100	2631	incongruent	NA	NA	NA	NA	NA	NA	NA	NA	NA	NA	NA	NA	NA	NA	NA	NA	NA	NA	NA	NA	NA	NA	TrialProc	TrialList	0	10	289365	17	0	17	286683	0	1	{RIGHTARROW}	-999999	0	288649	0	{RIGHTARROW}	705	289354	NA	NA	right	llrll.bmp	354	0	NA	0	0	0	0	NA	0	0	0	NA	0	0	0	0	NA	0	0	4	1	42
Arrow Flanker 2014	12349	1	"<?xml version=""1.0""?>\n<Clock xmlns:dt=""urn:schemas-microsoft-com:datatypes""><Description dt:dt=""string"">E-Prime Primary Realtime Clock</Description><StartTime><Timestamp dt:dt=""int"">0</Timestamp><DateUtc dt:dt=""string"">2015-06-18T20:05:17Z</DateUtc></StartTime><FrequencyChanges><FrequencyChange><Frequency dt:dt=""r8"">2825693</Frequency><Timestamp dt:dt=""r8"">1837869533436</Timestamp><Current dt:dt=""r8"">0</Current><DateUtc dt:dt=""string"">2015-06-18T20:05:17Z</DateUtc></FrequencyChange></FrequencyChanges></Clock>\n"	Arrow Flanker 2014-12349-1	60.019	1.0.0.100	1	-375935795	Professional	2.0.10.353	2.0.10.353	06-18-2015	6/18/2015 8:05:17 PM	16:05:17	2.0.10.248	3	1	1	1	NA	NA	NA	NA	NA	NA	NA	NA	NA	NA	NA	NA	NA	NA	NA	NA	NA	NA	NA	NA	NA	NA	NA	NA	BlockProc	BlockList	NA	43	{RIGHTARROW}	NA	-100	1086	congruent	NA	NA	NA	NA	NA	NA	NA	NA	NA	NA	NA	NA	NA	NA	NA	NA	NA	NA	NA	NA	NA	NA	TrialProc	TrialList	0	11	291381	17	0	16	289898	417	1	{RIGHTARROW}	-999999	16	290831	0	{RIGHTARROW}	539	291370	NA	NA	right	rrrrr.bmp	354	0	NA	0	0	0	0	NA	0	0	0	NA	0	0	0	0	NA	0	0	2	1	43
Arrow Flanker 2014	12349	1	"<?xml version=""1.0""?>\n<Clock xmlns:dt=""urn:schemas-microsoft-com:datatypes""><Description dt:dt=""string"">E-Prime Primary Realtime Clock</Description><StartTime><Timestamp dt:dt=""int"">0</Timestamp><DateUtc dt:dt=""string"">2015-06-18T20:05:17Z</DateUtc></StartTime><FrequencyChanges><FrequencyChange><Frequency dt:dt=""r8"">2825693</Frequency><Timestamp dt:dt=""r8"">1837869533436</Timestamp><Current dt:dt=""r8"">0</Current><DateUtc dt:dt=""string"">2015-06-18T20:05:17Z</DateUtc></FrequencyChange></FrequencyChanges></Clock>\n"	Arrow Flanker 2014-12349-1	60.019	1.0.0.100	1	-375935795	Professional	2.0.10.353	2.0.10.353	06-18-2015	6/18/2015 8:05:17 PM	16:05:17	2.0.10.248	3	1	1	1	NA	NA	NA	NA	NA	NA	NA	NA	NA	NA	NA	NA	NA	NA	NA	NA	NA	NA	NA	NA	NA	NA	NA	NA	BlockProc	BlockList	NA	44	{RIGHTARROW}	NA	-100	489	incongruent	NA	NA	NA	NA	NA	NA	NA	NA	NA	NA	NA	NA	NA	NA	NA	NA	NA	NA	NA	NA	NA	NA	TrialProc	TrialList	0	12	293414	16	0	16	291914	0	1	{RIGHTARROW}	-999999	0	292831	0	{RIGHTARROW}	571	293402	NA	NA	right	llrll.bmp	354	0	NA	0	0	0	0	NA	0	0	0	NA	0	0	0	0	NA	0	0	4	1	44
Arrow Flanker 2014	12349	1	"<?xml version=""1.0""?>\n<Clock xmlns:dt=""urn:schemas-microsoft-com:datatypes""><Description dt:dt=""string"">E-Prime Primary Realtime Clock</Description><StartTime><Timestamp dt:dt=""int"">0</Timestamp><DateUtc dt:dt=""string"">2015-06-18T20:05:17Z</DateUtc></StartTime><FrequencyChanges><FrequencyChange><Frequency dt:dt=""r8"">2825693</Frequency><Timestamp dt:dt=""r8"">1837869533436</Timestamp><Current dt:dt=""r8"">0</Current><DateUtc dt:dt=""string"">2015-06-18T20:05:17Z</DateUtc></FrequencyChange></FrequencyChanges></Clock>\n"	Arrow Flanker 2014-12349-1	60.019	1.0.0.100	1	-375935795	Professional	2.0.10.353	2.0.10.353	06-18-2015	6/18/2015 8:05:17 PM	16:05:17	2.0.10.248	3	1	1	1	NA	NA	NA	NA	NA	NA	NA	NA	NA	NA	NA	NA	NA	NA	NA	NA	NA	NA	NA	NA	NA	NA	NA	NA	BlockProc	BlockList	NA	45	{LEFTARROW}	NA	-100	1888	congruent	NA	NA	NA	NA	NA	NA	NA	NA	NA	NA	NA	NA	NA	NA	NA	NA	NA	NA	NA	NA	NA	NA	TrialProc	TrialList	1	6	296096	17	0	17	293947	0	1	{LEFTARROW}	-999999	16	295513	0	{LEFTARROW}	577	296090	NA	NA	left	lllll.bmp	354	0	NA	0	0	0	0	NA	0	0	0	NA	0	0	0	0	NA	0	0	1	1	45
Arrow Flanker 2014	12349	1	"<?xml version=""1.0""?>\n<Clock xmlns:dt=""urn:schemas-microsoft-com:datatypes""><Description dt:dt=""string"">E-Prime Primary Realtime Clock</Description><StartTime><Timestamp dt:dt=""int"">0</Timestamp><DateUtc dt:dt=""string"">2015-06-18T20:05:17Z</DateUtc></StartTime><FrequencyChanges><FrequencyChange><Frequency dt:dt=""r8"">2825693</Frequency><Timestamp dt:dt=""r8"">1837869533436</Timestamp><Current dt:dt=""r8"">0</Current><DateUtc dt:dt=""string"">2015-06-18T20:05:17Z</DateUtc></FrequencyChange></FrequencyChanges></Clock>\n"	Arrow Flanker 2014-12349-1	60.019	1.0.0.100	1	-375935795	Professional	2.0.10.353	2.0.10.353	06-18-2015	6/18/2015 8:05:17 PM	16:05:17	2.0.10.248	3	1	1	1	NA	NA	NA	NA	NA	NA	NA	NA	NA	NA	NA	NA	NA	NA	NA	NA	NA	NA	NA	NA	NA	NA	NA	NA	BlockProc	BlockList	NA	46	{RIGHTARROW}	NA	-100	1790	congruent	NA	NA	NA	NA	NA	NA	NA	NA	NA	NA	NA	NA	NA	NA	NA	NA	NA	NA	NA	NA	NA	NA	TrialProc	TrialList	0	10	298612	17	0	16	296629	0	1	{RIGHTARROW}	-999999	0	298029	0	{RIGHTARROW}	573	298602	NA	NA	right	rrrrr.bmp	354	0	NA	0	0	0	0	NA	0	0	0	NA	0	0	0	0	NA	0	0	2	1	46
Arrow Flanker 2014	12349	1	"<?xml version=""1.0""?>\n<Clock xmlns:dt=""urn:schemas-microsoft-com:datatypes""><Description dt:dt=""string"">E-Prime Primary Realtime Clock</Description><StartTime><Timestamp dt:dt=""int"">0</Timestamp><DateUtc dt:dt=""string"">2015-06-18T20:05:17Z</DateUtc></StartTime><FrequencyChanges><FrequencyChange><Frequency dt:dt=""r8"">2825693</Frequency><Timestamp dt:dt=""r8"">1837869533436</Timestamp><Current dt:dt=""r8"">0</Current><DateUtc dt:dt=""string"">2015-06-18T20:05:17Z</DateUtc></FrequencyChange></FrequencyChanges></Clock>\n"	Arrow Flanker 2014-12349-1	60.019	1.0.0.100	1	-375935795	Professional	2.0.10.353	2.0.10.353	06-18-2015	6/18/2015 8:05:17 PM	16:05:17	2.0.10.248	3	1	1	1	NA	NA	NA	NA	NA	NA	NA	NA	NA	NA	NA	NA	NA	NA	NA	NA	NA	NA	NA	NA	NA	NA	NA	NA	BlockProc	BlockList	NA	47	{LEFTARROW}	NA	-100	1485	neutral	NA	NA	NA	NA	NA	NA	NA	NA	NA	NA	NA	NA	NA	NA	NA	NA	NA	NA	NA	NA	NA	NA	TrialProc	TrialList	1	16	301594	17	0	16	299145	0	1	{LEFTARROW}	-999999	0	300995	0	{LEFTARROW}	582	301577	NA	NA	left	ooloo.bmp	354	0	NA	0	0	0	0	NA	0	0	0	NA	0	0	0	0	NA	0	0	5	1	47
Arrow Flanker 2014	12349	1	"<?xml version=""1.0""?>\n<Clock xmlns:dt=""urn:schemas-microsoft-com:datatypes""><Description dt:dt=""string"">E-Prime Primary Realtime Clock</Description><StartTime><Timestamp dt:dt=""int"">0</Timestamp><DateUtc dt:dt=""string"">2015-06-18T20:05:17Z</DateUtc></StartTime><FrequencyChanges><FrequencyChange><Frequency dt:dt=""r8"">2825693</Frequency><Timestamp dt:dt=""r8"">1837869533436</Timestamp><Current dt:dt=""r8"">0</Current><DateUtc dt:dt=""string"">2015-06-18T20:05:17Z</DateUtc></FrequencyChange></FrequencyChanges></Clock>\n"	Arrow Flanker 2014-12349-1	60.019	1.0.0.100	1	-375935795	Professional	2.0.10.353	2.0.10.353	06-18-2015	6/18/2015 8:05:17 PM	16:05:17	2.0.10.248	3	1	1	1	NA	NA	NA	NA	NA	NA	NA	NA	NA	NA	NA	NA	NA	NA	NA	NA	NA	NA	NA	NA	NA	NA	NA	NA	BlockProc	BlockList	NA	48	{RIGHTARROW}	NA	-100	1556	neutral	NA	NA	NA	NA	NA	NA	NA	NA	NA	NA	NA	NA	NA	NA	NA	NA	NA	NA	NA	NA	NA	NA	TrialProc	TrialList	1	20	304510	17	0	17	302128	0	1	{RIGHTARROW}	-999999	0	303777	0	{RIGHTARROW}	712	304489	NA	NA	right	ooroo.bmp	354	0	NA	0	0	0	0	NA	0	0	0	NA	0	0	0	0	NA	0	0	6	1	48
Arrow Flanker 2014	12349	1	"<?xml version=""1.0""?>\n<Clock xmlns:dt=""urn:schemas-microsoft-com:datatypes""><Description dt:dt=""string"">E-Prime Primary Realtime Clock</Description><StartTime><Timestamp dt:dt=""int"">0</Timestamp><DateUtc dt:dt=""string"">2015-06-18T20:05:17Z</DateUtc></StartTime><FrequencyChanges><FrequencyChange><Frequency dt:dt=""r8"">2825693</Frequency><Timestamp dt:dt=""r8"">1837869533436</Timestamp><Current dt:dt=""r8"">0</Current><DateUtc dt:dt=""string"">2015-06-18T20:05:17Z</DateUtc></FrequencyChange></FrequencyChanges></Clock>\n"	Arrow Flanker 2014-12349-1	60.019	1.0.0.100	1	-375935795	Professional	2.0.10.353	2.0.10.353	06-18-2015	6/18/2015 8:05:17 PM	16:05:17	2.0.10.248	3	1	1	1	NA	NA	NA	NA	NA	NA	NA	NA	NA	NA	NA	NA	NA	NA	NA	NA	NA	NA	NA	NA	NA	NA	NA	NA	BlockProc	BlockList	NA	49	{LEFTARROW}	NA	-100	1063	congruent	NA	NA	NA	NA	NA	NA	NA	NA	NA	NA	NA	NA	NA	NA	NA	NA	NA	NA	NA	NA	NA	NA	TrialProc	TrialList	0	8	306593	17	0	16	305043	0	1	{LEFTARROW}	-999999	0	306043	0	{LEFTARROW}	542	306585	NA	NA	left	lllll.bmp	354	0	NA	0	0	0	0	NA	0	0	0	NA	0	0	0	0	NA	0	0	1	1	49
Arrow Flanker 2014	12349	1	"<?xml version=""1.0""?>\n<Clock xmlns:dt=""urn:schemas-microsoft-com:datatypes""><Description dt:dt=""string"">E-Prime Primary Realtime Clock</Description><StartTime><Timestamp dt:dt=""int"">0</Timestamp><DateUtc dt:dt=""string"">2015-06-18T20:05:17Z</DateUtc></StartTime><FrequencyChanges><FrequencyChange><Frequency dt:dt=""r8"">2825693</Frequency><Timestamp dt:dt=""r8"">1837869533436</Timestamp><Current dt:dt=""r8"">0</Current><DateUtc dt:dt=""string"">2015-06-18T20:05:17Z</DateUtc></FrequencyChange></FrequencyChanges></Clock>\n"	Arrow Flanker 2014-12349-1	60.019	1.0.0.100	1	-375935795	Professional	2.0.10.353	2.0.10.353	06-18-2015	6/18/2015 8:05:17 PM	16:05:17	2.0.10.248	3	1	1	1	NA	NA	NA	NA	NA	NA	NA	NA	NA	NA	NA	NA	NA	NA	NA	NA	NA	NA	NA	NA	NA	NA	NA	NA	BlockProc	BlockList	NA	50	{RIGHTARROW}	NA	-100	848	congruent	NA	NA	NA	NA	NA	NA	NA	NA	NA	NA	NA	NA	NA	NA	NA	NA	NA	NA	NA	NA	NA	NA	TrialProc	TrialList	0	6	308959	17	0	16	307126	0	1	{RIGHTARROW}	-999999	16	308209	0	{RIGHTARROW}	744	308953	NA	NA	right	rrrrr.bmp	354	0	NA	0	0	0	0	NA	0	0	0	NA	0	0	0	0	NA	0	0	2	1	50
Arrow Flanker 2014	12349	1	"<?xml version=""1.0""?>\n<Clock xmlns:dt=""urn:schemas-microsoft-com:datatypes""><Description dt:dt=""string"">E-Prime Primary Realtime Clock</Description><StartTime><Timestamp dt:dt=""int"">0</Timestamp><DateUtc dt:dt=""string"">2015-06-18T20:05:17Z</DateUtc></StartTime><FrequencyChanges><FrequencyChange><Frequency dt:dt=""r8"">2825693</Frequency><Timestamp dt:dt=""r8"">1837869533436</Timestamp><Current dt:dt=""r8"">0</Current><DateUtc dt:dt=""string"">2015-06-18T20:05:17Z</DateUtc></FrequencyChange></FrequencyChanges></Clock>\n"	Arrow Flanker 2014-12349-1	60.019	1.0.0.100	1	-375935795	Professional	2.0.10.353	2.0.10.353	06-18-2015	6/18/2015 8:05:17 PM	16:05:17	2.0.10.248	3	1	1	1	NA	NA	NA	NA	NA	NA	NA	NA	NA	NA	NA	NA	NA	NA	NA	NA	NA	NA	NA	NA	NA	NA	NA	NA	BlockProc	BlockList	NA	51	{LEFTARROW}	NA	-100	948	incongruent	NA	NA	NA	NA	NA	NA	NA	NA	NA	NA	NA	NA	NA	NA	NA	NA	NA	NA	NA	NA	NA	NA	TrialProc	TrialList	0	9	311442	16	0	16	309492	0	1	{LEFTARROW}	-999999	0	310875	0	{LEFTARROW}	558	311433	NA	NA	left	rrlrr.bmp	354	0	NA	0	0	0	0	NA	0	0	0	NA	0	0	0	0	NA	0	0	3	1	51
Arrow Flanker 2014	12349	1	"<?xml version=""1.0""?>\n<Clock xmlns:dt=""urn:schemas-microsoft-com:datatypes""><Description dt:dt=""string"">E-Prime Primary Realtime Clock</Description><StartTime><Timestamp dt:dt=""int"">0</Timestamp><DateUtc dt:dt=""string"">2015-06-18T20:05:17Z</DateUtc></StartTime><FrequencyChanges><FrequencyChange><Frequency dt:dt=""r8"">2825693</Frequency><Timestamp dt:dt=""r8"">1837869533436</Timestamp><Current dt:dt=""r8"">0</Current><DateUtc dt:dt=""string"">2015-06-18T20:05:17Z</DateUtc></FrequencyChange></FrequencyChanges></Clock>\n"	Arrow Flanker 2014-12349-1	60.019	1.0.0.100	1	-375935795	Professional	2.0.10.353	2.0.10.353	06-18-2015	6/18/2015 8:05:17 PM	16:05:17	2.0.10.248	3	1	1	1	NA	NA	NA	NA	NA	NA	NA	NA	NA	NA	NA	NA	NA	NA	NA	NA	NA	NA	NA	NA	NA	NA	NA	NA	BlockProc	BlockList	NA	52	{LEFTARROW}	NA	-100	1214	congruent	NA	NA	NA	NA	NA	NA	NA	NA	NA	NA	NA	NA	NA	NA	NA	NA	NA	NA	NA	NA	NA	NA	TrialProc	TrialList	0	9	313874	17	0	17	311975	0	1	{LEFTARROW}	-999999	0	313324	0	{LEFTARROW}	541	313865	NA	NA	left	lllll.bmp	354	0	NA	0	0	0	0	NA	0	0	0	NA	0	0	0	0	NA	0	0	1	1	52
Arrow Flanker 2014	12349	1	"<?xml version=""1.0""?>\n<Clock xmlns:dt=""urn:schemas-microsoft-com:datatypes""><Description dt:dt=""string"">E-Prime Primary Realtime Clock</Description><StartTime><Timestamp dt:dt=""int"">0</Timestamp><DateUtc dt:dt=""string"">2015-06-18T20:05:17Z</DateUtc></StartTime><FrequencyChanges><FrequencyChange><Frequency dt:dt=""r8"">2825693</Frequency><Timestamp dt:dt=""r8"">1837869533436</Timestamp><Current dt:dt=""r8"">0</Current><DateUtc dt:dt=""string"">2015-06-18T20:05:17Z</DateUtc></FrequencyChange></FrequencyChanges></Clock>\n"	Arrow Flanker 2014-12349-1	60.019	1.0.0.100	1	-375935795	Professional	2.0.10.353	2.0.10.353	06-18-2015	6/18/2015 8:05:17 PM	16:05:17	2.0.10.248	3	1	1	1	NA	NA	NA	NA	NA	NA	NA	NA	NA	NA	NA	NA	NA	NA	NA	NA	NA	NA	NA	NA	NA	NA	NA	NA	BlockProc	BlockList	NA	53	{LEFTARROW}	NA	-100	2336	neutral	NA	NA	NA	NA	NA	NA	NA	NA	NA	NA	NA	NA	NA	NA	NA	NA	NA	NA	NA	NA	NA	NA	TrialProc	TrialList	0	7	317040	16	0	16	314407	0	1	{LEFTARROW}	-999999	0	316457	0	{LEFTARROW}	575	317032	NA	NA	left	ooloo.bmp	354	0	NA	0	0	0	0	NA	0	0	0	NA	0	0	0	0	NA	0	0	5	1	53
Arrow Flanker 2014	12349	1	"<?xml version=""1.0""?>\n<Clock xmlns:dt=""urn:schemas-microsoft-com:datatypes""><Description dt:dt=""string"">E-Prime Primary Realtime Clock</Description><StartTime><Timestamp dt:dt=""int"">0</Timestamp><DateUtc dt:dt=""string"">2015-06-18T20:05:17Z</DateUtc></StartTime><FrequencyChanges><FrequencyChange><Frequency dt:dt=""r8"">2825693</Frequency><Timestamp dt:dt=""r8"">1837869533436</Timestamp><Current dt:dt=""r8"">0</Current><DateUtc dt:dt=""string"">2015-06-18T20:05:17Z</DateUtc></FrequencyChange></FrequencyChanges></Clock>\n"	Arrow Flanker 2014-12349-1	60.019	1.0.0.100	1	-375935795	Professional	2.0.10.353	2.0.10.353	06-18-2015	6/18/2015 8:05:17 PM	16:05:17	2.0.10.248	3	1	1	1	NA	NA	NA	NA	NA	NA	NA	NA	NA	NA	NA	NA	NA	NA	NA	NA	NA	NA	NA	NA	NA	NA	NA	NA	BlockProc	BlockList	NA	54	{RIGHTARROW}	NA	-100	2548	incongruent	NA	NA	NA	NA	NA	NA	NA	NA	NA	NA	NA	NA	NA	NA	NA	NA	NA	NA	NA	NA	3	2	TrialProc	TrialList	0	6	320206	16	0	17	317573	0	1	{RIGHTARROW}	-999999	0	319456	0	{RIGHTARROW}	744	320200	NA	NA	right	llrll.bmp	354	0	NA	-999999	17	320739	0	1	2697	323436	0	NA	-999999	17	323454	0	1	1350	324804	4	1	54
Arrow Flanker 2014	12349	1	"<?xml version=""1.0""?>\n<Clock xmlns:dt=""urn:schemas-microsoft-com:datatypes""><Description dt:dt=""string"">E-Prime Primary Realtime Clock</Description><StartTime><Timestamp dt:dt=""int"">0</Timestamp><DateUtc dt:dt=""string"">2015-06-18T20:05:17Z</DateUtc></StartTime><FrequencyChanges><FrequencyChange><Frequency dt:dt=""r8"">2825693</Frequency><Timestamp dt:dt=""r8"">1837869533436</Timestamp><Current dt:dt=""r8"">0</Current><DateUtc dt:dt=""string"">2015-06-18T20:05:17Z</DateUtc></FrequencyChange></FrequencyChanges></Clock>\n"	Arrow Flanker 2014-12349-1	60.019	1.0.0.100	1	-375935795	Professional	2.0.10.353	2.0.10.353	06-18-2015	6/18/2015 8:05:17 PM	16:05:17	2.0.10.248	3	1	1	1	NA	NA	NA	NA	NA	NA	NA	NA	NA	NA	NA	NA	NA	NA	NA	NA	NA	NA	NA	NA	NA	NA	NA	NA	BlockProc	BlockList	NA	55	{LEFTARROW}	NA	-100	2489	congruent	NA	NA	NA	NA	NA	NA	NA	NA	NA	NA	NA	NA	NA	NA	NA	NA	NA	NA	NA	NA	NA	NA	TrialProc	TrialList	0	14	328886	17	0	21	326237	0	1	{LEFTARROW}	-999999	0	328336	0	{LEFTARROW}	536	328872	NA	NA	left	lllll.bmp	354	0	NA	0	0	0	0	NA	0	0	0	NA	0	0	0	0	NA	0	0	1	1	55
Arrow Flanker 2014	12349	1	"<?xml version=""1.0""?>\n<Clock xmlns:dt=""urn:schemas-microsoft-com:datatypes""><Description dt:dt=""string"">E-Prime Primary Realtime Clock</Description><StartTime><Timestamp dt:dt=""int"">0</Timestamp><DateUtc dt:dt=""string"">2015-06-18T20:05:17Z</DateUtc></StartTime><FrequencyChanges><FrequencyChange><Frequency dt:dt=""r8"">2825693</Frequency><Timestamp dt:dt=""r8"">1837869533436</Timestamp><Current dt:dt=""r8"">0</Current><DateUtc dt:dt=""string"">2015-06-18T20:05:17Z</DateUtc></FrequencyChange></FrequencyChanges></Clock>\n"	Arrow Flanker 2014-12349-1	60.019	1.0.0.100	1	-375935795	Professional	2.0.10.353	2.0.10.353	06-18-2015	6/18/2015 8:05:17 PM	16:05:17	2.0.10.248	3	1	1	1	NA	NA	NA	NA	NA	NA	NA	NA	NA	NA	NA	NA	NA	NA	NA	NA	NA	NA	NA	NA	NA	NA	NA	NA	BlockProc	BlockList	NA	56	{RIGHTARROW}	NA	-100	1346	congruent	NA	NA	NA	NA	NA	NA	NA	NA	NA	NA	NA	NA	NA	NA	NA	NA	NA	NA	NA	NA	NA	NA	TrialProc	TrialList	0	13	331269	16	0	16	329419	0	1	{RIGHTARROW}	-999999	0	330702	0	{RIGHTARROW}	553	331255	NA	NA	right	rrrrr.bmp	354	0	NA	0	0	0	0	NA	0	0	0	NA	0	0	0	0	NA	0	0	2	1	56
Arrow Flanker 2014	12349	1	"<?xml version=""1.0""?>\n<Clock xmlns:dt=""urn:schemas-microsoft-com:datatypes""><Description dt:dt=""string"">E-Prime Primary Realtime Clock</Description><StartTime><Timestamp dt:dt=""int"">0</Timestamp><DateUtc dt:dt=""string"">2015-06-18T20:05:17Z</DateUtc></StartTime><FrequencyChanges><FrequencyChange><Frequency dt:dt=""r8"">2825693</Frequency><Timestamp dt:dt=""r8"">1837869533436</Timestamp><Current dt:dt=""r8"">0</Current><DateUtc dt:dt=""string"">2015-06-18T20:05:17Z</DateUtc></FrequencyChange></FrequencyChanges></Clock>\n"	Arrow Flanker 2014-12349-1	60.019	1.0.0.100	1	-375935795	Professional	2.0.10.353	2.0.10.353	06-18-2015	6/18/2015 8:05:17 PM	16:05:17	2.0.10.248	3	1	1	1	NA	NA	NA	NA	NA	NA	NA	NA	NA	NA	NA	NA	NA	NA	NA	NA	NA	NA	NA	NA	NA	NA	NA	NA	BlockProc	BlockList	NA	57	{RIGHTARROW}	NA	-100	1011	neutral	NA	NA	NA	NA	NA	NA	NA	NA	NA	NA	NA	NA	NA	NA	NA	NA	NA	NA	NA	NA	NA	NA	TrialProc	TrialList	1	20	333451	17	0	17	331802	650	1	{RIGHTARROW}	-999999	-1	332951	0	{RIGHTARROW}	480	333431	NA	NA	right	ooroo.bmp	354	0	NA	0	0	0	0	NA	0	0	0	NA	0	0	0	0	NA	0	0	6	1	57
Arrow Flanker 2014	12349	1	"<?xml version=""1.0""?>\n<Clock xmlns:dt=""urn:schemas-microsoft-com:datatypes""><Description dt:dt=""string"">E-Prime Primary Realtime Clock</Description><StartTime><Timestamp dt:dt=""int"">0</Timestamp><DateUtc dt:dt=""string"">2015-06-18T20:05:17Z</DateUtc></StartTime><FrequencyChanges><FrequencyChange><Frequency dt:dt=""r8"">2825693</Frequency><Timestamp dt:dt=""r8"">1837869533436</Timestamp><Current dt:dt=""r8"">0</Current><DateUtc dt:dt=""string"">2015-06-18T20:05:17Z</DateUtc></FrequencyChange></FrequencyChanges></Clock>\n"	Arrow Flanker 2014-12349-1	60.019	1.0.0.100	1	-375935795	Professional	2.0.10.353	2.0.10.353	06-18-2015	6/18/2015 8:05:17 PM	16:05:17	2.0.10.248	3	1	1	1	NA	NA	NA	NA	NA	NA	NA	NA	NA	NA	NA	NA	NA	NA	NA	NA	NA	NA	NA	NA	NA	NA	NA	NA	BlockProc	BlockList	NA	58	{RIGHTARROW}	NA	-100	2006	neutral	NA	NA	NA	NA	NA	NA	NA	NA	NA	NA	NA	NA	NA	NA	NA	NA	NA	NA	NA	NA	NA	NA	TrialProc	TrialList	1	7	336350	17	0	16	333984	0	1	{RIGHTARROW}	-999999	0	335917	0	{RIGHTARROW}	426	336343	NA	NA	right	ooroo.bmp	354	0	NA	0	0	0	0	NA	0	0	0	NA	0	0	0	0	NA	0	0	6	1	58
Arrow Flanker 2014	12349	1	"<?xml version=""1.0""?>\n<Clock xmlns:dt=""urn:schemas-microsoft-com:datatypes""><Description dt:dt=""string"">E-Prime Primary Realtime Clock</Description><StartTime><Timestamp dt:dt=""int"">0</Timestamp><DateUtc dt:dt=""string"">2015-06-18T20:05:17Z</DateUtc></StartTime><FrequencyChanges><FrequencyChange><Frequency dt:dt=""r8"">2825693</Frequency><Timestamp dt:dt=""r8"">1837869533436</Timestamp><Current dt:dt=""r8"">0</Current><DateUtc dt:dt=""string"">2015-06-18T20:05:17Z</DateUtc></FrequencyChange></FrequencyChanges></Clock>\n"	Arrow Flanker 2014-12349-1	60.019	1.0.0.100	1	-375935795	Professional	2.0.10.353	2.0.10.353	06-18-2015	6/18/2015 8:05:17 PM	16:05:17	2.0.10.248	3	1	1	1	NA	NA	NA	NA	NA	NA	NA	NA	NA	NA	NA	NA	NA	NA	NA	NA	NA	NA	NA	NA	NA	NA	NA	NA	BlockProc	BlockList	NA	59	{RIGHTARROW}	NA	-100	1166	incongruent	NA	NA	NA	NA	NA	NA	NA	NA	NA	NA	NA	NA	NA	NA	NA	NA	NA	NA	NA	NA	NA	NA	TrialProc	TrialList	1	15	338966	17	0	17	336884	0	1	{RIGHTARROW}	-999999	0	337833	0	{RIGHTARROW}	1118	338951	NA	NA	right	llrll.bmp	354	0	NA	0	0	0	0	NA	0	0	0	NA	0	0	0	0	NA	0	0	4	1	59
Arrow Flanker 2014	12349	1	"<?xml version=""1.0""?>\n<Clock xmlns:dt=""urn:schemas-microsoft-com:datatypes""><Description dt:dt=""string"">E-Prime Primary Realtime Clock</Description><StartTime><Timestamp dt:dt=""int"">0</Timestamp><DateUtc dt:dt=""string"">2015-06-18T20:05:17Z</DateUtc></StartTime><FrequencyChanges><FrequencyChange><Frequency dt:dt=""r8"">2825693</Frequency><Timestamp dt:dt=""r8"">1837869533436</Timestamp><Current dt:dt=""r8"">0</Current><DateUtc dt:dt=""string"">2015-06-18T20:05:17Z</DateUtc></FrequencyChange></FrequencyChanges></Clock>\n"	Arrow Flanker 2014-12349-1	60.019	1.0.0.100	1	-375935795	Professional	2.0.10.353	2.0.10.353	06-18-2015	6/18/2015 8:05:17 PM	16:05:17	2.0.10.248	3	1	1	1	NA	NA	NA	NA	NA	NA	NA	NA	NA	NA	NA	NA	NA	NA	NA	NA	NA	NA	NA	NA	NA	NA	NA	NA	BlockProc	BlockList	NA	60	{RIGHTARROW}	NA	-100	1122	incongruent	NA	NA	NA	NA	NA	NA	NA	NA	NA	NA	NA	NA	NA	NA	NA	NA	NA	NA	NA	NA	NA	NA	TrialProc	TrialList	0	14	341349	17	0	17	339500	0	1	{RIGHTARROW}	-999999	16	340899	0	{RIGHTARROW}	436	341335	NA	NA	right	llrll.bmp	354	0	NA	0	0	0	0	NA	0	0	0	NA	0	0	0	0	NA	0	0	4	1	60
Arrow Flanker 2014	12349	1	"<?xml version=""1.0""?>\n<Clock xmlns:dt=""urn:schemas-microsoft-com:datatypes""><Description dt:dt=""string"">E-Prime Primary Realtime Clock</Description><StartTime><Timestamp dt:dt=""int"">0</Timestamp><DateUtc dt:dt=""string"">2015-06-18T20:05:17Z</DateUtc></StartTime><FrequencyChanges><FrequencyChange><Frequency dt:dt=""r8"">2825693</Frequency><Timestamp dt:dt=""r8"">1837869533436</Timestamp><Current dt:dt=""r8"">0</Current><DateUtc dt:dt=""string"">2015-06-18T20:05:17Z</DateUtc></FrequencyChange></FrequencyChanges></Clock>\n"	Arrow Flanker 2014-12349-1	60.019	1.0.0.100	1	-375935795	Professional	2.0.10.353	2.0.10.353	06-18-2015	6/18/2015 8:05:17 PM	16:05:17	2.0.10.248	3	1	1	1	NA	NA	NA	NA	NA	NA	NA	NA	NA	NA	NA	NA	NA	NA	NA	NA	NA	NA	NA	NA	NA	NA	NA	NA	BlockProc	BlockList	NA	61	{LEFTARROW}	NA	-100	1541	incongruent	NA	NA	NA	NA	NA	NA	NA	NA	NA	NA	NA	NA	NA	NA	NA	NA	NA	NA	NA	NA	NA	NA	TrialProc	TrialList	1	14	343781	17	0	16	341882	0	1	{LEFTARROW}	-999999	0	342915	0	{LEFTARROW}	852	343767	NA	NA	left	rrlrr.bmp	354	0	NA	0	0	0	0	NA	0	0	0	NA	0	0	0	0	NA	0	0	3	1	61
Arrow Flanker 2014	12349	1	"<?xml version=""1.0""?>\n<Clock xmlns:dt=""urn:schemas-microsoft-com:datatypes""><Description dt:dt=""string"">E-Prime Primary Realtime Clock</Description><StartTime><Timestamp dt:dt=""int"">0</Timestamp><DateUtc dt:dt=""string"">2015-06-18T20:05:17Z</DateUtc></StartTime><FrequencyChanges><FrequencyChange><Frequency dt:dt=""r8"">2825693</Frequency><Timestamp dt:dt=""r8"">1837869533436</Timestamp><Current dt:dt=""r8"">0</Current><DateUtc dt:dt=""string"">2015-06-18T20:05:17Z</DateUtc></FrequencyChange></FrequencyChanges></Clock>\n"	Arrow Flanker 2014-12349-1	60.019	1.0.0.100	1	-375935795	Professional	2.0.10.353	2.0.10.353	06-18-2015	6/18/2015 8:05:17 PM	16:05:17	2.0.10.248	3	1	1	1	NA	NA	NA	NA	NA	NA	NA	NA	NA	NA	NA	NA	NA	NA	NA	NA	NA	NA	NA	NA	NA	NA	NA	NA	BlockProc	BlockList	NA	62	{LEFTARROW}	NA	-100	1893	incongruent	NA	NA	NA	NA	NA	NA	NA	NA	NA	NA	NA	NA	NA	NA	NA	NA	NA	NA	NA	NA	NA	NA	TrialProc	TrialList	0	13	346164	17	0	17	344315	0	1	{LEFTARROW}	-999999	0	345648	0	{LEFTARROW}	502	346150	NA	NA	left	rrlrr.bmp	354	0	NA	0	0	0	0	NA	0	0	0	NA	0	0	0	0	NA	0	0	3	1	62
Arrow Flanker 2014	12349	1	"<?xml version=""1.0""?>\n<Clock xmlns:dt=""urn:schemas-microsoft-com:datatypes""><Description dt:dt=""string"">E-Prime Primary Realtime Clock</Description><StartTime><Timestamp dt:dt=""int"">0</Timestamp><DateUtc dt:dt=""string"">2015-06-18T20:05:17Z</DateUtc></StartTime><FrequencyChanges><FrequencyChange><Frequency dt:dt=""r8"">2825693</Frequency><Timestamp dt:dt=""r8"">1837869533436</Timestamp><Current dt:dt=""r8"">0</Current><DateUtc dt:dt=""string"">2015-06-18T20:05:17Z</DateUtc></FrequencyChange></FrequencyChanges></Clock>\n"	Arrow Flanker 2014-12349-1	60.019	1.0.0.100	1	-375935795	Professional	2.0.10.353	2.0.10.353	06-18-2015	6/18/2015 8:05:17 PM	16:05:17	2.0.10.248	3	1	1	1	NA	NA	NA	NA	NA	NA	NA	NA	NA	NA	NA	NA	NA	NA	NA	NA	NA	NA	NA	NA	NA	NA	NA	NA	BlockProc	BlockList	NA	63	{LEFTARROW}	NA	-100	1447	congruent	NA	NA	NA	NA	NA	NA	NA	NA	NA	NA	NA	NA	NA	NA	NA	NA	NA	NA	NA	NA	NA	NA	TrialProc	TrialList	1	20	349146	17	0	16	346697	0	1	{LEFTARROW}	-999999	0	348547	0	{LEFTARROW}	579	349126	NA	NA	left	lllll.bmp	354	0	NA	0	0	0	0	NA	0	0	0	NA	0	0	0	0	NA	0	0	1	1	63
Arrow Flanker 2014	12349	1	"<?xml version=""1.0""?>\n<Clock xmlns:dt=""urn:schemas-microsoft-com:datatypes""><Description dt:dt=""string"">E-Prime Primary Realtime Clock</Description><StartTime><Timestamp dt:dt=""int"">0</Timestamp><DateUtc dt:dt=""string"">2015-06-18T20:05:17Z</DateUtc></StartTime><FrequencyChanges><FrequencyChange><Frequency dt:dt=""r8"">2825693</Frequency><Timestamp dt:dt=""r8"">1837869533436</Timestamp><Current dt:dt=""r8"">0</Current><DateUtc dt:dt=""string"">2015-06-18T20:05:17Z</DateUtc></FrequencyChange></FrequencyChanges></Clock>\n"	Arrow Flanker 2014-12349-1	60.019	1.0.0.100	1	-375935795	Professional	2.0.10.353	2.0.10.353	06-18-2015	6/18/2015 8:05:17 PM	16:05:17	2.0.10.248	3	1	1	1	NA	NA	NA	NA	NA	NA	NA	NA	NA	NA	NA	NA	NA	NA	NA	NA	NA	NA	NA	NA	NA	NA	NA	NA	BlockProc	BlockList	NA	64	{LEFTARROW}	NA	-100	920	congruent	NA	NA	NA	NA	NA	NA	NA	NA	NA	NA	NA	NA	NA	NA	NA	NA	NA	NA	NA	NA	NA	NA	TrialProc	TrialList	0	21	351579	17	0	17	349680	0	1	{LEFTARROW}	-999999	0	350879	0	{LEFTARROW}	679	351558	NA	NA	left	lllll.bmp	354	0	NA	0	0	0	0	NA	0	0	0	NA	0	0	0	0	NA	0	0	1	1	64
Arrow Flanker 2014	12349	1	"<?xml version=""1.0""?>\n<Clock xmlns:dt=""urn:schemas-microsoft-com:datatypes""><Description dt:dt=""string"">E-Prime Primary Realtime Clock</Description><StartTime><Timestamp dt:dt=""int"">0</Timestamp><DateUtc dt:dt=""string"">2015-06-18T20:05:17Z</DateUtc></StartTime><FrequencyChanges><FrequencyChange><Frequency dt:dt=""r8"">2825693</Frequency><Timestamp dt:dt=""r8"">1837869533436</Timestamp><Current dt:dt=""r8"">0</Current><DateUtc dt:dt=""string"">2015-06-18T20:05:17Z</DateUtc></FrequencyChange></FrequencyChanges></Clock>\n"	Arrow Flanker 2014-12349-1	60.019	1.0.0.100	1	-375935795	Professional	2.0.10.353	2.0.10.353	06-18-2015	6/18/2015 8:05:17 PM	16:05:17	2.0.10.248	3	1	1	1	NA	NA	NA	NA	NA	NA	NA	NA	NA	NA	NA	NA	NA	NA	NA	NA	NA	NA	NA	NA	NA	NA	NA	NA	BlockProc	BlockList	NA	65	{RIGHTARROW}	NA	-100	1805	incongruent	NA	NA	NA	NA	NA	NA	NA	NA	NA	NA	NA	NA	NA	NA	NA	NA	NA	NA	NA	NA	NA	NA	TrialProc	TrialList	0	8	354062	16	0	16	352112	0	1	{RIGHTARROW}	-999999	0	353279	0	{RIGHTARROW}	775	354054	NA	NA	right	llrll.bmp	354	0	NA	0	0	0	0	NA	0	0	0	NA	0	0	0	0	NA	0	0	4	1	65
Arrow Flanker 2014	12349	1	"<?xml version=""1.0""?>\n<Clock xmlns:dt=""urn:schemas-microsoft-com:datatypes""><Description dt:dt=""string"">E-Prime Primary Realtime Clock</Description><StartTime><Timestamp dt:dt=""int"">0</Timestamp><DateUtc dt:dt=""string"">2015-06-18T20:05:17Z</DateUtc></StartTime><FrequencyChanges><FrequencyChange><Frequency dt:dt=""r8"">2825693</Frequency><Timestamp dt:dt=""r8"">1837869533436</Timestamp><Current dt:dt=""r8"">0</Current><DateUtc dt:dt=""string"">2015-06-18T20:05:17Z</DateUtc></FrequencyChange></FrequencyChanges></Clock>\n"	Arrow Flanker 2014-12349-1	60.019	1.0.0.100	1	-375935795	Professional	2.0.10.353	2.0.10.353	06-18-2015	6/18/2015 8:05:17 PM	16:05:17	2.0.10.248	3	1	1	1	NA	NA	NA	NA	NA	NA	NA	NA	NA	NA	NA	NA	NA	NA	NA	NA	NA	NA	NA	NA	NA	NA	NA	NA	BlockProc	BlockList	NA	66	{RIGHTARROW}	NA	-100	1813	incongruent	NA	NA	NA	NA	NA	NA	NA	NA	NA	NA	NA	NA	NA	NA	NA	NA	NA	NA	NA	NA	NA	NA	TrialProc	TrialList	1	17	357527	17	0	17	354595	0	1	{RIGHTARROW}	-999999	0	356494	0	{RIGHTARROW}	1016	357510	NA	NA	right	llrll.bmp	354	0	NA	0	0	0	0	NA	0	0	0	NA	0	0	0	0	NA	0	0	4	1	66
Arrow Flanker 2014	12349	1	"<?xml version=""1.0""?>\n<Clock xmlns:dt=""urn:schemas-microsoft-com:datatypes""><Description dt:dt=""string"">E-Prime Primary Realtime Clock</Description><StartTime><Timestamp dt:dt=""int"">0</Timestamp><DateUtc dt:dt=""string"">2015-06-18T20:05:17Z</DateUtc></StartTime><FrequencyChanges><FrequencyChange><Frequency dt:dt=""r8"">2825693</Frequency><Timestamp dt:dt=""r8"">1837869533436</Timestamp><Current dt:dt=""r8"">0</Current><DateUtc dt:dt=""string"">2015-06-18T20:05:17Z</DateUtc></FrequencyChange></FrequencyChanges></Clock>\n"	Arrow Flanker 2014-12349-1	60.019	1.0.0.100	1	-375935795	Professional	2.0.10.353	2.0.10.353	06-18-2015	6/18/2015 8:05:17 PM	16:05:17	2.0.10.248	3	1	1	1	NA	NA	NA	NA	NA	NA	NA	NA	NA	NA	NA	NA	NA	NA	NA	NA	NA	NA	NA	NA	NA	NA	NA	NA	BlockProc	BlockList	NA	67	{RIGHTARROW}	NA	-100	1999	neutral	NA	NA	NA	NA	NA	NA	NA	NA	NA	NA	NA	NA	NA	NA	NA	NA	NA	NA	NA	NA	NA	NA	TrialProc	TrialList	0	13	360643	17	0	16	358060	0	1	{RIGHTARROW}	-999999	0	360060	0	{RIGHTARROW}	569	360629	NA	NA	right	ooroo.bmp	354	0	NA	0	0	0	0	NA	0	0	0	NA	0	0	0	0	NA	0	0	6	1	67
Arrow Flanker 2014	12349	1	"<?xml version=""1.0""?>\n<Clock xmlns:dt=""urn:schemas-microsoft-com:datatypes""><Description dt:dt=""string"">E-Prime Primary Realtime Clock</Description><StartTime><Timestamp dt:dt=""int"">0</Timestamp><DateUtc dt:dt=""string"">2015-06-18T20:05:17Z</DateUtc></StartTime><FrequencyChanges><FrequencyChange><Frequency dt:dt=""r8"">2825693</Frequency><Timestamp dt:dt=""r8"">1837869533436</Timestamp><Current dt:dt=""r8"">0</Current><DateUtc dt:dt=""string"">2015-06-18T20:05:17Z</DateUtc></FrequencyChange></FrequencyChanges></Clock>\n"	Arrow Flanker 2014-12349-1	60.019	1.0.0.100	1	-375935795	Professional	2.0.10.353	2.0.10.353	06-18-2015	6/18/2015 8:05:17 PM	16:05:17	2.0.10.248	3	1	1	1	NA	NA	NA	NA	NA	NA	NA	NA	NA	NA	NA	NA	NA	NA	NA	NA	NA	NA	NA	NA	NA	NA	NA	NA	BlockProc	BlockList	NA	68	{RIGHTARROW}	NA	-100	2232	congruent	NA	NA	NA	NA	NA	NA	NA	NA	NA	NA	NA	NA	NA	NA	NA	NA	NA	NA	NA	NA	NA	NA	TrialProc	TrialList	0	11	363792	17	0	16	361176	0	1	{RIGHTARROW}	-999999	0	363109	0	{RIGHTARROW}	672	363781	NA	NA	right	rrrrr.bmp	354	0	NA	0	0	0	0	NA	0	0	0	NA	0	0	0	0	NA	0	0	2	1	68
Arrow Flanker 2014	12349	1	"<?xml version=""1.0""?>\n<Clock xmlns:dt=""urn:schemas-microsoft-com:datatypes""><Description dt:dt=""string"">E-Prime Primary Realtime Clock</Description><StartTime><Timestamp dt:dt=""int"">0</Timestamp><DateUtc dt:dt=""string"">2015-06-18T20:05:17Z</DateUtc></StartTime><FrequencyChanges><FrequencyChange><Frequency dt:dt=""r8"">2825693</Frequency><Timestamp dt:dt=""r8"">1837869533436</Timestamp><Current dt:dt=""r8"">0</Current><DateUtc dt:dt=""string"">2015-06-18T20:05:17Z</DateUtc></FrequencyChange></FrequencyChanges></Clock>\n"	Arrow Flanker 2014-12349-1	60.019	1.0.0.100	1	-375935795	Professional	2.0.10.353	2.0.10.353	06-18-2015	6/18/2015 8:05:17 PM	16:05:17	2.0.10.248	3	1	1	1	NA	NA	NA	NA	NA	NA	NA	NA	NA	NA	NA	NA	NA	NA	NA	NA	NA	NA	NA	NA	NA	NA	NA	NA	BlockProc	BlockList	NA	69	{LEFTARROW}	NA	-100	2409	neutral	NA	NA	NA	NA	NA	NA	NA	NA	NA	NA	NA	NA	NA	NA	NA	NA	NA	NA	NA	NA	NA	NA	TrialProc	TrialList	1	9	366974	17	0	16	364325	0	1	{LEFTARROW}	-999999	-1	366374	0	{LEFTARROW}	591	366965	NA	NA	left	ooloo.bmp	354	0	NA	0	0	0	0	NA	0	0	0	NA	0	0	0	0	NA	0	0	5	1	69
Arrow Flanker 2014	12349	1	"<?xml version=""1.0""?>\n<Clock xmlns:dt=""urn:schemas-microsoft-com:datatypes""><Description dt:dt=""string"">E-Prime Primary Realtime Clock</Description><StartTime><Timestamp dt:dt=""int"">0</Timestamp><DateUtc dt:dt=""string"">2015-06-18T20:05:17Z</DateUtc></StartTime><FrequencyChanges><FrequencyChange><Frequency dt:dt=""r8"">2825693</Frequency><Timestamp dt:dt=""r8"">1837869533436</Timestamp><Current dt:dt=""r8"">0</Current><DateUtc dt:dt=""string"">2015-06-18T20:05:17Z</DateUtc></FrequencyChange></FrequencyChanges></Clock>\n"	Arrow Flanker 2014-12349-1	60.019	1.0.0.100	1	-375935795	Professional	2.0.10.353	2.0.10.353	06-18-2015	6/18/2015 8:05:17 PM	16:05:17	2.0.10.248	3	1	1	1	NA	NA	NA	NA	NA	NA	NA	NA	NA	NA	NA	NA	NA	NA	NA	NA	NA	NA	NA	NA	NA	NA	NA	NA	BlockProc	BlockList	NA	70	{LEFTARROW}	NA	-100	2369	neutral	NA	NA	NA	NA	NA	NA	NA	NA	NA	NA	NA	NA	NA	NA	NA	NA	NA	NA	NA	NA	3	1	TrialProc	TrialList	0	6	370107	16	0	17	367508	0	1	{LEFTARROW}	-999999	0	369490	0	{LEFTARROW}	611	370101	NA	NA	left	ooloo.bmp	354	0	NA	-999999	17	370640	0	1	2449	373089	0	NA	-999999	17	373106	0	1	919	374025	5	1	70
Arrow Flanker 2014	12349	1	"<?xml version=""1.0""?>\n<Clock xmlns:dt=""urn:schemas-microsoft-com:datatypes""><Description dt:dt=""string"">E-Prime Primary Realtime Clock</Description><StartTime><Timestamp dt:dt=""int"">0</Timestamp><DateUtc dt:dt=""string"">2015-06-18T20:05:17Z</DateUtc></StartTime><FrequencyChanges><FrequencyChange><Frequency dt:dt=""r8"">2825693</Frequency><Timestamp dt:dt=""r8"">1837869533436</Timestamp><Current dt:dt=""r8"">0</Current><DateUtc dt:dt=""string"">2015-06-18T20:05:17Z</DateUtc></FrequencyChange></FrequencyChanges></Clock>\n"	Arrow Flanker 2014-12349-1	60.019	1.0.0.100	1	-375935795	Professional	2.0.10.353	2.0.10.353	06-18-2015	6/18/2015 8:05:17 PM	16:05:17	2.0.10.248	3	1	1	1	NA	NA	NA	NA	NA	NA	NA	NA	NA	NA	NA	NA	NA	NA	NA	NA	NA	NA	NA	NA	NA	NA	NA	NA	BlockProc	BlockList	NA	71	{RIGHTARROW}	NA	-100	1485	incongruent	NA	NA	NA	NA	NA	NA	NA	NA	NA	NA	NA	NA	NA	NA	NA	NA	NA	NA	NA	NA	NA	NA	TrialProc	TrialList	0	17	377621	17	0	27	375455	0	1	{RIGHTARROW}	-999999	0	376771	0	{RIGHTARROW}	833	377604	NA	NA	right	llrll.bmp	354	0	NA	0	0	0	0	NA	0	0	0	NA	0	0	0	0	NA	0	0	4	1	71
Arrow Flanker 2014	12349	1	"<?xml version=""1.0""?>\n<Clock xmlns:dt=""urn:schemas-microsoft-com:datatypes""><Description dt:dt=""string"">E-Prime Primary Realtime Clock</Description><StartTime><Timestamp dt:dt=""int"">0</Timestamp><DateUtc dt:dt=""string"">2015-06-18T20:05:17Z</DateUtc></StartTime><FrequencyChanges><FrequencyChange><Frequency dt:dt=""r8"">2825693</Frequency><Timestamp dt:dt=""r8"">1837869533436</Timestamp><Current dt:dt=""r8"">0</Current><DateUtc dt:dt=""string"">2015-06-18T20:05:17Z</DateUtc></FrequencyChange></FrequencyChanges></Clock>\n"	Arrow Flanker 2014-12349-1	60.019	1.0.0.100	1	-375935795	Professional	2.0.10.353	2.0.10.353	06-18-2015	6/18/2015 8:05:17 PM	16:05:17	2.0.10.248	3	1	1	1	NA	NA	NA	NA	NA	NA	NA	NA	NA	NA	NA	NA	NA	NA	NA	NA	NA	NA	NA	NA	NA	NA	NA	NA	BlockProc	BlockList	NA	72	{RIGHTARROW}	NA	-100	1310	incongruent	NA	NA	NA	NA	NA	NA	NA	NA	NA	NA	NA	NA	NA	NA	NA	NA	NA	NA	NA	NA	NA	NA	TrialProc	TrialList	0	8	380204	16	0	16	378154	0	1	{RIGHTARROW}	-999999	0	379654	0	{RIGHTARROW}	542	380196	NA	NA	right	llrll.bmp	354	0	NA	0	0	0	0	NA	0	0	0	NA	0	0	0	0	NA	0	0	4	1	72
