ExperimentName	Subject	Session	Clock.Information	DataFile.Basename	Display.RefreshRate	ExperimentVersion	Group	RandomSeed	RuntimeCapabilities	RuntimeVersion	RuntimeVersionExpected	SessionDate	SessionStartDateTimeUtc	SessionTime	StudioVersion	Block	BlockList	BlockList.Cycle	BlockList.Sample	Both	CompletelyMW	CongMeanRT	CongTotal	Fragmented	GoodByeList	GoodByeList.Cycle	GoodByeList.Sample	IncongMeanRT	IncongTotal	MapBlockList	MapBlockList.Cycle	MapBlockList.Sample	Mindwandering	MostlyMW	MostlyOT	NeutralMeanRT	NeutralTotal	NumberProbes1	NumberProbes2	OnTask	PracBlockList	PracBlockList.Cycle	PracBlockList.Sample	Procedure[Block]	Running[Block]	Sequential	Trial	CorrectAnswer	CuePositionY	CuePositionY2	DurationOfFixation	FlankerType	MapTrialList	MapTrialList.Cycle	MapTrialList.Sample	PracSlideFixationStart.DurationError	PracSlideFixationStart.OnsetDelay	PracSlideFixationStart.OnsetTime	PracSlideFixationStart.OnsetToOnsetTime	PracSlideTarget.ACC	PracSlideTarget.CRESP	PracSlideTarget.DurationError	PracSlideTarget.OnsetDelay	PracSlideTarget.OnsetTime	PracSlideTarget.OnsetToOnsetTime	PracSlideTarget.RESP	PracSlideTarget.RT	PracSlideTarget.RTTime	PracSlideTarget.Tag	PracTrialList	PracTrialList.Cycle	PracTrialList.Sample	Probe1Resp	Probe2Resp	Procedure[Trial]	Running[Trial]	SlideFixationEnd.DurationError	SlideFixationEnd.OnsetDelay	SlideFixationEnd.OnsetTime	SlideFixationEnd.OnsetToOnsetTime	SlideFixationStart.DurationError	SlideFixationStart.OnsetDelay	SlideFixationStart.OnsetTime	SlideFixationStart.OnsetToOnsetTime	SlideTarget.ACC	SlideTarget.CRESP	SlideTarget.DurationError	SlideTarget.OnsetDelay	SlideTarget.OnsetTime	SlideTarget.OnsetToOnsetTime	SlideTarget.RESP	SlideTarget.RT	SlideTarget.RTTime	SlideTarget.Tag	TargerDirection	TargetDirection	TargetImage	TargetPosition	ThoughtProbe1.ACC	ThoughtProbe1.CRESP	ThoughtProbe1.DurationError	ThoughtProbe1.OnsetDelay	ThoughtProbe1.OnsetTime	ThoughtProbe1.OnsetToOnsetTime	ThoughtProbe1.RESP	ThoughtProbe1.RT	ThoughtProbe1.RTTime	ThoughtProbe2.ACC	ThoughtProbe2.CRESP	ThoughtProbe2.DurationError	ThoughtProbe2.OnsetDelay	ThoughtProbe2.OnsetTime	ThoughtProbe2.OnsetToOnsetTime	ThoughtProbe2.RESP	ThoughtProbe2.RT	ThoughtProbe2.RTTime	TrialList	TrialList.Cycle	TrialList.Sample
Arrow Flanker 2014	12351	1	"<?xml version=""1.0""?>\n<Clock xmlns:dt=""urn:schemas-microsoft-com:datatypes""><Description dt:dt=""string"">E-Prime Primary Realtime Clock</Description><StartTime><Timestamp dt:dt=""int"">0</Timestamp><DateUtc dt:dt=""string"">2015-06-19T16:01:34Z</DateUtc></StartTime><FrequencyChanges><FrequencyChange><Frequency dt:dt=""r8"">2825566</Frequency><Timestamp dt:dt=""r8"">4344286607414</Timestamp><Current dt:dt=""r8"">0</Current><DateUtc dt:dt=""string"">2015-06-19T16:01:34Z</DateUtc></FrequencyChange></FrequencyChanges></Clock>\n"	Arrow Flanker 2014-12351-1	60.016	1.0.0.100	1	2075224269	Professional	2.0.10.353	2.0.10.353	06-19-2015	6/19/2015 4:01:35 PM	12:01:35	2.0.10.248	1	NA	NA	NA	NA	NA	NA	NA	NA	NA	NA	NA	NA	NA	1	1	1	NA	NA	NA	NA	NA	NA	NA	NA	NA	NA	NA	MapBlockProc	MapBlockList	NA	1	{RIGHTARROW}	-100	NA	1561	NA	2	1	1	0	18	99291	1566	1	{RIGHTARROW}	-999999	0	101357	0	{RIGHTARROW}	1339	102696	NA	NA	NA	NA	NA	NA	MapTrialProc	MapTrialList	NA	NA	NA	NA	NA	NA	NA	NA	NA	NA	NA	NA	NA	NA	NA	NA	NA	NA	right	NA	R.bmp	354	NA	NA	NA	NA	NA	NA	NA	NA	NA	NA	NA	NA	NA	NA	NA	NA	NA	NA	NA	NA	NA
Arrow Flanker 2014	12351	1	"<?xml version=""1.0""?>\n<Clock xmlns:dt=""urn:schemas-microsoft-com:datatypes""><Description dt:dt=""string"">E-Prime Primary Realtime Clock</Description><StartTime><Timestamp dt:dt=""int"">0</Timestamp><DateUtc dt:dt=""string"">2015-06-19T16:01:34Z</DateUtc></StartTime><FrequencyChanges><FrequencyChange><Frequency dt:dt=""r8"">2825566</Frequency><Timestamp dt:dt=""r8"">4344286607414</Timestamp><Current dt:dt=""r8"">0</Current><DateUtc dt:dt=""string"">2015-06-19T16:01:34Z</DateUtc></FrequencyChange></FrequencyChanges></Clock>\n"	Arrow Flanker 2014-12351-1	60.016	1.0.0.100	1	2075224269	Professional	2.0.10.353	2.0.10.353	06-19-2015	6/19/2015 4:01:35 PM	12:01:35	2.0.10.248	1	NA	NA	NA	NA	NA	NA	NA	NA	NA	NA	NA	NA	NA	1	1	1	NA	NA	NA	NA	NA	NA	NA	NA	NA	NA	NA	MapBlockProc	MapBlockList	NA	2	{LEFTARROW}	-100	NA	1395	NA	1	1	2	0	17	104240	1399	1	{LEFTARROW}	-999999	0	106139	0	{LEFTARROW}	573	106712	NA	NA	NA	NA	NA	NA	MapTrialProc	MapTrialList	NA	NA	NA	NA	NA	NA	NA	NA	NA	NA	NA	NA	NA	NA	NA	NA	NA	NA	left	NA	L.bmp	354	NA	NA	NA	NA	NA	NA	NA	NA	NA	NA	NA	NA	NA	NA	NA	NA	NA	NA	NA	NA	NA
Arrow Flanker 2014	12351	1	"<?xml version=""1.0""?>\n<Clock xmlns:dt=""urn:schemas-microsoft-com:datatypes""><Description dt:dt=""string"">E-Prime Primary Realtime Clock</Description><StartTime><Timestamp dt:dt=""int"">0</Timestamp><DateUtc dt:dt=""string"">2015-06-19T16:01:34Z</DateUtc></StartTime><FrequencyChanges><FrequencyChange><Frequency dt:dt=""r8"">2825566</Frequency><Timestamp dt:dt=""r8"">4344286607414</Timestamp><Current dt:dt=""r8"">0</Current><DateUtc dt:dt=""string"">2015-06-19T16:01:34Z</DateUtc></FrequencyChange></FrequencyChanges></Clock>\n"	Arrow Flanker 2014-12351-1	60.016	1.0.0.100	1	2075224269	Professional	2.0.10.353	2.0.10.353	06-19-2015	6/19/2015 4:01:35 PM	12:01:35	2.0.10.248	1	NA	NA	NA	NA	NA	NA	NA	NA	NA	NA	NA	NA	NA	1	1	1	NA	NA	NA	NA	NA	NA	NA	NA	NA	NA	NA	MapBlockProc	MapBlockList	NA	3	{RIGHTARROW}	-100	NA	803	NA	2	1	3	0	16	108239	816	1	{RIGHTARROW}	-999999	0	109555	0	{RIGHTARROW}	517	110072	NA	NA	NA	NA	NA	NA	MapTrialProc	MapTrialList	NA	NA	NA	NA	NA	NA	NA	NA	NA	NA	NA	NA	NA	NA	NA	NA	NA	NA	right	NA	R.bmp	354	NA	NA	NA	NA	NA	NA	NA	NA	NA	NA	NA	NA	NA	NA	NA	NA	NA	NA	NA	NA	NA
Arrow Flanker 2014	12351	1	"<?xml version=""1.0""?>\n<Clock xmlns:dt=""urn:schemas-microsoft-com:datatypes""><Description dt:dt=""string"">E-Prime Primary Realtime Clock</Description><StartTime><Timestamp dt:dt=""int"">0</Timestamp><DateUtc dt:dt=""string"">2015-06-19T16:01:34Z</DateUtc></StartTime><FrequencyChanges><FrequencyChange><Frequency dt:dt=""r8"">2825566</Frequency><Timestamp dt:dt=""r8"">4344286607414</Timestamp><Current dt:dt=""r8"">0</Current><DateUtc dt:dt=""string"">2015-06-19T16:01:34Z</DateUtc></FrequencyChange></FrequencyChanges></Clock>\n"	Arrow Flanker 2014-12351-1	60.016	1.0.0.100	1	2075224269	Professional	2.0.10.353	2.0.10.353	06-19-2015	6/19/2015 4:01:35 PM	12:01:35	2.0.10.248	1	NA	NA	NA	NA	NA	NA	NA	NA	NA	NA	NA	NA	NA	1	1	1	NA	NA	NA	NA	NA	NA	NA	NA	NA	NA	NA	MapBlockProc	MapBlockList	NA	4	{LEFTARROW}	-100	NA	881	NA	1	1	4	0	16	111604	883	1	{LEFTARROW}	-999999	0	112987	0	{LEFTARROW}	461	113448	NA	NA	NA	NA	NA	NA	MapTrialProc	MapTrialList	NA	NA	NA	NA	NA	NA	NA	NA	NA	NA	NA	NA	NA	NA	NA	NA	NA	NA	left	NA	L.bmp	354	NA	NA	NA	NA	NA	NA	NA	NA	NA	NA	NA	NA	NA	NA	NA	NA	NA	NA	NA	NA	NA
Arrow Flanker 2014	12351	1	"<?xml version=""1.0""?>\n<Clock xmlns:dt=""urn:schemas-microsoft-com:datatypes""><Description dt:dt=""string"">E-Prime Primary Realtime Clock</Description><StartTime><Timestamp dt:dt=""int"">0</Timestamp><DateUtc dt:dt=""string"">2015-06-19T16:01:34Z</DateUtc></StartTime><FrequencyChanges><FrequencyChange><Frequency dt:dt=""r8"">2825566</Frequency><Timestamp dt:dt=""r8"">4344286607414</Timestamp><Current dt:dt=""r8"">0</Current><DateUtc dt:dt=""string"">2015-06-19T16:01:34Z</DateUtc></FrequencyChange></FrequencyChanges></Clock>\n"	Arrow Flanker 2014-12351-1	60.016	1.0.0.100	1	2075224269	Professional	2.0.10.353	2.0.10.353	06-19-2015	6/19/2015 4:01:35 PM	12:01:35	2.0.10.248	1	NA	NA	NA	NA	NA	NA	NA	NA	NA	NA	NA	NA	NA	1	1	1	NA	NA	NA	NA	NA	NA	NA	NA	NA	NA	NA	MapBlockProc	MapBlockList	NA	5	{LEFTARROW}	-100	NA	1154	NA	1	1	5	0	16	114987	1166	1	{LEFTARROW}	-999999	0	116653	0	{LEFTARROW}	459	117112	NA	NA	NA	NA	NA	NA	MapTrialProc	MapTrialList	NA	NA	NA	NA	NA	NA	NA	NA	NA	NA	NA	NA	NA	NA	NA	NA	NA	NA	left	NA	L.bmp	354	NA	NA	NA	NA	NA	NA	NA	NA	NA	NA	NA	NA	NA	NA	NA	NA	NA	NA	NA	NA	NA
Arrow Flanker 2014	12351	1	"<?xml version=""1.0""?>\n<Clock xmlns:dt=""urn:schemas-microsoft-com:datatypes""><Description dt:dt=""string"">E-Prime Primary Realtime Clock</Description><StartTime><Timestamp dt:dt=""int"">0</Timestamp><DateUtc dt:dt=""string"">2015-06-19T16:01:34Z</DateUtc></StartTime><FrequencyChanges><FrequencyChange><Frequency dt:dt=""r8"">2825566</Frequency><Timestamp dt:dt=""r8"">4344286607414</Timestamp><Current dt:dt=""r8"">0</Current><DateUtc dt:dt=""string"">2015-06-19T16:01:34Z</DateUtc></FrequencyChange></FrequencyChanges></Clock>\n"	Arrow Flanker 2014-12351-1	60.016	1.0.0.100	1	2075224269	Professional	2.0.10.353	2.0.10.353	06-19-2015	6/19/2015 4:01:35 PM	12:01:35	2.0.10.248	1	NA	NA	NA	NA	NA	NA	NA	NA	NA	NA	NA	NA	NA	1	1	1	NA	NA	NA	NA	NA	NA	NA	NA	NA	NA	NA	MapBlockProc	MapBlockList	NA	6	{RIGHTARROW}	-100	NA	974	NA	2	1	6	0	17	118653	983	1	{RIGHTARROW}	-999999	0	120135	0	{RIGHTARROW}	465	120600	NA	NA	NA	NA	NA	NA	MapTrialProc	MapTrialList	NA	NA	NA	NA	NA	NA	NA	NA	NA	NA	NA	NA	NA	NA	NA	NA	NA	NA	right	NA	R.bmp	354	NA	NA	NA	NA	NA	NA	NA	NA	NA	NA	NA	NA	NA	NA	NA	NA	NA	NA	NA	NA	NA
Arrow Flanker 2014	12351	1	"<?xml version=""1.0""?>\n<Clock xmlns:dt=""urn:schemas-microsoft-com:datatypes""><Description dt:dt=""string"">E-Prime Primary Realtime Clock</Description><StartTime><Timestamp dt:dt=""int"">0</Timestamp><DateUtc dt:dt=""string"">2015-06-19T16:01:34Z</DateUtc></StartTime><FrequencyChanges><FrequencyChange><Frequency dt:dt=""r8"">2825566</Frequency><Timestamp dt:dt=""r8"">4344286607414</Timestamp><Current dt:dt=""r8"">0</Current><DateUtc dt:dt=""string"">2015-06-19T16:01:34Z</DateUtc></FrequencyChange></FrequencyChanges></Clock>\n"	Arrow Flanker 2014-12351-1	60.016	1.0.0.100	1	2075224269	Professional	2.0.10.353	2.0.10.353	06-19-2015	6/19/2015 4:01:35 PM	12:01:35	2.0.10.248	1	NA	NA	NA	NA	NA	NA	NA	NA	NA	NA	NA	NA	NA	1	1	1	NA	NA	NA	NA	NA	NA	NA	NA	NA	NA	NA	MapBlockProc	MapBlockList	NA	7	{RIGHTARROW}	-100	NA	737	NA	2	1	7	0	16	122135	750	1	{RIGHTARROW}	-999999	0	123385	0	{RIGHTARROW}	639	124024	NA	NA	NA	NA	NA	NA	MapTrialProc	MapTrialList	NA	NA	NA	NA	NA	NA	NA	NA	NA	NA	NA	NA	NA	NA	NA	NA	NA	NA	right	NA	R.bmp	354	NA	NA	NA	NA	NA	NA	NA	NA	NA	NA	NA	NA	NA	NA	NA	NA	NA	NA	NA	NA	NA
Arrow Flanker 2014	12351	1	"<?xml version=""1.0""?>\n<Clock xmlns:dt=""urn:schemas-microsoft-com:datatypes""><Description dt:dt=""string"">E-Prime Primary Realtime Clock</Description><StartTime><Timestamp dt:dt=""int"">0</Timestamp><DateUtc dt:dt=""string"">2015-06-19T16:01:34Z</DateUtc></StartTime><FrequencyChanges><FrequencyChange><Frequency dt:dt=""r8"">2825566</Frequency><Timestamp dt:dt=""r8"">4344286607414</Timestamp><Current dt:dt=""r8"">0</Current><DateUtc dt:dt=""string"">2015-06-19T16:01:34Z</DateUtc></FrequencyChange></FrequencyChanges></Clock>\n"	Arrow Flanker 2014-12351-1	60.016	1.0.0.100	1	2075224269	Professional	2.0.10.353	2.0.10.353	06-19-2015	6/19/2015 4:01:35 PM	12:01:35	2.0.10.248	1	NA	NA	NA	NA	NA	NA	NA	NA	NA	NA	NA	NA	NA	1	1	1	NA	NA	NA	NA	NA	NA	NA	NA	NA	NA	NA	MapBlockProc	MapBlockList	NA	8	{RIGHTARROW}	-100	NA	1312	NA	2	1	8	0	17	125551	1316	1	{RIGHTARROW}	-999999	0	127367	0	{RIGHTARROW}	497	127864	NA	NA	NA	NA	NA	NA	MapTrialProc	MapTrialList	NA	NA	NA	NA	NA	NA	NA	NA	NA	NA	NA	NA	NA	NA	NA	NA	NA	NA	right	NA	R.bmp	354	NA	NA	NA	NA	NA	NA	NA	NA	NA	NA	NA	NA	NA	NA	NA	NA	NA	NA	NA	NA	NA
Arrow Flanker 2014	12351	1	"<?xml version=""1.0""?>\n<Clock xmlns:dt=""urn:schemas-microsoft-com:datatypes""><Description dt:dt=""string"">E-Prime Primary Realtime Clock</Description><StartTime><Timestamp dt:dt=""int"">0</Timestamp><DateUtc dt:dt=""string"">2015-06-19T16:01:34Z</DateUtc></StartTime><FrequencyChanges><FrequencyChange><Frequency dt:dt=""r8"">2825566</Frequency><Timestamp dt:dt=""r8"">4344286607414</Timestamp><Current dt:dt=""r8"">0</Current><DateUtc dt:dt=""string"">2015-06-19T16:01:34Z</DateUtc></FrequencyChange></FrequencyChanges></Clock>\n"	Arrow Flanker 2014-12351-1	60.016	1.0.0.100	1	2075224269	Professional	2.0.10.353	2.0.10.353	06-19-2015	6/19/2015 4:01:35 PM	12:01:35	2.0.10.248	1	NA	NA	NA	NA	NA	NA	NA	NA	NA	NA	NA	NA	NA	1	1	1	NA	NA	NA	NA	NA	NA	NA	NA	NA	NA	NA	MapBlockProc	MapBlockList	NA	9	{LEFTARROW}	-100	NA	1081	NA	1	1	9	0	17	129400	1083	1	{LEFTARROW}	-999999	0	130983	0	{LEFTARROW}	561	131544	NA	NA	NA	NA	NA	NA	MapTrialProc	MapTrialList	NA	NA	NA	NA	NA	NA	NA	NA	NA	NA	NA	NA	NA	NA	NA	NA	NA	NA	left	NA	L.bmp	354	NA	NA	NA	NA	NA	NA	NA	NA	NA	NA	NA	NA	NA	NA	NA	NA	NA	NA	NA	NA	NA
Arrow Flanker 2014	12351	1	"<?xml version=""1.0""?>\n<Clock xmlns:dt=""urn:schemas-microsoft-com:datatypes""><Description dt:dt=""string"">E-Prime Primary Realtime Clock</Description><StartTime><Timestamp dt:dt=""int"">0</Timestamp><DateUtc dt:dt=""string"">2015-06-19T16:01:34Z</DateUtc></StartTime><FrequencyChanges><FrequencyChange><Frequency dt:dt=""r8"">2825566</Frequency><Timestamp dt:dt=""r8"">4344286607414</Timestamp><Current dt:dt=""r8"">0</Current><DateUtc dt:dt=""string"">2015-06-19T16:01:34Z</DateUtc></FrequencyChange></FrequencyChanges></Clock>\n"	Arrow Flanker 2014-12351-1	60.016	1.0.0.100	1	2075224269	Professional	2.0.10.353	2.0.10.353	06-19-2015	6/19/2015 4:01:35 PM	12:01:35	2.0.10.248	1	NA	NA	NA	NA	NA	NA	NA	NA	NA	NA	NA	NA	NA	1	1	1	NA	NA	NA	NA	NA	NA	NA	NA	NA	NA	NA	MapBlockProc	MapBlockList	NA	10	{LEFTARROW}	-100	NA	1531	NA	1	1	10	0	16	133082	1533	1	{LEFTARROW}	-999999	0	135115	0	{LEFTARROW}	668	135783	NA	NA	NA	NA	NA	NA	MapTrialProc	MapTrialList	NA	NA	NA	NA	NA	NA	NA	NA	NA	NA	NA	NA	NA	NA	NA	NA	NA	NA	left	NA	L.bmp	354	NA	NA	NA	NA	NA	NA	NA	NA	NA	NA	NA	NA	NA	NA	NA	NA	NA	NA	NA	NA	NA
Arrow Flanker 2014	12351	1	"<?xml version=""1.0""?>\n<Clock xmlns:dt=""urn:schemas-microsoft-com:datatypes""><Description dt:dt=""string"">E-Prime Primary Realtime Clock</Description><StartTime><Timestamp dt:dt=""int"">0</Timestamp><DateUtc dt:dt=""string"">2015-06-19T16:01:34Z</DateUtc></StartTime><FrequencyChanges><FrequencyChange><Frequency dt:dt=""r8"">2825566</Frequency><Timestamp dt:dt=""r8"">4344286607414</Timestamp><Current dt:dt=""r8"">0</Current><DateUtc dt:dt=""string"">2015-06-19T16:01:34Z</DateUtc></FrequencyChange></FrequencyChanges></Clock>\n"	Arrow Flanker 2014-12351-1	60.016	1.0.0.100	1	2075224269	Professional	2.0.10.353	2.0.10.353	06-19-2015	6/19/2015 4:01:35 PM	12:01:35	2.0.10.248	2	NA	NA	NA	NA	NA	NA	NA	NA	NA	NA	NA	NA	NA	NA	NA	NA	NA	NA	NA	NA	NA	NA	NA	NA	1	1	1	PracBlockProc	PracBlockList	NA	1	{RIGHTARROW}	-100	NA	407	congruent	NA	NA	NA	0	12	149811	416	1	{RIGHTARROW}	-999999	0	150727	0	{RIGHTARROW}	752	151479	NA	4	1	1	NA	NA	PracTrialProc	PracTrialList	NA	NA	NA	NA	NA	NA	NA	NA	NA	NA	NA	NA	NA	NA	NA	NA	NA	NA	right	NA	rrrrr.bmp	354	NA	NA	NA	NA	NA	NA	NA	NA	NA	NA	NA	NA	NA	NA	NA	NA	NA	NA	NA	NA	NA
Arrow Flanker 2014	12351	1	"<?xml version=""1.0""?>\n<Clock xmlns:dt=""urn:schemas-microsoft-com:datatypes""><Description dt:dt=""string"">E-Prime Primary Realtime Clock</Description><StartTime><Timestamp dt:dt=""int"">0</Timestamp><DateUtc dt:dt=""string"">2015-06-19T16:01:34Z</DateUtc></StartTime><FrequencyChanges><FrequencyChange><Frequency dt:dt=""r8"">2825566</Frequency><Timestamp dt:dt=""r8"">4344286607414</Timestamp><Current dt:dt=""r8"">0</Current><DateUtc dt:dt=""string"">2015-06-19T16:01:34Z</DateUtc></FrequencyChange></FrequencyChanges></Clock>\n"	Arrow Flanker 2014-12351-1	60.016	1.0.0.100	1	2075224269	Professional	2.0.10.353	2.0.10.353	06-19-2015	6/19/2015 4:01:35 PM	12:01:35	2.0.10.248	2	NA	NA	NA	NA	NA	NA	NA	NA	NA	NA	NA	NA	NA	NA	NA	NA	NA	NA	NA	NA	NA	NA	NA	NA	1	1	1	PracBlockProc	PracBlockList	NA	2	{RIGHTARROW}	-100	NA	1269	incongruent	NA	NA	NA	0	16	153010	1283	0	{RIGHTARROW}	-999999	0	154793	0	{LEFTARROW}	366	155159	NA	5	1	2	NA	NA	PracTrialProc	PracTrialList	NA	NA	NA	NA	NA	NA	NA	NA	NA	NA	NA	NA	NA	NA	NA	NA	NA	NA	right	NA	llrll.bmp	354	NA	NA	NA	NA	NA	NA	NA	NA	NA	NA	NA	NA	NA	NA	NA	NA	NA	NA	NA	NA	NA
Arrow Flanker 2014	12351	1	"<?xml version=""1.0""?>\n<Clock xmlns:dt=""urn:schemas-microsoft-com:datatypes""><Description dt:dt=""string"">E-Prime Primary Realtime Clock</Description><StartTime><Timestamp dt:dt=""int"">0</Timestamp><DateUtc dt:dt=""string"">2015-06-19T16:01:34Z</DateUtc></StartTime><FrequencyChanges><FrequencyChange><Frequency dt:dt=""r8"">2825566</Frequency><Timestamp dt:dt=""r8"">4344286607414</Timestamp><Current dt:dt=""r8"">0</Current><DateUtc dt:dt=""string"">2015-06-19T16:01:34Z</DateUtc></FrequencyChange></FrequencyChanges></Clock>\n"	Arrow Flanker 2014-12351-1	60.016	1.0.0.100	1	2075224269	Professional	2.0.10.353	2.0.10.353	06-19-2015	6/19/2015 4:01:35 PM	12:01:35	2.0.10.248	2	NA	NA	NA	NA	NA	NA	NA	NA	NA	NA	NA	NA	NA	NA	NA	NA	NA	NA	NA	NA	NA	NA	NA	NA	1	1	1	PracBlockProc	PracBlockList	NA	3	{RIGHTARROW}	-100	NA	655	neutral	NA	NA	NA	0	16	156692	667	1	{RIGHTARROW}	-999999	0	157859	0	{RIGHTARROW}	804	158663	NA	6	1	3	NA	NA	PracTrialProc	PracTrialList	NA	NA	NA	NA	NA	NA	NA	NA	NA	NA	NA	NA	NA	NA	NA	NA	NA	NA	right	NA	ooroo.bmp	354	NA	NA	NA	NA	NA	NA	NA	NA	NA	NA	NA	NA	NA	NA	NA	NA	NA	NA	NA	NA	NA
Arrow Flanker 2014	12351	1	"<?xml version=""1.0""?>\n<Clock xmlns:dt=""urn:schemas-microsoft-com:datatypes""><Description dt:dt=""string"">E-Prime Primary Realtime Clock</Description><StartTime><Timestamp dt:dt=""int"">0</Timestamp><DateUtc dt:dt=""string"">2015-06-19T16:01:34Z</DateUtc></StartTime><FrequencyChanges><FrequencyChange><Frequency dt:dt=""r8"">2825566</Frequency><Timestamp dt:dt=""r8"">4344286607414</Timestamp><Current dt:dt=""r8"">0</Current><DateUtc dt:dt=""string"">2015-06-19T16:01:34Z</DateUtc></FrequencyChange></FrequencyChanges></Clock>\n"	Arrow Flanker 2014-12351-1	60.016	1.0.0.100	1	2075224269	Professional	2.0.10.353	2.0.10.353	06-19-2015	6/19/2015 4:01:35 PM	12:01:35	2.0.10.248	2	NA	NA	NA	NA	NA	NA	NA	NA	NA	NA	NA	NA	NA	NA	NA	NA	NA	NA	NA	NA	NA	NA	NA	NA	1	1	1	PracBlockProc	PracBlockList	NA	4	{LEFTARROW}	-100	NA	1450	incongruent	NA	NA	NA	0	16	160191	1450	0	{LEFTARROW}	-999999	0	162141	0	{RIGHTARROW}	1002	163143	NA	2	1	4	NA	NA	PracTrialProc	PracTrialList	NA	NA	NA	NA	NA	NA	NA	NA	NA	NA	NA	NA	NA	NA	NA	NA	NA	NA	left	NA	rrlrr.bmp	354	NA	NA	NA	NA	NA	NA	NA	NA	NA	NA	NA	NA	NA	NA	NA	NA	NA	NA	NA	NA	NA
Arrow Flanker 2014	12351	1	"<?xml version=""1.0""?>\n<Clock xmlns:dt=""urn:schemas-microsoft-com:datatypes""><Description dt:dt=""string"">E-Prime Primary Realtime Clock</Description><StartTime><Timestamp dt:dt=""int"">0</Timestamp><DateUtc dt:dt=""string"">2015-06-19T16:01:34Z</DateUtc></StartTime><FrequencyChanges><FrequencyChange><Frequency dt:dt=""r8"">2825566</Frequency><Timestamp dt:dt=""r8"">4344286607414</Timestamp><Current dt:dt=""r8"">0</Current><DateUtc dt:dt=""string"">2015-06-19T16:01:34Z</DateUtc></FrequencyChange></FrequencyChanges></Clock>\n"	Arrow Flanker 2014-12351-1	60.016	1.0.0.100	1	2075224269	Professional	2.0.10.353	2.0.10.353	06-19-2015	6/19/2015 4:01:35 PM	12:01:35	2.0.10.248	2	NA	NA	NA	NA	NA	NA	NA	NA	NA	NA	NA	NA	NA	NA	NA	NA	NA	NA	NA	NA	NA	NA	NA	NA	1	1	1	PracBlockProc	PracBlockList	NA	5	{LEFTARROW}	-100	NA	1414	congruent	NA	NA	NA	0	17	164674	1416	1	{LEFTARROW}	-999999	0	166590	0	{LEFTARROW}	521	167111	NA	1	1	5	NA	NA	PracTrialProc	PracTrialList	NA	NA	NA	NA	NA	NA	NA	NA	NA	NA	NA	NA	NA	NA	NA	NA	NA	NA	left	NA	lllll.bmp	354	NA	NA	NA	NA	NA	NA	NA	NA	NA	NA	NA	NA	NA	NA	NA	NA	NA	NA	NA	NA	NA
Arrow Flanker 2014	12351	1	"<?xml version=""1.0""?>\n<Clock xmlns:dt=""urn:schemas-microsoft-com:datatypes""><Description dt:dt=""string"">E-Prime Primary Realtime Clock</Description><StartTime><Timestamp dt:dt=""int"">0</Timestamp><DateUtc dt:dt=""string"">2015-06-19T16:01:34Z</DateUtc></StartTime><FrequencyChanges><FrequencyChange><Frequency dt:dt=""r8"">2825566</Frequency><Timestamp dt:dt=""r8"">4344286607414</Timestamp><Current dt:dt=""r8"">0</Current><DateUtc dt:dt=""string"">2015-06-19T16:01:34Z</DateUtc></FrequencyChange></FrequencyChanges></Clock>\n"	Arrow Flanker 2014-12351-1	60.016	1.0.0.100	1	2075224269	Professional	2.0.10.353	2.0.10.353	06-19-2015	6/19/2015 4:01:35 PM	12:01:35	2.0.10.248	2	NA	NA	NA	NA	NA	NA	NA	NA	NA	NA	NA	NA	NA	NA	NA	NA	NA	NA	NA	NA	NA	NA	NA	NA	1	1	1	PracBlockProc	PracBlockList	NA	6	{LEFTARROW}	-100	NA	626	neutral	NA	NA	NA	0	16	168639	634	1	{LEFTARROW}	-999999	0	169789	0	{LEFTARROW}	474	170263	NA	3	1	6	NA	NA	PracTrialProc	PracTrialList	NA	NA	NA	NA	NA	NA	NA	NA	NA	NA	NA	NA	NA	NA	NA	NA	NA	NA	left	NA	ooloo.bmp	354	NA	NA	NA	NA	NA	NA	NA	NA	NA	NA	NA	NA	NA	NA	NA	NA	NA	NA	NA	NA	NA
Arrow Flanker 2014	12351	1	"<?xml version=""1.0""?>\n<Clock xmlns:dt=""urn:schemas-microsoft-com:datatypes""><Description dt:dt=""string"">E-Prime Primary Realtime Clock</Description><StartTime><Timestamp dt:dt=""int"">0</Timestamp><DateUtc dt:dt=""string"">2015-06-19T16:01:34Z</DateUtc></StartTime><FrequencyChanges><FrequencyChange><Frequency dt:dt=""r8"">2825566</Frequency><Timestamp dt:dt=""r8"">4344286607414</Timestamp><Current dt:dt=""r8"">0</Current><DateUtc dt:dt=""string"">2015-06-19T16:01:34Z</DateUtc></FrequencyChange></FrequencyChanges></Clock>\n"	Arrow Flanker 2014-12351-1	60.016	1.0.0.100	1	2075224269	Professional	2.0.10.353	2.0.10.353	06-19-2015	6/19/2015 4:01:35 PM	12:01:35	2.0.10.248	3	NA	NA	NA	NA	NA	NA	NA	NA	NA	NA	NA	NA	NA	NA	NA	NA	NA	NA	NA	NA	NA	NA	NA	NA	1	2	2	PracBlockProc	PracBlockList	NA	1	{RIGHTARROW}	-100	NA	1459	neutral	NA	NA	NA	0	6	183036	1466	1	{RIGHTARROW}	-999999	0	185002	0	{RIGHTARROW}	620	185622	NA	6	2	7	NA	NA	PracTrialProc	PracTrialList	NA	NA	NA	NA	NA	NA	NA	NA	NA	NA	NA	NA	NA	NA	NA	NA	NA	NA	right	NA	ooroo.bmp	354	NA	NA	NA	NA	NA	NA	NA	NA	NA	NA	NA	NA	NA	NA	NA	NA	NA	NA	NA	NA	NA
Arrow Flanker 2014	12351	1	"<?xml version=""1.0""?>\n<Clock xmlns:dt=""urn:schemas-microsoft-com:datatypes""><Description dt:dt=""string"">E-Prime Primary Realtime Clock</Description><StartTime><Timestamp dt:dt=""int"">0</Timestamp><DateUtc dt:dt=""string"">2015-06-19T16:01:34Z</DateUtc></StartTime><FrequencyChanges><FrequencyChange><Frequency dt:dt=""r8"">2825566</Frequency><Timestamp dt:dt=""r8"">4344286607414</Timestamp><Current dt:dt=""r8"">0</Current><DateUtc dt:dt=""string"">2015-06-19T16:01:34Z</DateUtc></FrequencyChange></FrequencyChanges></Clock>\n"	Arrow Flanker 2014-12351-1	60.016	1.0.0.100	1	2075224269	Professional	2.0.10.353	2.0.10.353	06-19-2015	6/19/2015 4:01:35 PM	12:01:35	2.0.10.248	3	NA	NA	NA	NA	NA	NA	NA	NA	NA	NA	NA	NA	NA	NA	NA	NA	NA	NA	NA	NA	NA	NA	NA	NA	1	2	2	PracBlockProc	PracBlockList	NA	2	{LEFTARROW}	-100	NA	1228	neutral	NA	NA	NA	0	16	187151	1233	1	{LEFTARROW}	-999999	0	188884	0	{LEFTARROW}	482	189366	NA	3	2	8	NA	NA	PracTrialProc	PracTrialList	NA	NA	NA	NA	NA	NA	NA	NA	NA	NA	NA	NA	NA	NA	NA	NA	NA	NA	left	NA	ooloo.bmp	354	NA	NA	NA	NA	NA	NA	NA	NA	NA	NA	NA	NA	NA	NA	NA	NA	NA	NA	NA	NA	NA
Arrow Flanker 2014	12351	1	"<?xml version=""1.0""?>\n<Clock xmlns:dt=""urn:schemas-microsoft-com:datatypes""><Description dt:dt=""string"">E-Prime Primary Realtime Clock</Description><StartTime><Timestamp dt:dt=""int"">0</Timestamp><DateUtc dt:dt=""string"">2015-06-19T16:01:34Z</DateUtc></StartTime><FrequencyChanges><FrequencyChange><Frequency dt:dt=""r8"">2825566</Frequency><Timestamp dt:dt=""r8"">4344286607414</Timestamp><Current dt:dt=""r8"">0</Current><DateUtc dt:dt=""string"">2015-06-19T16:01:34Z</DateUtc></FrequencyChange></FrequencyChanges></Clock>\n"	Arrow Flanker 2014-12351-1	60.016	1.0.0.100	1	2075224269	Professional	2.0.10.353	2.0.10.353	06-19-2015	6/19/2015 4:01:35 PM	12:01:35	2.0.10.248	3	NA	NA	NA	NA	NA	NA	NA	NA	NA	NA	NA	NA	NA	NA	NA	NA	NA	NA	NA	NA	NA	NA	NA	NA	1	2	2	PracBlockProc	PracBlockList	NA	3	{RIGHTARROW}	-100	NA	700	incongruent	NA	NA	NA	0	16	190900	700	1	{RIGHTARROW}	-999999	0	192100	0	{RIGHTARROW}	1122	193222	NA	5	2	9	NA	NA	PracTrialProc	PracTrialList	NA	NA	NA	NA	NA	NA	NA	NA	NA	NA	NA	NA	NA	NA	NA	NA	NA	NA	right	NA	llrll.bmp	354	NA	NA	NA	NA	NA	NA	NA	NA	NA	NA	NA	NA	NA	NA	NA	NA	NA	NA	NA	NA	NA
Arrow Flanker 2014	12351	1	"<?xml version=""1.0""?>\n<Clock xmlns:dt=""urn:schemas-microsoft-com:datatypes""><Description dt:dt=""string"">E-Prime Primary Realtime Clock</Description><StartTime><Timestamp dt:dt=""int"">0</Timestamp><DateUtc dt:dt=""string"">2015-06-19T16:01:34Z</DateUtc></StartTime><FrequencyChanges><FrequencyChange><Frequency dt:dt=""r8"">2825566</Frequency><Timestamp dt:dt=""r8"">4344286607414</Timestamp><Current dt:dt=""r8"">0</Current><DateUtc dt:dt=""string"">2015-06-19T16:01:34Z</DateUtc></FrequencyChange></FrequencyChanges></Clock>\n"	Arrow Flanker 2014-12351-1	60.016	1.0.0.100	1	2075224269	Professional	2.0.10.353	2.0.10.353	06-19-2015	6/19/2015 4:01:35 PM	12:01:35	2.0.10.248	3	NA	NA	NA	NA	NA	NA	NA	NA	NA	NA	NA	NA	NA	NA	NA	NA	NA	NA	NA	NA	NA	NA	NA	NA	1	2	2	PracBlockProc	PracBlockList	NA	4	{LEFTARROW}	-100	NA	1194	congruent	NA	NA	NA	0	17	194766	1199	1	{LEFTARROW}	-999999	0	196465	0	{LEFTARROW}	533	196998	NA	1	2	10	NA	NA	PracTrialProc	PracTrialList	NA	NA	NA	NA	NA	NA	NA	NA	NA	NA	NA	NA	NA	NA	NA	NA	NA	NA	left	NA	lllll.bmp	354	NA	NA	NA	NA	NA	NA	NA	NA	NA	NA	NA	NA	NA	NA	NA	NA	NA	NA	NA	NA	NA
Arrow Flanker 2014	12351	1	"<?xml version=""1.0""?>\n<Clock xmlns:dt=""urn:schemas-microsoft-com:datatypes""><Description dt:dt=""string"">E-Prime Primary Realtime Clock</Description><StartTime><Timestamp dt:dt=""int"">0</Timestamp><DateUtc dt:dt=""string"">2015-06-19T16:01:34Z</DateUtc></StartTime><FrequencyChanges><FrequencyChange><Frequency dt:dt=""r8"">2825566</Frequency><Timestamp dt:dt=""r8"">4344286607414</Timestamp><Current dt:dt=""r8"">0</Current><DateUtc dt:dt=""string"">2015-06-19T16:01:34Z</DateUtc></FrequencyChange></FrequencyChanges></Clock>\n"	Arrow Flanker 2014-12351-1	60.016	1.0.0.100	1	2075224269	Professional	2.0.10.353	2.0.10.353	06-19-2015	6/19/2015 4:01:35 PM	12:01:35	2.0.10.248	3	NA	NA	NA	NA	NA	NA	NA	NA	NA	NA	NA	NA	NA	NA	NA	NA	NA	NA	NA	NA	NA	NA	NA	NA	1	2	2	PracBlockProc	PracBlockList	NA	5	{LEFTARROW}	-100	NA	1411	incongruent	NA	NA	NA	0	16	198531	1417	1	{LEFTARROW}	-999999	-1	200447	0	{LEFTARROW}	855	201302	NA	2	2	11	NA	NA	PracTrialProc	PracTrialList	NA	NA	NA	NA	NA	NA	NA	NA	NA	NA	NA	NA	NA	NA	NA	NA	NA	NA	left	NA	rrlrr.bmp	354	NA	NA	NA	NA	NA	NA	NA	NA	NA	NA	NA	NA	NA	NA	NA	NA	NA	NA	NA	NA	NA
Arrow Flanker 2014	12351	1	"<?xml version=""1.0""?>\n<Clock xmlns:dt=""urn:schemas-microsoft-com:datatypes""><Description dt:dt=""string"">E-Prime Primary Realtime Clock</Description><StartTime><Timestamp dt:dt=""int"">0</Timestamp><DateUtc dt:dt=""string"">2015-06-19T16:01:34Z</DateUtc></StartTime><FrequencyChanges><FrequencyChange><Frequency dt:dt=""r8"">2825566</Frequency><Timestamp dt:dt=""r8"">4344286607414</Timestamp><Current dt:dt=""r8"">0</Current><DateUtc dt:dt=""string"">2015-06-19T16:01:34Z</DateUtc></FrequencyChange></FrequencyChanges></Clock>\n"	Arrow Flanker 2014-12351-1	60.016	1.0.0.100	1	2075224269	Professional	2.0.10.353	2.0.10.353	06-19-2015	6/19/2015 4:01:35 PM	12:01:35	2.0.10.248	3	NA	NA	NA	NA	NA	NA	NA	NA	NA	NA	NA	NA	NA	NA	NA	NA	NA	NA	NA	NA	NA	NA	NA	NA	1	2	2	PracBlockProc	PracBlockList	NA	6	{RIGHTARROW}	-100	NA	416	congruent	NA	NA	NA	0	16	202830	417	1	{RIGHTARROW}	-999999	0	203747	0	{RIGHTARROW}	515	204262	NA	4	2	12	NA	NA	PracTrialProc	PracTrialList	NA	NA	NA	NA	NA	NA	NA	NA	NA	NA	NA	NA	NA	NA	NA	NA	NA	NA	right	NA	rrrrr.bmp	354	NA	NA	NA	NA	NA	NA	NA	NA	NA	NA	NA	NA	NA	NA	NA	NA	NA	NA	NA	NA	NA
Arrow Flanker 2014	12351	1	"<?xml version=""1.0""?>\n<Clock xmlns:dt=""urn:schemas-microsoft-com:datatypes""><Description dt:dt=""string"">E-Prime Primary Realtime Clock</Description><StartTime><Timestamp dt:dt=""int"">0</Timestamp><DateUtc dt:dt=""string"">2015-06-19T16:01:34Z</DateUtc></StartTime><FrequencyChanges><FrequencyChange><Frequency dt:dt=""r8"">2825566</Frequency><Timestamp dt:dt=""r8"">4344286607414</Timestamp><Current dt:dt=""r8"">0</Current><DateUtc dt:dt=""string"">2015-06-19T16:01:34Z</DateUtc></FrequencyChange></FrequencyChanges></Clock>\n"	Arrow Flanker 2014-12351-1	60.016	1.0.0.100	1	2075224269	Professional	2.0.10.353	2.0.10.353	06-19-2015	6/19/2015 4:01:35 PM	12:01:35	2.0.10.248	4	1	1	1	NA	NA	NA	NA	NA	NA	NA	NA	NA	NA	NA	NA	NA	NA	NA	NA	NA	NA	NA	NA	NA	NA	NA	NA	BlockProc	BlockList	NA	1	{LEFTARROW}	NA	-100	1772	neutral	NA	NA	NA	NA	NA	NA	NA	NA	NA	NA	NA	NA	NA	NA	NA	NA	NA	NA	NA	NA	NA	NA	TrialProc	TrialList	1	8	214510	17	0	16	212861	666	1	{LEFTARROW}	-999999	0	214027	0	{LEFTARROW}	474	214501	NA	NA	left	ooloo.bmp	354	0	NA	0	0	0	0	NA	0	0	0	NA	0	0	0	0	NA	0	0	5	1	1
Arrow Flanker 2014	12351	1	"<?xml version=""1.0""?>\n<Clock xmlns:dt=""urn:schemas-microsoft-com:datatypes""><Description dt:dt=""string"">E-Prime Primary Realtime Clock</Description><StartTime><Timestamp dt:dt=""int"">0</Timestamp><DateUtc dt:dt=""string"">2015-06-19T16:01:34Z</DateUtc></StartTime><FrequencyChanges><FrequencyChange><Frequency dt:dt=""r8"">2825566</Frequency><Timestamp dt:dt=""r8"">4344286607414</Timestamp><Current dt:dt=""r8"">0</Current><DateUtc dt:dt=""string"">2015-06-19T16:01:34Z</DateUtc></FrequencyChange></FrequencyChanges></Clock>\n"	Arrow Flanker 2014-12351-1	60.016	1.0.0.100	1	2075224269	Professional	2.0.10.353	2.0.10.353	06-19-2015	6/19/2015 4:01:35 PM	12:01:35	2.0.10.248	4	1	1	1	NA	NA	NA	NA	NA	NA	NA	NA	NA	NA	NA	NA	NA	NA	NA	NA	NA	NA	NA	NA	NA	NA	NA	NA	BlockProc	BlockList	NA	2	{LEFTARROW}	NA	-100	2357	neutral	NA	NA	NA	NA	NA	NA	NA	NA	NA	NA	NA	NA	NA	NA	NA	NA	NA	NA	NA	NA	NA	NA	TrialProc	TrialList	0	10	217343	17	0	17	215044	1366	1	{LEFTARROW}	-999999	0	216910	0	{LEFTARROW}	423	217333	NA	NA	left	ooloo.bmp	354	0	NA	0	0	0	0	NA	0	0	0	NA	0	0	0	0	NA	0	0	5	1	2
Arrow Flanker 2014	12351	1	"<?xml version=""1.0""?>\n<Clock xmlns:dt=""urn:schemas-microsoft-com:datatypes""><Description dt:dt=""string"">E-Prime Primary Realtime Clock</Description><StartTime><Timestamp dt:dt=""int"">0</Timestamp><DateUtc dt:dt=""string"">2015-06-19T16:01:34Z</DateUtc></StartTime><FrequencyChanges><FrequencyChange><Frequency dt:dt=""r8"">2825566</Frequency><Timestamp dt:dt=""r8"">4344286607414</Timestamp><Current dt:dt=""r8"">0</Current><DateUtc dt:dt=""string"">2015-06-19T16:01:34Z</DateUtc></FrequencyChange></FrequencyChanges></Clock>\n"	Arrow Flanker 2014-12351-1	60.016	1.0.0.100	1	2075224269	Professional	2.0.10.353	2.0.10.353	06-19-2015	6/19/2015 4:01:35 PM	12:01:35	2.0.10.248	4	1	1	1	NA	NA	NA	NA	NA	NA	NA	NA	NA	NA	NA	NA	NA	NA	NA	NA	NA	NA	NA	NA	NA	NA	NA	NA	BlockProc	BlockList	NA	3	{RIGHTARROW}	NA	-100	1519	congruent	NA	NA	NA	NA	NA	NA	NA	NA	NA	NA	NA	NA	NA	NA	NA	NA	NA	NA	NA	NA	NA	NA	TrialProc	TrialList	0	7	220476	16	0	16	217876	1500	1	{RIGHTARROW}	-999999	0	219876	0	{RIGHTARROW}	593	220469	NA	NA	right	rrrrr.bmp	354	0	NA	0	0	0	0	NA	0	0	0	NA	0	0	0	0	NA	0	0	2	1	3
Arrow Flanker 2014	12351	1	"<?xml version=""1.0""?>\n<Clock xmlns:dt=""urn:schemas-microsoft-com:datatypes""><Description dt:dt=""string"">E-Prime Primary Realtime Clock</Description><StartTime><Timestamp dt:dt=""int"">0</Timestamp><DateUtc dt:dt=""string"">2015-06-19T16:01:34Z</DateUtc></StartTime><FrequencyChanges><FrequencyChange><Frequency dt:dt=""r8"">2825566</Frequency><Timestamp dt:dt=""r8"">4344286607414</Timestamp><Current dt:dt=""r8"">0</Current><DateUtc dt:dt=""string"">2015-06-19T16:01:34Z</DateUtc></FrequencyChange></FrequencyChanges></Clock>\n"	Arrow Flanker 2014-12351-1	60.016	1.0.0.100	1	2075224269	Professional	2.0.10.353	2.0.10.353	06-19-2015	6/19/2015 4:01:35 PM	12:01:35	2.0.10.248	4	1	1	1	NA	NA	NA	NA	NA	NA	NA	NA	NA	NA	NA	NA	NA	NA	NA	NA	NA	NA	NA	NA	NA	NA	NA	NA	BlockProc	BlockList	NA	4	{RIGHTARROW}	NA	-100	998	neutral	NA	NA	NA	NA	NA	NA	NA	NA	NA	NA	NA	NA	NA	NA	NA	NA	NA	NA	NA	NA	NA	NA	TrialProc	TrialList	0	8	222925	17	0	17	221009	850	1	{RIGHTARROW}	-999999	-1	222358	0	{RIGHTARROW}	559	222917	NA	NA	right	ooroo.bmp	354	0	NA	0	0	0	0	NA	0	0	0	NA	0	0	0	0	NA	0	0	6	1	4
Arrow Flanker 2014	12351	1	"<?xml version=""1.0""?>\n<Clock xmlns:dt=""urn:schemas-microsoft-com:datatypes""><Description dt:dt=""string"">E-Prime Primary Realtime Clock</Description><StartTime><Timestamp dt:dt=""int"">0</Timestamp><DateUtc dt:dt=""string"">2015-06-19T16:01:34Z</DateUtc></StartTime><FrequencyChanges><FrequencyChange><Frequency dt:dt=""r8"">2825566</Frequency><Timestamp dt:dt=""r8"">4344286607414</Timestamp><Current dt:dt=""r8"">0</Current><DateUtc dt:dt=""string"">2015-06-19T16:01:34Z</DateUtc></FrequencyChange></FrequencyChanges></Clock>\n"	Arrow Flanker 2014-12351-1	60.016	1.0.0.100	1	2075224269	Professional	2.0.10.353	2.0.10.353	06-19-2015	6/19/2015 4:01:35 PM	12:01:35	2.0.10.248	4	1	1	1	NA	NA	NA	NA	NA	NA	NA	NA	NA	NA	NA	NA	NA	NA	NA	NA	NA	NA	NA	NA	NA	NA	NA	NA	BlockProc	BlockList	NA	5	{LEFTARROW}	NA	-100	1966	incongruent	NA	NA	NA	NA	NA	NA	NA	NA	NA	NA	NA	NA	NA	NA	NA	NA	NA	NA	NA	NA	NA	NA	TrialProc	TrialList	1	9	225374	17	0	16	223458	817	1	{LEFTARROW}	-999999	16	224791	0	{LEFTARROW}	574	225365	NA	NA	left	rrlrr.bmp	354	0	NA	0	0	0	0	NA	0	0	0	NA	0	0	0	0	NA	0	0	3	1	5
Arrow Flanker 2014	12351	1	"<?xml version=""1.0""?>\n<Clock xmlns:dt=""urn:schemas-microsoft-com:datatypes""><Description dt:dt=""string"">E-Prime Primary Realtime Clock</Description><StartTime><Timestamp dt:dt=""int"">0</Timestamp><DateUtc dt:dt=""string"">2015-06-19T16:01:34Z</DateUtc></StartTime><FrequencyChanges><FrequencyChange><Frequency dt:dt=""r8"">2825566</Frequency><Timestamp dt:dt=""r8"">4344286607414</Timestamp><Current dt:dt=""r8"">0</Current><DateUtc dt:dt=""string"">2015-06-19T16:01:34Z</DateUtc></FrequencyChange></FrequencyChanges></Clock>\n"	Arrow Flanker 2014-12351-1	60.016	1.0.0.100	1	2075224269	Professional	2.0.10.353	2.0.10.353	06-19-2015	6/19/2015 4:01:35 PM	12:01:35	2.0.10.248	4	1	1	1	NA	NA	NA	NA	NA	NA	NA	NA	NA	NA	NA	NA	NA	NA	NA	NA	NA	NA	NA	NA	NA	NA	NA	NA	BlockProc	BlockList	NA	6	{LEFTARROW}	NA	-100	2152	congruent	NA	NA	NA	NA	NA	NA	NA	NA	NA	NA	NA	NA	NA	NA	NA	NA	NA	NA	NA	NA	NA	NA	TrialProc	TrialList	1	17	228390	17	0	17	225908	1466	1	{LEFTARROW}	-999999	0	227874	0	{LEFTARROW}	499	228373	NA	NA	left	lllll.bmp	354	0	NA	0	0	0	0	NA	0	0	0	NA	0	0	0	0	NA	0	0	1	1	6
Arrow Flanker 2014	12351	1	"<?xml version=""1.0""?>\n<Clock xmlns:dt=""urn:schemas-microsoft-com:datatypes""><Description dt:dt=""string"">E-Prime Primary Realtime Clock</Description><StartTime><Timestamp dt:dt=""int"">0</Timestamp><DateUtc dt:dt=""string"">2015-06-19T16:01:34Z</DateUtc></StartTime><FrequencyChanges><FrequencyChange><Frequency dt:dt=""r8"">2825566</Frequency><Timestamp dt:dt=""r8"">4344286607414</Timestamp><Current dt:dt=""r8"">0</Current><DateUtc dt:dt=""string"">2015-06-19T16:01:34Z</DateUtc></FrequencyChange></FrequencyChanges></Clock>\n"	Arrow Flanker 2014-12351-1	60.016	1.0.0.100	1	2075224269	Professional	2.0.10.353	2.0.10.353	06-19-2015	6/19/2015 4:01:35 PM	12:01:35	2.0.10.248	4	1	1	1	NA	NA	NA	NA	NA	NA	NA	NA	NA	NA	NA	NA	NA	NA	NA	NA	NA	NA	NA	NA	NA	NA	NA	NA	BlockProc	BlockList	NA	7	{LEFTARROW}	NA	-100	1108	congruent	NA	NA	NA	NA	NA	NA	NA	NA	NA	NA	NA	NA	NA	NA	NA	NA	NA	NA	NA	NA	NA	NA	TrialProc	TrialList	0	21	230490	16	0	16	228923	467	1	{LEFTARROW}	-999999	0	229890	0	{LEFTARROW}	579	230469	NA	NA	left	lllll.bmp	354	0	NA	0	0	0	0	NA	0	0	0	NA	0	0	0	0	NA	0	0	1	1	7
Arrow Flanker 2014	12351	1	"<?xml version=""1.0""?>\n<Clock xmlns:dt=""urn:schemas-microsoft-com:datatypes""><Description dt:dt=""string"">E-Prime Primary Realtime Clock</Description><StartTime><Timestamp dt:dt=""int"">0</Timestamp><DateUtc dt:dt=""string"">2015-06-19T16:01:34Z</DateUtc></StartTime><FrequencyChanges><FrequencyChange><Frequency dt:dt=""r8"">2825566</Frequency><Timestamp dt:dt=""r8"">4344286607414</Timestamp><Current dt:dt=""r8"">0</Current><DateUtc dt:dt=""string"">2015-06-19T16:01:34Z</DateUtc></FrequencyChange></FrequencyChanges></Clock>\n"	Arrow Flanker 2014-12351-1	60.016	1.0.0.100	1	2075224269	Professional	2.0.10.353	2.0.10.353	06-19-2015	6/19/2015 4:01:35 PM	12:01:35	2.0.10.248	4	1	1	1	NA	NA	NA	NA	NA	NA	NA	NA	NA	NA	NA	NA	NA	NA	NA	NA	NA	NA	NA	NA	NA	NA	NA	NA	BlockProc	BlockList	NA	8	{RIGHTARROW}	NA	-100	1622	neutral	NA	NA	NA	NA	NA	NA	NA	NA	NA	NA	NA	NA	NA	NA	NA	NA	NA	NA	NA	NA	NA	NA	TrialProc	TrialList	1	17	233222	17	0	17	231023	983	1	{RIGHTARROW}	-999999	0	232506	0	{RIGHTARROW}	699	233205	NA	NA	right	ooroo.bmp	354	0	NA	0	0	0	0	NA	0	0	0	NA	0	0	0	0	NA	0	0	6	1	8
Arrow Flanker 2014	12351	1	"<?xml version=""1.0""?>\n<Clock xmlns:dt=""urn:schemas-microsoft-com:datatypes""><Description dt:dt=""string"">E-Prime Primary Realtime Clock</Description><StartTime><Timestamp dt:dt=""int"">0</Timestamp><DateUtc dt:dt=""string"">2015-06-19T16:01:34Z</DateUtc></StartTime><FrequencyChanges><FrequencyChange><Frequency dt:dt=""r8"">2825566</Frequency><Timestamp dt:dt=""r8"">4344286607414</Timestamp><Current dt:dt=""r8"">0</Current><DateUtc dt:dt=""string"">2015-06-19T16:01:34Z</DateUtc></FrequencyChange></FrequencyChanges></Clock>\n"	Arrow Flanker 2014-12351-1	60.016	1.0.0.100	1	2075224269	Professional	2.0.10.353	2.0.10.353	06-19-2015	6/19/2015 4:01:35 PM	12:01:35	2.0.10.248	4	1	1	1	NA	NA	NA	NA	NA	NA	NA	NA	NA	NA	NA	NA	NA	NA	NA	NA	NA	NA	NA	NA	NA	NA	NA	NA	BlockProc	BlockList	NA	9	{RIGHTARROW}	NA	-100	809	congruent	NA	NA	NA	NA	NA	NA	NA	NA	NA	NA	NA	NA	NA	NA	NA	NA	NA	NA	NA	NA	NA	NA	TrialProc	TrialList	0	8	235405	17	0	17	233756	666	1	{RIGHTARROW}	-999999	0	234922	0	{RIGHTARROW}	475	235397	NA	NA	right	rrrrr.bmp	354	0	NA	0	0	0	0	NA	0	0	0	NA	0	0	0	0	NA	0	0	2	1	9
Arrow Flanker 2014	12351	1	"<?xml version=""1.0""?>\n<Clock xmlns:dt=""urn:schemas-microsoft-com:datatypes""><Description dt:dt=""string"">E-Prime Primary Realtime Clock</Description><StartTime><Timestamp dt:dt=""int"">0</Timestamp><DateUtc dt:dt=""string"">2015-06-19T16:01:34Z</DateUtc></StartTime><FrequencyChanges><FrequencyChange><Frequency dt:dt=""r8"">2825566</Frequency><Timestamp dt:dt=""r8"">4344286607414</Timestamp><Current dt:dt=""r8"">0</Current><DateUtc dt:dt=""string"">2015-06-19T16:01:34Z</DateUtc></FrequencyChange></FrequencyChanges></Clock>\n"	Arrow Flanker 2014-12351-1	60.016	1.0.0.100	1	2075224269	Professional	2.0.10.353	2.0.10.353	06-19-2015	6/19/2015 4:01:35 PM	12:01:35	2.0.10.248	4	1	1	1	NA	NA	NA	NA	NA	NA	NA	NA	NA	NA	NA	NA	NA	NA	NA	NA	NA	NA	NA	NA	NA	NA	NA	NA	BlockProc	BlockList	NA	10	{RIGHTARROW}	NA	-100	2508	incongruent	NA	NA	NA	NA	NA	NA	NA	NA	NA	NA	NA	NA	NA	NA	NA	NA	NA	NA	NA	NA	NA	NA	TrialProc	TrialList	0	22	238571	16	0	16	235938	1583	1	{RIGHTARROW}	-999999	0	238021	0	{RIGHTARROW}	528	238549	NA	NA	right	llrll.bmp	354	0	NA	0	0	0	0	NA	0	0	0	NA	0	0	0	0	NA	0	0	4	1	10
Arrow Flanker 2014	12351	1	"<?xml version=""1.0""?>\n<Clock xmlns:dt=""urn:schemas-microsoft-com:datatypes""><Description dt:dt=""string"">E-Prime Primary Realtime Clock</Description><StartTime><Timestamp dt:dt=""int"">0</Timestamp><DateUtc dt:dt=""string"">2015-06-19T16:01:34Z</DateUtc></StartTime><FrequencyChanges><FrequencyChange><Frequency dt:dt=""r8"">2825566</Frequency><Timestamp dt:dt=""r8"">4344286607414</Timestamp><Current dt:dt=""r8"">0</Current><DateUtc dt:dt=""string"">2015-06-19T16:01:34Z</DateUtc></FrequencyChange></FrequencyChanges></Clock>\n"	Arrow Flanker 2014-12351-1	60.016	1.0.0.100	1	2075224269	Professional	2.0.10.353	2.0.10.353	06-19-2015	6/19/2015 4:01:35 PM	12:01:35	2.0.10.248	4	1	1	1	NA	NA	NA	NA	NA	NA	NA	NA	NA	NA	NA	NA	NA	NA	NA	NA	NA	NA	NA	NA	NA	NA	NA	NA	BlockProc	BlockList	NA	11	{RIGHTARROW}	NA	-100	1571	congruent	NA	NA	NA	NA	NA	NA	NA	NA	NA	NA	NA	NA	NA	NA	NA	NA	NA	NA	NA	NA	NA	NA	TrialProc	TrialList	0	14	240787	17	0	17	239104	700	1	{RIGHTARROW}	-999999	0	240304	0	{RIGHTARROW}	469	240773	NA	NA	right	rrrrr.bmp	354	0	NA	0	0	0	0	NA	0	0	0	NA	0	0	0	0	NA	0	0	2	1	11
Arrow Flanker 2014	12351	1	"<?xml version=""1.0""?>\n<Clock xmlns:dt=""urn:schemas-microsoft-com:datatypes""><Description dt:dt=""string"">E-Prime Primary Realtime Clock</Description><StartTime><Timestamp dt:dt=""int"">0</Timestamp><DateUtc dt:dt=""string"">2015-06-19T16:01:34Z</DateUtc></StartTime><FrequencyChanges><FrequencyChange><Frequency dt:dt=""r8"">2825566</Frequency><Timestamp dt:dt=""r8"">4344286607414</Timestamp><Current dt:dt=""r8"">0</Current><DateUtc dt:dt=""string"">2015-06-19T16:01:34Z</DateUtc></FrequencyChange></FrequencyChanges></Clock>\n"	Arrow Flanker 2014-12351-1	60.016	1.0.0.100	1	2075224269	Professional	2.0.10.353	2.0.10.353	06-19-2015	6/19/2015 4:01:35 PM	12:01:35	2.0.10.248	4	1	1	1	NA	NA	NA	NA	NA	NA	NA	NA	NA	NA	NA	NA	NA	NA	NA	NA	NA	NA	NA	NA	NA	NA	NA	NA	BlockProc	BlockList	NA	12	{RIGHTARROW}	NA	-100	1280	incongruent	NA	NA	NA	NA	NA	NA	NA	NA	NA	NA	NA	NA	NA	NA	NA	NA	NA	NA	NA	NA	NA	NA	TrialProc	TrialList	0	21	243370	16	0	16	241320	983	1	{RIGHTARROW}	-999999	0	242803	0	{RIGHTARROW}	546	243349	NA	NA	right	llrll.bmp	354	0	NA	0	0	0	0	NA	0	0	0	NA	0	0	0	0	NA	0	0	4	1	12
Arrow Flanker 2014	12351	1	"<?xml version=""1.0""?>\n<Clock xmlns:dt=""urn:schemas-microsoft-com:datatypes""><Description dt:dt=""string"">E-Prime Primary Realtime Clock</Description><StartTime><Timestamp dt:dt=""int"">0</Timestamp><DateUtc dt:dt=""string"">2015-06-19T16:01:34Z</DateUtc></StartTime><FrequencyChanges><FrequencyChange><Frequency dt:dt=""r8"">2825566</Frequency><Timestamp dt:dt=""r8"">4344286607414</Timestamp><Current dt:dt=""r8"">0</Current><DateUtc dt:dt=""string"">2015-06-19T16:01:34Z</DateUtc></FrequencyChange></FrequencyChanges></Clock>\n"	Arrow Flanker 2014-12351-1	60.016	1.0.0.100	1	2075224269	Professional	2.0.10.353	2.0.10.353	06-19-2015	6/19/2015 4:01:35 PM	12:01:35	2.0.10.248	4	1	1	1	NA	NA	NA	NA	NA	NA	NA	NA	NA	NA	NA	NA	NA	NA	NA	NA	NA	NA	NA	NA	NA	NA	NA	NA	BlockProc	BlockList	NA	13	{LEFTARROW}	NA	-100	458	incongruent	NA	NA	NA	NA	NA	NA	NA	NA	NA	NA	NA	NA	NA	NA	NA	NA	NA	NA	NA	NA	NA	NA	TrialProc	TrialList	0	9	245486	16	0	17	243903	416	1	{LEFTARROW}	-999999	0	244819	0	{LEFTARROW}	658	245477	NA	NA	left	rrlrr.bmp	354	0	NA	0	0	0	0	NA	0	0	0	NA	0	0	0	0	NA	0	0	3	1	13
Arrow Flanker 2014	12351	1	"<?xml version=""1.0""?>\n<Clock xmlns:dt=""urn:schemas-microsoft-com:datatypes""><Description dt:dt=""string"">E-Prime Primary Realtime Clock</Description><StartTime><Timestamp dt:dt=""int"">0</Timestamp><DateUtc dt:dt=""string"">2015-06-19T16:01:34Z</DateUtc></StartTime><FrequencyChanges><FrequencyChange><Frequency dt:dt=""r8"">2825566</Frequency><Timestamp dt:dt=""r8"">4344286607414</Timestamp><Current dt:dt=""r8"">0</Current><DateUtc dt:dt=""string"">2015-06-19T16:01:34Z</DateUtc></FrequencyChange></FrequencyChanges></Clock>\n"	Arrow Flanker 2014-12351-1	60.016	1.0.0.100	1	2075224269	Professional	2.0.10.353	2.0.10.353	06-19-2015	6/19/2015 4:01:35 PM	12:01:35	2.0.10.248	4	1	1	1	NA	NA	NA	NA	NA	NA	NA	NA	NA	NA	NA	NA	NA	NA	NA	NA	NA	NA	NA	NA	NA	NA	NA	NA	BlockProc	BlockList	NA	14	{LEFTARROW}	NA	-100	1659	incongruent	NA	NA	NA	NA	NA	NA	NA	NA	NA	NA	NA	NA	NA	NA	NA	NA	NA	NA	NA	NA	NA	NA	TrialProc	TrialList	1	15	247668	17	0	17	246019	533	1	{LEFTARROW}	-999999	0	247052	0	{LEFTARROW}	600	247652	NA	NA	left	rrlrr.bmp	354	0	NA	0	0	0	0	NA	0	0	0	NA	0	0	0	0	NA	0	0	3	1	14
Arrow Flanker 2014	12351	1	"<?xml version=""1.0""?>\n<Clock xmlns:dt=""urn:schemas-microsoft-com:datatypes""><Description dt:dt=""string"">E-Prime Primary Realtime Clock</Description><StartTime><Timestamp dt:dt=""int"">0</Timestamp><DateUtc dt:dt=""string"">2015-06-19T16:01:34Z</DateUtc></StartTime><FrequencyChanges><FrequencyChange><Frequency dt:dt=""r8"">2825566</Frequency><Timestamp dt:dt=""r8"">4344286607414</Timestamp><Current dt:dt=""r8"">0</Current><DateUtc dt:dt=""string"">2015-06-19T16:01:34Z</DateUtc></FrequencyChange></FrequencyChanges></Clock>\n"	Arrow Flanker 2014-12351-1	60.016	1.0.0.100	1	2075224269	Professional	2.0.10.353	2.0.10.353	06-19-2015	6/19/2015 4:01:35 PM	12:01:35	2.0.10.248	4	1	1	1	NA	NA	NA	NA	NA	NA	NA	NA	NA	NA	NA	NA	NA	NA	NA	NA	NA	NA	NA	NA	NA	NA	NA	NA	BlockProc	BlockList	NA	15	{LEFTARROW}	NA	-100	1455	neutral	NA	NA	NA	NA	NA	NA	NA	NA	NA	NA	NA	NA	NA	NA	NA	NA	NA	NA	NA	NA	NA	NA	TrialProc	TrialList	1	17	250534	17	0	17	248202	1300	1	{LEFTARROW}	-999999	0	250018	0	{LEFTARROW}	498	250516	NA	NA	left	ooloo.bmp	354	0	NA	0	0	0	0	NA	0	0	0	NA	0	0	0	0	NA	0	0	5	1	15
Arrow Flanker 2014	12351	1	"<?xml version=""1.0""?>\n<Clock xmlns:dt=""urn:schemas-microsoft-com:datatypes""><Description dt:dt=""string"">E-Prime Primary Realtime Clock</Description><StartTime><Timestamp dt:dt=""int"">0</Timestamp><DateUtc dt:dt=""string"">2015-06-19T16:01:34Z</DateUtc></StartTime><FrequencyChanges><FrequencyChange><Frequency dt:dt=""r8"">2825566</Frequency><Timestamp dt:dt=""r8"">4344286607414</Timestamp><Current dt:dt=""r8"">0</Current><DateUtc dt:dt=""string"">2015-06-19T16:01:34Z</DateUtc></FrequencyChange></FrequencyChanges></Clock>\n"	Arrow Flanker 2014-12351-1	60.016	1.0.0.100	1	2075224269	Professional	2.0.10.353	2.0.10.353	06-19-2015	6/19/2015 4:01:35 PM	12:01:35	2.0.10.248	4	1	1	1	NA	NA	NA	NA	NA	NA	NA	NA	NA	NA	NA	NA	NA	NA	NA	NA	NA	NA	NA	NA	NA	NA	NA	NA	BlockProc	BlockList	NA	16	{LEFTARROW}	NA	-100	1525	neutral	NA	NA	NA	NA	NA	NA	NA	NA	NA	NA	NA	NA	NA	NA	NA	NA	NA	NA	NA	NA	NA	NA	TrialProc	TrialList	0	21	253017	17	0	16	251067	867	1	{LEFTARROW}	-999999	0	252434	0	{LEFTARROW}	562	252996	NA	NA	left	ooloo.bmp	354	0	NA	0	0	0	0	NA	0	0	0	NA	0	0	0	0	NA	0	0	5	1	16
Arrow Flanker 2014	12351	1	"<?xml version=""1.0""?>\n<Clock xmlns:dt=""urn:schemas-microsoft-com:datatypes""><Description dt:dt=""string"">E-Prime Primary Realtime Clock</Description><StartTime><Timestamp dt:dt=""int"">0</Timestamp><DateUtc dt:dt=""string"">2015-06-19T16:01:34Z</DateUtc></StartTime><FrequencyChanges><FrequencyChange><Frequency dt:dt=""r8"">2825566</Frequency><Timestamp dt:dt=""r8"">4344286607414</Timestamp><Current dt:dt=""r8"">0</Current><DateUtc dt:dt=""string"">2015-06-19T16:01:34Z</DateUtc></FrequencyChange></FrequencyChanges></Clock>\n"	Arrow Flanker 2014-12351-1	60.016	1.0.0.100	1	2075224269	Professional	2.0.10.353	2.0.10.353	06-19-2015	6/19/2015 4:01:35 PM	12:01:35	2.0.10.248	4	1	1	1	NA	NA	NA	NA	NA	NA	NA	NA	NA	NA	NA	NA	NA	NA	NA	NA	NA	NA	NA	NA	NA	NA	NA	NA	BlockProc	BlockList	NA	17	{LEFTARROW}	NA	-100	931	congruent	NA	NA	NA	NA	NA	NA	NA	NA	NA	NA	NA	NA	NA	NA	NA	NA	NA	NA	NA	NA	NA	NA	TrialProc	TrialList	0	11	255200	16	0	16	253550	567	1	{LEFTARROW}	-999999	0	254617	0	{LEFTARROW}	571	255188	NA	NA	left	lllll.bmp	354	0	NA	0	0	0	0	NA	0	0	0	NA	0	0	0	0	NA	0	0	1	1	17
Arrow Flanker 2014	12351	1	"<?xml version=""1.0""?>\n<Clock xmlns:dt=""urn:schemas-microsoft-com:datatypes""><Description dt:dt=""string"">E-Prime Primary Realtime Clock</Description><StartTime><Timestamp dt:dt=""int"">0</Timestamp><DateUtc dt:dt=""string"">2015-06-19T16:01:34Z</DateUtc></StartTime><FrequencyChanges><FrequencyChange><Frequency dt:dt=""r8"">2825566</Frequency><Timestamp dt:dt=""r8"">4344286607414</Timestamp><Current dt:dt=""r8"">0</Current><DateUtc dt:dt=""string"">2015-06-19T16:01:34Z</DateUtc></FrequencyChange></FrequencyChanges></Clock>\n"	Arrow Flanker 2014-12351-1	60.016	1.0.0.100	1	2075224269	Professional	2.0.10.353	2.0.10.353	06-19-2015	6/19/2015 4:01:35 PM	12:01:35	2.0.10.248	4	1	1	1	NA	NA	NA	NA	NA	NA	NA	NA	NA	NA	NA	NA	NA	NA	NA	NA	NA	NA	NA	NA	NA	NA	NA	NA	BlockProc	BlockList	NA	18	{LEFTARROW}	NA	-100	2263	incongruent	NA	NA	NA	NA	NA	NA	NA	NA	NA	NA	NA	NA	NA	NA	NA	NA	NA	NA	NA	NA	NA	NA	TrialProc	TrialList	0	8	258316	16	0	17	255733	1600	1	{LEFTARROW}	-999999	0	257832	0	{LEFTARROW}	476	258308	NA	NA	left	rrlrr.bmp	354	0	NA	0	0	0	0	NA	0	0	0	NA	0	0	0	0	NA	0	0	3	1	18
Arrow Flanker 2014	12351	1	"<?xml version=""1.0""?>\n<Clock xmlns:dt=""urn:schemas-microsoft-com:datatypes""><Description dt:dt=""string"">E-Prime Primary Realtime Clock</Description><StartTime><Timestamp dt:dt=""int"">0</Timestamp><DateUtc dt:dt=""string"">2015-06-19T16:01:34Z</DateUtc></StartTime><FrequencyChanges><FrequencyChange><Frequency dt:dt=""r8"">2825566</Frequency><Timestamp dt:dt=""r8"">4344286607414</Timestamp><Current dt:dt=""r8"">0</Current><DateUtc dt:dt=""string"">2015-06-19T16:01:34Z</DateUtc></FrequencyChange></FrequencyChanges></Clock>\n"	Arrow Flanker 2014-12351-1	60.016	1.0.0.100	1	2075224269	Professional	2.0.10.353	2.0.10.353	06-19-2015	6/19/2015 4:01:35 PM	12:01:35	2.0.10.248	4	1	1	1	NA	NA	NA	NA	NA	NA	NA	NA	NA	NA	NA	NA	NA	NA	NA	NA	NA	NA	NA	NA	NA	NA	NA	NA	BlockProc	BlockList	NA	19	{LEFTARROW}	NA	-100	1701	neutral	NA	NA	NA	NA	NA	NA	NA	NA	NA	NA	NA	NA	NA	NA	NA	NA	NA	NA	NA	NA	NA	NA	TrialProc	TrialList	1	5	261065	16	0	17	258849	1283	1	{LEFTARROW}	-999999	0	260632	0	{LEFTARROW}	428	261060	NA	NA	left	ooloo.bmp	354	0	NA	0	0	0	0	NA	0	0	0	NA	0	0	0	0	NA	0	0	5	1	19
Arrow Flanker 2014	12351	1	"<?xml version=""1.0""?>\n<Clock xmlns:dt=""urn:schemas-microsoft-com:datatypes""><Description dt:dt=""string"">E-Prime Primary Realtime Clock</Description><StartTime><Timestamp dt:dt=""int"">0</Timestamp><DateUtc dt:dt=""string"">2015-06-19T16:01:34Z</DateUtc></StartTime><FrequencyChanges><FrequencyChange><Frequency dt:dt=""r8"">2825566</Frequency><Timestamp dt:dt=""r8"">4344286607414</Timestamp><Current dt:dt=""r8"">0</Current><DateUtc dt:dt=""string"">2015-06-19T16:01:34Z</DateUtc></FrequencyChange></FrequencyChanges></Clock>\n"	Arrow Flanker 2014-12351-1	60.016	1.0.0.100	1	2075224269	Professional	2.0.10.353	2.0.10.353	06-19-2015	6/19/2015 4:01:35 PM	12:01:35	2.0.10.248	4	1	1	1	NA	NA	NA	NA	NA	NA	NA	NA	NA	NA	NA	NA	NA	NA	NA	NA	NA	NA	NA	NA	NA	NA	NA	NA	BlockProc	BlockList	NA	20	{LEFTARROW}	NA	-100	1046	congruent	NA	NA	NA	NA	NA	NA	NA	NA	NA	NA	NA	NA	NA	NA	NA	NA	NA	NA	NA	NA	NA	NA	TrialProc	TrialList	0	12	263248	16	0	17	261598	600	1	{LEFTARROW}	-999999	0	262698	0	{LEFTARROW}	538	263236	NA	NA	left	lllll.bmp	354	0	NA	0	0	0	0	NA	0	0	0	NA	0	0	0	0	NA	0	0	1	1	20
Arrow Flanker 2014	12351	1	"<?xml version=""1.0""?>\n<Clock xmlns:dt=""urn:schemas-microsoft-com:datatypes""><Description dt:dt=""string"">E-Prime Primary Realtime Clock</Description><StartTime><Timestamp dt:dt=""int"">0</Timestamp><DateUtc dt:dt=""string"">2015-06-19T16:01:34Z</DateUtc></StartTime><FrequencyChanges><FrequencyChange><Frequency dt:dt=""r8"">2825566</Frequency><Timestamp dt:dt=""r8"">4344286607414</Timestamp><Current dt:dt=""r8"">0</Current><DateUtc dt:dt=""string"">2015-06-19T16:01:34Z</DateUtc></FrequencyChange></FrequencyChanges></Clock>\n"	Arrow Flanker 2014-12351-1	60.016	1.0.0.100	1	2075224269	Professional	2.0.10.353	2.0.10.353	06-19-2015	6/19/2015 4:01:35 PM	12:01:35	2.0.10.248	4	1	1	1	NA	NA	NA	NA	NA	NA	NA	NA	NA	NA	NA	NA	NA	NA	NA	NA	NA	NA	NA	NA	NA	NA	NA	NA	BlockProc	BlockList	NA	21	{RIGHTARROW}	NA	-100	543	congruent	NA	NA	NA	NA	NA	NA	NA	NA	NA	NA	NA	NA	NA	NA	NA	NA	NA	NA	NA	NA	NA	NA	TrialProc	TrialList	1	16	265380	17	0	17	263781	500	1	{RIGHTARROW}	-999999	0	264781	0	{RIGHTARROW}	583	265364	NA	NA	right	rrrrr.bmp	354	0	NA	0	0	0	0	NA	0	0	0	NA	0	0	0	0	NA	0	0	2	1	21
Arrow Flanker 2014	12351	1	"<?xml version=""1.0""?>\n<Clock xmlns:dt=""urn:schemas-microsoft-com:datatypes""><Description dt:dt=""string"">E-Prime Primary Realtime Clock</Description><StartTime><Timestamp dt:dt=""int"">0</Timestamp><DateUtc dt:dt=""string"">2015-06-19T16:01:34Z</DateUtc></StartTime><FrequencyChanges><FrequencyChange><Frequency dt:dt=""r8"">2825566</Frequency><Timestamp dt:dt=""r8"">4344286607414</Timestamp><Current dt:dt=""r8"">0</Current><DateUtc dt:dt=""string"">2015-06-19T16:01:34Z</DateUtc></FrequencyChange></FrequencyChanges></Clock>\n"	Arrow Flanker 2014-12351-1	60.016	1.0.0.100	1	2075224269	Professional	2.0.10.353	2.0.10.353	06-19-2015	6/19/2015 4:01:35 PM	12:01:35	2.0.10.248	4	1	1	1	NA	NA	NA	NA	NA	NA	NA	NA	NA	NA	NA	NA	NA	NA	NA	NA	NA	NA	NA	NA	NA	NA	NA	NA	BlockProc	BlockList	NA	22	{RIGHTARROW}	NA	-100	2234	congruent	NA	NA	NA	NA	NA	NA	NA	NA	NA	NA	NA	NA	NA	NA	NA	NA	NA	NA	NA	NA	1	NA	TrialProc	TrialList	1	6	268746	17	0	17	265914	1166	1	{RIGHTARROW}	-999999	0	267580	0	{RIGHTARROW}	1160	268740	NA	NA	right	rrrrr.bmp	354	0	NA	-999999	16	269279	0	1	7045	276324	0	NA	0	0	0	0	NA	0	0	2	1	22
Arrow Flanker 2014	12351	1	"<?xml version=""1.0""?>\n<Clock xmlns:dt=""urn:schemas-microsoft-com:datatypes""><Description dt:dt=""string"">E-Prime Primary Realtime Clock</Description><StartTime><Timestamp dt:dt=""int"">0</Timestamp><DateUtc dt:dt=""string"">2015-06-19T16:01:34Z</DateUtc></StartTime><FrequencyChanges><FrequencyChange><Frequency dt:dt=""r8"">2825566</Frequency><Timestamp dt:dt=""r8"">4344286607414</Timestamp><Current dt:dt=""r8"">0</Current><DateUtc dt:dt=""string"">2015-06-19T16:01:34Z</DateUtc></FrequencyChange></FrequencyChanges></Clock>\n"	Arrow Flanker 2014-12351-1	60.016	1.0.0.100	1	2075224269	Professional	2.0.10.353	2.0.10.353	06-19-2015	6/19/2015 4:01:35 PM	12:01:35	2.0.10.248	4	1	1	1	NA	NA	NA	NA	NA	NA	NA	NA	NA	NA	NA	NA	NA	NA	NA	NA	NA	NA	NA	NA	NA	NA	NA	NA	BlockProc	BlockList	NA	23	{LEFTARROW}	NA	-100	1666	congruent	NA	NA	NA	NA	NA	NA	NA	NA	NA	NA	NA	NA	NA	NA	NA	NA	NA	NA	NA	NA	NA	NA	TrialProc	TrialList	0	15	280243	17	0	17	277461	1233	1	{LEFTARROW}	-999999	16	279210	0	{LEFTARROW}	1018	280228	NA	NA	left	lllll.bmp	354	0	NA	0	0	0	0	NA	0	0	0	NA	0	0	0	0	NA	0	0	1	1	23
Arrow Flanker 2014	12351	1	"<?xml version=""1.0""?>\n<Clock xmlns:dt=""urn:schemas-microsoft-com:datatypes""><Description dt:dt=""string"">E-Prime Primary Realtime Clock</Description><StartTime><Timestamp dt:dt=""int"">0</Timestamp><DateUtc dt:dt=""string"">2015-06-19T16:01:34Z</DateUtc></StartTime><FrequencyChanges><FrequencyChange><Frequency dt:dt=""r8"">2825566</Frequency><Timestamp dt:dt=""r8"">4344286607414</Timestamp><Current dt:dt=""r8"">0</Current><DateUtc dt:dt=""string"">2015-06-19T16:01:34Z</DateUtc></FrequencyChange></FrequencyChanges></Clock>\n"	Arrow Flanker 2014-12351-1	60.016	1.0.0.100	1	2075224269	Professional	2.0.10.353	2.0.10.353	06-19-2015	6/19/2015 4:01:35 PM	12:01:35	2.0.10.248	4	1	1	1	NA	NA	NA	NA	NA	NA	NA	NA	NA	NA	NA	NA	NA	NA	NA	NA	NA	NA	NA	NA	NA	NA	NA	NA	BlockProc	BlockList	NA	24	{LEFTARROW}	NA	-100	1469	incongruent	NA	NA	NA	NA	NA	NA	NA	NA	NA	NA	NA	NA	NA	NA	NA	NA	NA	NA	NA	NA	NA	NA	TrialProc	TrialList	1	20	283592	17	0	16	280776	1317	1	{LEFTARROW}	-999999	16	282609	0	{LEFTARROW}	963	283572	NA	NA	left	rrlrr.bmp	354	0	NA	0	0	0	0	NA	0	0	0	NA	0	0	0	0	NA	0	0	3	1	24
Arrow Flanker 2014	12351	1	"<?xml version=""1.0""?>\n<Clock xmlns:dt=""urn:schemas-microsoft-com:datatypes""><Description dt:dt=""string"">E-Prime Primary Realtime Clock</Description><StartTime><Timestamp dt:dt=""int"">0</Timestamp><DateUtc dt:dt=""string"">2015-06-19T16:01:34Z</DateUtc></StartTime><FrequencyChanges><FrequencyChange><Frequency dt:dt=""r8"">2825566</Frequency><Timestamp dt:dt=""r8"">4344286607414</Timestamp><Current dt:dt=""r8"">0</Current><DateUtc dt:dt=""string"">2015-06-19T16:01:34Z</DateUtc></FrequencyChange></FrequencyChanges></Clock>\n"	Arrow Flanker 2014-12351-1	60.016	1.0.0.100	1	2075224269	Professional	2.0.10.353	2.0.10.353	06-19-2015	6/19/2015 4:01:35 PM	12:01:35	2.0.10.248	4	1	1	1	NA	NA	NA	NA	NA	NA	NA	NA	NA	NA	NA	NA	NA	NA	NA	NA	NA	NA	NA	NA	NA	NA	NA	NA	BlockProc	BlockList	NA	25	{LEFTARROW}	NA	-100	1703	neutral	NA	NA	NA	NA	NA	NA	NA	NA	NA	NA	NA	NA	NA	NA	NA	NA	NA	NA	NA	NA	NA	NA	TrialProc	TrialList	0	19	286375	17	0	16	284125	1017	1	{LEFTARROW}	-999999	0	285642	0	{LEFTARROW}	714	286356	NA	NA	left	ooloo.bmp	354	0	NA	0	0	0	0	NA	0	0	0	NA	0	0	0	0	NA	0	0	5	1	25
Arrow Flanker 2014	12351	1	"<?xml version=""1.0""?>\n<Clock xmlns:dt=""urn:schemas-microsoft-com:datatypes""><Description dt:dt=""string"">E-Prime Primary Realtime Clock</Description><StartTime><Timestamp dt:dt=""int"">0</Timestamp><DateUtc dt:dt=""string"">2015-06-19T16:01:34Z</DateUtc></StartTime><FrequencyChanges><FrequencyChange><Frequency dt:dt=""r8"">2825566</Frequency><Timestamp dt:dt=""r8"">4344286607414</Timestamp><Current dt:dt=""r8"">0</Current><DateUtc dt:dt=""string"">2015-06-19T16:01:34Z</DateUtc></FrequencyChange></FrequencyChanges></Clock>\n"	Arrow Flanker 2014-12351-1	60.016	1.0.0.100	1	2075224269	Professional	2.0.10.353	2.0.10.353	06-19-2015	6/19/2015 4:01:35 PM	12:01:35	2.0.10.248	4	1	1	1	NA	NA	NA	NA	NA	NA	NA	NA	NA	NA	NA	NA	NA	NA	NA	NA	NA	NA	NA	NA	NA	NA	NA	NA	BlockProc	BlockList	NA	26	{RIGHTARROW}	NA	-100	709	neutral	NA	NA	NA	NA	NA	NA	NA	NA	NA	NA	NA	NA	NA	NA	NA	NA	NA	NA	NA	NA	NA	NA	TrialProc	TrialList	0	12	288608	16	0	16	286908	0	1	{RIGHTARROW}	-999999	0	287891	0	{RIGHTARROW}	704	288595	NA	NA	right	ooroo.bmp	354	0	NA	0	0	0	0	NA	0	0	0	NA	0	0	0	0	NA	0	0	6	1	26
Arrow Flanker 2014	12351	1	"<?xml version=""1.0""?>\n<Clock xmlns:dt=""urn:schemas-microsoft-com:datatypes""><Description dt:dt=""string"">E-Prime Primary Realtime Clock</Description><StartTime><Timestamp dt:dt=""int"">0</Timestamp><DateUtc dt:dt=""string"">2015-06-19T16:01:34Z</DateUtc></StartTime><FrequencyChanges><FrequencyChange><Frequency dt:dt=""r8"">2825566</Frequency><Timestamp dt:dt=""r8"">4344286607414</Timestamp><Current dt:dt=""r8"">0</Current><DateUtc dt:dt=""string"">2015-06-19T16:01:34Z</DateUtc></FrequencyChange></FrequencyChanges></Clock>\n"	Arrow Flanker 2014-12351-1	60.016	1.0.0.100	1	2075224269	Professional	2.0.10.353	2.0.10.353	06-19-2015	6/19/2015 4:01:35 PM	12:01:35	2.0.10.248	4	1	1	1	NA	NA	NA	NA	NA	NA	NA	NA	NA	NA	NA	NA	NA	NA	NA	NA	NA	NA	NA	NA	NA	NA	NA	NA	BlockProc	BlockList	NA	27	{LEFTARROW}	NA	-100	1722	incongruent	NA	NA	NA	NA	NA	NA	NA	NA	NA	NA	NA	NA	NA	NA	NA	NA	NA	NA	NA	NA	NA	NA	TrialProc	TrialList	0	10	290974	16	0	17	289141	0	1	{LEFTARROW}	-999999	0	290324	0	{LEFTARROW}	639	290963	NA	NA	left	rrlrr.bmp	354	0	NA	0	0	0	0	NA	0	0	0	NA	0	0	0	0	NA	0	0	3	1	27
Arrow Flanker 2014	12351	1	"<?xml version=""1.0""?>\n<Clock xmlns:dt=""urn:schemas-microsoft-com:datatypes""><Description dt:dt=""string"">E-Prime Primary Realtime Clock</Description><StartTime><Timestamp dt:dt=""int"">0</Timestamp><DateUtc dt:dt=""string"">2015-06-19T16:01:34Z</DateUtc></StartTime><FrequencyChanges><FrequencyChange><Frequency dt:dt=""r8"">2825566</Frequency><Timestamp dt:dt=""r8"">4344286607414</Timestamp><Current dt:dt=""r8"">0</Current><DateUtc dt:dt=""string"">2015-06-19T16:01:34Z</DateUtc></FrequencyChange></FrequencyChanges></Clock>\n"	Arrow Flanker 2014-12351-1	60.016	1.0.0.100	1	2075224269	Professional	2.0.10.353	2.0.10.353	06-19-2015	6/19/2015 4:01:35 PM	12:01:35	2.0.10.248	4	1	1	1	NA	NA	NA	NA	NA	NA	NA	NA	NA	NA	NA	NA	NA	NA	NA	NA	NA	NA	NA	NA	NA	NA	NA	NA	BlockProc	BlockList	NA	28	{RIGHTARROW}	NA	-100	1371	incongruent	NA	NA	NA	NA	NA	NA	NA	NA	NA	NA	NA	NA	NA	NA	NA	NA	NA	NA	NA	NA	NA	NA	TrialProc	TrialList	0	10	294173	17	0	17	291507	0	1	{RIGHTARROW}	-999999	0	293206	0	{RIGHTARROW}	957	294163	NA	NA	right	llrll.bmp	354	0	NA	0	0	0	0	NA	0	0	0	NA	0	0	0	0	NA	0	0	4	1	28
Arrow Flanker 2014	12351	1	"<?xml version=""1.0""?>\n<Clock xmlns:dt=""urn:schemas-microsoft-com:datatypes""><Description dt:dt=""string"">E-Prime Primary Realtime Clock</Description><StartTime><Timestamp dt:dt=""int"">0</Timestamp><DateUtc dt:dt=""string"">2015-06-19T16:01:34Z</DateUtc></StartTime><FrequencyChanges><FrequencyChange><Frequency dt:dt=""r8"">2825566</Frequency><Timestamp dt:dt=""r8"">4344286607414</Timestamp><Current dt:dt=""r8"">0</Current><DateUtc dt:dt=""string"">2015-06-19T16:01:34Z</DateUtc></FrequencyChange></FrequencyChanges></Clock>\n"	Arrow Flanker 2014-12351-1	60.016	1.0.0.100	1	2075224269	Professional	2.0.10.353	2.0.10.353	06-19-2015	6/19/2015 4:01:35 PM	12:01:35	2.0.10.248	4	1	1	1	NA	NA	NA	NA	NA	NA	NA	NA	NA	NA	NA	NA	NA	NA	NA	NA	NA	NA	NA	NA	NA	NA	NA	NA	BlockProc	BlockList	NA	29	{LEFTARROW}	NA	-100	1508	neutral	NA	NA	NA	NA	NA	NA	NA	NA	NA	NA	NA	NA	NA	NA	NA	NA	NA	NA	NA	NA	NA	NA	TrialProc	TrialList	1	14	297105	17	0	16	294706	0	1	{LEFTARROW}	-999999	16	296572	0	{LEFTARROW}	519	297091	NA	NA	left	ooloo.bmp	354	0	NA	0	0	0	0	NA	0	0	0	NA	0	0	0	0	NA	0	0	5	1	29
Arrow Flanker 2014	12351	1	"<?xml version=""1.0""?>\n<Clock xmlns:dt=""urn:schemas-microsoft-com:datatypes""><Description dt:dt=""string"">E-Prime Primary Realtime Clock</Description><StartTime><Timestamp dt:dt=""int"">0</Timestamp><DateUtc dt:dt=""string"">2015-06-19T16:01:34Z</DateUtc></StartTime><FrequencyChanges><FrequencyChange><Frequency dt:dt=""r8"">2825566</Frequency><Timestamp dt:dt=""r8"">4344286607414</Timestamp><Current dt:dt=""r8"">0</Current><DateUtc dt:dt=""string"">2015-06-19T16:01:34Z</DateUtc></FrequencyChange></FrequencyChanges></Clock>\n"	Arrow Flanker 2014-12351-1	60.016	1.0.0.100	1	2075224269	Professional	2.0.10.353	2.0.10.353	06-19-2015	6/19/2015 4:01:35 PM	12:01:35	2.0.10.248	4	1	1	1	NA	NA	NA	NA	NA	NA	NA	NA	NA	NA	NA	NA	NA	NA	NA	NA	NA	NA	NA	NA	NA	NA	NA	NA	BlockProc	BlockList	NA	30	{RIGHTARROW}	NA	-100	1565	congruent	NA	NA	NA	NA	NA	NA	NA	NA	NA	NA	NA	NA	NA	NA	NA	NA	NA	NA	NA	NA	NA	NA	TrialProc	TrialList	1	8	300171	17	0	16	297638	0	1	{RIGHTARROW}	-999999	0	299388	0	{RIGHTARROW}	775	300163	NA	NA	right	rrrrr.bmp	354	0	NA	0	0	0	0	NA	0	0	0	NA	0	0	0	0	NA	0	0	2	1	30
Arrow Flanker 2014	12351	1	"<?xml version=""1.0""?>\n<Clock xmlns:dt=""urn:schemas-microsoft-com:datatypes""><Description dt:dt=""string"">E-Prime Primary Realtime Clock</Description><StartTime><Timestamp dt:dt=""int"">0</Timestamp><DateUtc dt:dt=""string"">2015-06-19T16:01:34Z</DateUtc></StartTime><FrequencyChanges><FrequencyChange><Frequency dt:dt=""r8"">2825566</Frequency><Timestamp dt:dt=""r8"">4344286607414</Timestamp><Current dt:dt=""r8"">0</Current><DateUtc dt:dt=""string"">2015-06-19T16:01:34Z</DateUtc></FrequencyChange></FrequencyChanges></Clock>\n"	Arrow Flanker 2014-12351-1	60.016	1.0.0.100	1	2075224269	Professional	2.0.10.353	2.0.10.353	06-19-2015	6/19/2015 4:01:35 PM	12:01:35	2.0.10.248	4	1	1	1	NA	NA	NA	NA	NA	NA	NA	NA	NA	NA	NA	NA	NA	NA	NA	NA	NA	NA	NA	NA	NA	NA	NA	NA	BlockProc	BlockList	NA	31	{RIGHTARROW}	NA	-100	2187	congruent	NA	NA	NA	NA	NA	NA	NA	NA	NA	NA	NA	NA	NA	NA	NA	NA	NA	NA	NA	NA	NA	NA	TrialProc	TrialList	1	9	303820	17	0	16	300704	0	1	{RIGHTARROW}	-999999	-1	302770	0	{RIGHTARROW}	1041	303811	NA	NA	right	rrrrr.bmp	354	0	NA	0	0	0	0	NA	0	0	0	NA	0	0	0	0	NA	0	0	2	1	31
Arrow Flanker 2014	12351	1	"<?xml version=""1.0""?>\n<Clock xmlns:dt=""urn:schemas-microsoft-com:datatypes""><Description dt:dt=""string"">E-Prime Primary Realtime Clock</Description><StartTime><Timestamp dt:dt=""int"">0</Timestamp><DateUtc dt:dt=""string"">2015-06-19T16:01:34Z</DateUtc></StartTime><FrequencyChanges><FrequencyChange><Frequency dt:dt=""r8"">2825566</Frequency><Timestamp dt:dt=""r8"">4344286607414</Timestamp><Current dt:dt=""r8"">0</Current><DateUtc dt:dt=""string"">2015-06-19T16:01:34Z</DateUtc></FrequencyChange></FrequencyChanges></Clock>\n"	Arrow Flanker 2014-12351-1	60.016	1.0.0.100	1	2075224269	Professional	2.0.10.353	2.0.10.353	06-19-2015	6/19/2015 4:01:35 PM	12:01:35	2.0.10.248	4	1	1	1	NA	NA	NA	NA	NA	NA	NA	NA	NA	NA	NA	NA	NA	NA	NA	NA	NA	NA	NA	NA	NA	NA	NA	NA	BlockProc	BlockList	NA	32	{LEFTARROW}	NA	-100	2232	congruent	NA	NA	NA	NA	NA	NA	NA	NA	NA	NA	NA	NA	NA	NA	NA	NA	NA	NA	NA	NA	NA	NA	TrialProc	TrialList	1	5	306920	16	0	16	304353	0	1	{LEFTARROW}	-999999	0	306136	0	{LEFTARROW}	779	306915	NA	NA	left	lllll.bmp	354	0	NA	0	0	0	0	NA	0	0	0	NA	0	0	0	0	NA	0	0	1	1	32
Arrow Flanker 2014	12351	1	"<?xml version=""1.0""?>\n<Clock xmlns:dt=""urn:schemas-microsoft-com:datatypes""><Description dt:dt=""string"">E-Prime Primary Realtime Clock</Description><StartTime><Timestamp dt:dt=""int"">0</Timestamp><DateUtc dt:dt=""string"">2015-06-19T16:01:34Z</DateUtc></StartTime><FrequencyChanges><FrequencyChange><Frequency dt:dt=""r8"">2825566</Frequency><Timestamp dt:dt=""r8"">4344286607414</Timestamp><Current dt:dt=""r8"">0</Current><DateUtc dt:dt=""string"">2015-06-19T16:01:34Z</DateUtc></FrequencyChange></FrequencyChanges></Clock>\n"	Arrow Flanker 2014-12351-1	60.016	1.0.0.100	1	2075224269	Professional	2.0.10.353	2.0.10.353	06-19-2015	6/19/2015 4:01:35 PM	12:01:35	2.0.10.248	4	1	1	1	NA	NA	NA	NA	NA	NA	NA	NA	NA	NA	NA	NA	NA	NA	NA	NA	NA	NA	NA	NA	NA	NA	NA	NA	BlockProc	BlockList	NA	33	{LEFTARROW}	NA	-100	1373	congruent	NA	NA	NA	NA	NA	NA	NA	NA	NA	NA	NA	NA	NA	NA	NA	NA	NA	NA	NA	NA	NA	NA	TrialProc	TrialList	1	20	309335	17	0	17	307453	0	1	{LEFTARROW}	-999999	0	308736	0	{LEFTARROW}	579	309315	NA	NA	left	lllll.bmp	354	0	NA	0	0	0	0	NA	0	0	0	NA	0	0	0	0	NA	0	0	1	1	33
Arrow Flanker 2014	12351	1	"<?xml version=""1.0""?>\n<Clock xmlns:dt=""urn:schemas-microsoft-com:datatypes""><Description dt:dt=""string"">E-Prime Primary Realtime Clock</Description><StartTime><Timestamp dt:dt=""int"">0</Timestamp><DateUtc dt:dt=""string"">2015-06-19T16:01:34Z</DateUtc></StartTime><FrequencyChanges><FrequencyChange><Frequency dt:dt=""r8"">2825566</Frequency><Timestamp dt:dt=""r8"">4344286607414</Timestamp><Current dt:dt=""r8"">0</Current><DateUtc dt:dt=""string"">2015-06-19T16:01:34Z</DateUtc></FrequencyChange></FrequencyChanges></Clock>\n"	Arrow Flanker 2014-12351-1	60.016	1.0.0.100	1	2075224269	Professional	2.0.10.353	2.0.10.353	06-19-2015	6/19/2015 4:01:35 PM	12:01:35	2.0.10.248	4	1	1	1	NA	NA	NA	NA	NA	NA	NA	NA	NA	NA	NA	NA	NA	NA	NA	NA	NA	NA	NA	NA	NA	NA	NA	NA	BlockProc	BlockList	NA	34	{RIGHTARROW}	NA	-100	1462	neutral	NA	NA	NA	NA	NA	NA	NA	NA	NA	NA	NA	NA	NA	NA	NA	NA	NA	NA	NA	NA	NA	NA	TrialProc	TrialList	1	12	311951	17	0	17	309869	0	1	{RIGHTARROW}	-999999	0	311352	0	{RIGHTARROW}	587	311939	NA	NA	right	ooroo.bmp	354	0	NA	0	0	0	0	NA	0	0	0	NA	0	0	0	0	NA	0	0	6	1	34
Arrow Flanker 2014	12351	1	"<?xml version=""1.0""?>\n<Clock xmlns:dt=""urn:schemas-microsoft-com:datatypes""><Description dt:dt=""string"">E-Prime Primary Realtime Clock</Description><StartTime><Timestamp dt:dt=""int"">0</Timestamp><DateUtc dt:dt=""string"">2015-06-19T16:01:34Z</DateUtc></StartTime><FrequencyChanges><FrequencyChange><Frequency dt:dt=""r8"">2825566</Frequency><Timestamp dt:dt=""r8"">4344286607414</Timestamp><Current dt:dt=""r8"">0</Current><DateUtc dt:dt=""string"">2015-06-19T16:01:34Z</DateUtc></FrequencyChange></FrequencyChanges></Clock>\n"	Arrow Flanker 2014-12351-1	60.016	1.0.0.100	1	2075224269	Professional	2.0.10.353	2.0.10.353	06-19-2015	6/19/2015 4:01:35 PM	12:01:35	2.0.10.248	4	1	1	1	NA	NA	NA	NA	NA	NA	NA	NA	NA	NA	NA	NA	NA	NA	NA	NA	NA	NA	NA	NA	NA	NA	NA	NA	BlockProc	BlockList	NA	35	{LEFTARROW}	NA	-100	2137	neutral	NA	NA	NA	NA	NA	NA	NA	NA	NA	NA	NA	NA	NA	NA	NA	NA	NA	NA	NA	NA	NA	NA	TrialProc	TrialList	0	5	314568	16	0	17	312485	0	1	{LEFTARROW}	-999999	0	314018	0	{LEFTARROW}	545	314563	NA	NA	left	ooloo.bmp	354	0	NA	0	0	0	0	NA	0	0	0	NA	0	0	0	0	NA	0	0	5	1	35
Arrow Flanker 2014	12351	1	"<?xml version=""1.0""?>\n<Clock xmlns:dt=""urn:schemas-microsoft-com:datatypes""><Description dt:dt=""string"">E-Prime Primary Realtime Clock</Description><StartTime><Timestamp dt:dt=""int"">0</Timestamp><DateUtc dt:dt=""string"">2015-06-19T16:01:34Z</DateUtc></StartTime><FrequencyChanges><FrequencyChange><Frequency dt:dt=""r8"">2825566</Frequency><Timestamp dt:dt=""r8"">4344286607414</Timestamp><Current dt:dt=""r8"">0</Current><DateUtc dt:dt=""string"">2015-06-19T16:01:34Z</DateUtc></FrequencyChange></FrequencyChanges></Clock>\n"	Arrow Flanker 2014-12351-1	60.016	1.0.0.100	1	2075224269	Professional	2.0.10.353	2.0.10.353	06-19-2015	6/19/2015 4:01:35 PM	12:01:35	2.0.10.248	4	1	1	1	NA	NA	NA	NA	NA	NA	NA	NA	NA	NA	NA	NA	NA	NA	NA	NA	NA	NA	NA	NA	NA	NA	NA	NA	BlockProc	BlockList	NA	36	{RIGHTARROW}	NA	-100	894	incongruent	NA	NA	NA	NA	NA	NA	NA	NA	NA	NA	NA	NA	NA	NA	NA	NA	NA	NA	NA	NA	NA	NA	TrialProc	TrialList	0	19	317350	17	0	17	315101	0	1	{RIGHTARROW}	-999999	0	316450	0	{RIGHTARROW}	881	317331	NA	NA	right	llrll.bmp	354	0	NA	0	0	0	0	NA	0	0	0	NA	0	0	0	0	NA	0	0	4	1	36
Arrow Flanker 2014	12351	1	"<?xml version=""1.0""?>\n<Clock xmlns:dt=""urn:schemas-microsoft-com:datatypes""><Description dt:dt=""string"">E-Prime Primary Realtime Clock</Description><StartTime><Timestamp dt:dt=""int"">0</Timestamp><DateUtc dt:dt=""string"">2015-06-19T16:01:34Z</DateUtc></StartTime><FrequencyChanges><FrequencyChange><Frequency dt:dt=""r8"">2825566</Frequency><Timestamp dt:dt=""r8"">4344286607414</Timestamp><Current dt:dt=""r8"">0</Current><DateUtc dt:dt=""string"">2015-06-19T16:01:34Z</DateUtc></FrequencyChange></FrequencyChanges></Clock>\n"	Arrow Flanker 2014-12351-1	60.016	1.0.0.100	1	2075224269	Professional	2.0.10.353	2.0.10.353	06-19-2015	6/19/2015 4:01:35 PM	12:01:35	2.0.10.248	4	1	1	1	NA	NA	NA	NA	NA	NA	NA	NA	NA	NA	NA	NA	NA	NA	NA	NA	NA	NA	NA	NA	NA	NA	NA	NA	BlockProc	BlockList	NA	37	{RIGHTARROW}	NA	-100	2278	congruent	NA	NA	NA	NA	NA	NA	NA	NA	NA	NA	NA	NA	NA	NA	NA	NA	NA	NA	NA	NA	1	NA	TrialProc	TrialList	0	5	320616	17	0	16	317883	0	1	{RIGHTARROW}	-999999	0	319883	0	{RIGHTARROW}	728	320611	NA	NA	right	rrrrr.bmp	354	0	NA	-999999	16	321149	0	1	2742	323891	0	NA	0	0	0	0	NA	0	0	2	1	37
Arrow Flanker 2014	12351	1	"<?xml version=""1.0""?>\n<Clock xmlns:dt=""urn:schemas-microsoft-com:datatypes""><Description dt:dt=""string"">E-Prime Primary Realtime Clock</Description><StartTime><Timestamp dt:dt=""int"">0</Timestamp><DateUtc dt:dt=""string"">2015-06-19T16:01:34Z</DateUtc></StartTime><FrequencyChanges><FrequencyChange><Frequency dt:dt=""r8"">2825566</Frequency><Timestamp dt:dt=""r8"">4344286607414</Timestamp><Current dt:dt=""r8"">0</Current><DateUtc dt:dt=""string"">2015-06-19T16:01:34Z</DateUtc></FrequencyChange></FrequencyChanges></Clock>\n"	Arrow Flanker 2014-12351-1	60.016	1.0.0.100	1	2075224269	Professional	2.0.10.353	2.0.10.353	06-19-2015	6/19/2015 4:01:35 PM	12:01:35	2.0.10.248	4	1	1	1	NA	NA	NA	NA	NA	NA	NA	NA	NA	NA	NA	NA	NA	NA	NA	NA	NA	NA	NA	NA	NA	NA	NA	NA	BlockProc	BlockList	NA	38	{LEFTARROW}	NA	-100	801	incongruent	NA	NA	NA	NA	NA	NA	NA	NA	NA	NA	NA	NA	NA	NA	NA	NA	NA	NA	NA	NA	NA	NA	TrialProc	TrialList	1	5	326664	17	0	22	324681	0	1	{LEFTARROW}	-999999	16	325831	0	{LEFTARROW}	827	326658	NA	NA	left	rrlrr.bmp	354	0	NA	0	0	0	0	NA	0	0	0	NA	0	0	0	0	NA	0	0	3	1	38
Arrow Flanker 2014	12351	1	"<?xml version=""1.0""?>\n<Clock xmlns:dt=""urn:schemas-microsoft-com:datatypes""><Description dt:dt=""string"">E-Prime Primary Realtime Clock</Description><StartTime><Timestamp dt:dt=""int"">0</Timestamp><DateUtc dt:dt=""string"">2015-06-19T16:01:34Z</DateUtc></StartTime><FrequencyChanges><FrequencyChange><Frequency dt:dt=""r8"">2825566</Frequency><Timestamp dt:dt=""r8"">4344286607414</Timestamp><Current dt:dt=""r8"">0</Current><DateUtc dt:dt=""string"">2015-06-19T16:01:34Z</DateUtc></FrequencyChange></FrequencyChanges></Clock>\n"	Arrow Flanker 2014-12351-1	60.016	1.0.0.100	1	2075224269	Professional	2.0.10.353	2.0.10.353	06-19-2015	6/19/2015 4:01:35 PM	12:01:35	2.0.10.248	4	1	1	1	NA	NA	NA	NA	NA	NA	NA	NA	NA	NA	NA	NA	NA	NA	NA	NA	NA	NA	NA	NA	NA	NA	NA	NA	BlockProc	BlockList	NA	39	{LEFTARROW}	NA	-100	2012	congruent	NA	NA	NA	NA	NA	NA	NA	NA	NA	NA	NA	NA	NA	NA	NA	NA	NA	NA	NA	NA	NA	NA	TrialProc	TrialList	0	6	329897	16	0	16	327197	1500	1	{LEFTARROW}	-999999	0	329197	0	{LEFTARROW}	693	329890	NA	NA	left	lllll.bmp	354	0	NA	0	0	0	0	NA	0	0	0	NA	0	0	0	0	NA	0	0	1	1	39
Arrow Flanker 2014	12351	1	"<?xml version=""1.0""?>\n<Clock xmlns:dt=""urn:schemas-microsoft-com:datatypes""><Description dt:dt=""string"">E-Prime Primary Realtime Clock</Description><StartTime><Timestamp dt:dt=""int"">0</Timestamp><DateUtc dt:dt=""string"">2015-06-19T16:01:34Z</DateUtc></StartTime><FrequencyChanges><FrequencyChange><Frequency dt:dt=""r8"">2825566</Frequency><Timestamp dt:dt=""r8"">4344286607414</Timestamp><Current dt:dt=""r8"">0</Current><DateUtc dt:dt=""string"">2015-06-19T16:01:34Z</DateUtc></FrequencyChange></FrequencyChanges></Clock>\n"	Arrow Flanker 2014-12351-1	60.016	1.0.0.100	1	2075224269	Professional	2.0.10.353	2.0.10.353	06-19-2015	6/19/2015 4:01:35 PM	12:01:35	2.0.10.248	4	1	1	1	NA	NA	NA	NA	NA	NA	NA	NA	NA	NA	NA	NA	NA	NA	NA	NA	NA	NA	NA	NA	NA	NA	NA	NA	BlockProc	BlockList	NA	40	{LEFTARROW}	NA	-100	1846	incongruent	NA	NA	NA	NA	NA	NA	NA	NA	NA	NA	NA	NA	NA	NA	NA	NA	NA	NA	NA	NA	NA	NA	TrialProc	TrialList	1	7	332729	17	0	17	330430	0	1	{LEFTARROW}	-999999	0	332096	0	{LEFTARROW}	626	332722	NA	NA	left	rrlrr.bmp	354	0	NA	0	0	0	0	NA	0	0	0	NA	0	0	0	0	NA	0	0	3	1	40
Arrow Flanker 2014	12351	1	"<?xml version=""1.0""?>\n<Clock xmlns:dt=""urn:schemas-microsoft-com:datatypes""><Description dt:dt=""string"">E-Prime Primary Realtime Clock</Description><StartTime><Timestamp dt:dt=""int"">0</Timestamp><DateUtc dt:dt=""string"">2015-06-19T16:01:34Z</DateUtc></StartTime><FrequencyChanges><FrequencyChange><Frequency dt:dt=""r8"">2825566</Frequency><Timestamp dt:dt=""r8"">4344286607414</Timestamp><Current dt:dt=""r8"">0</Current><DateUtc dt:dt=""string"">2015-06-19T16:01:34Z</DateUtc></FrequencyChange></FrequencyChanges></Clock>\n"	Arrow Flanker 2014-12351-1	60.016	1.0.0.100	1	2075224269	Professional	2.0.10.353	2.0.10.353	06-19-2015	6/19/2015 4:01:35 PM	12:01:35	2.0.10.248	4	1	1	1	NA	NA	NA	NA	NA	NA	NA	NA	NA	NA	NA	NA	NA	NA	NA	NA	NA	NA	NA	NA	NA	NA	NA	NA	BlockProc	BlockList	NA	41	{RIGHTARROW}	NA	-100	1661	congruent	NA	NA	NA	NA	NA	NA	NA	NA	NA	NA	NA	NA	NA	NA	NA	NA	NA	NA	NA	NA	NA	NA	TrialProc	TrialList	0	9	335179	16	0	16	333262	0	1	{RIGHTARROW}	-999999	0	334429	0	{RIGHTARROW}	741	335170	NA	NA	right	rrrrr.bmp	354	0	NA	0	0	0	0	NA	0	0	0	NA	0	0	0	0	NA	0	0	2	1	41
Arrow Flanker 2014	12351	1	"<?xml version=""1.0""?>\n<Clock xmlns:dt=""urn:schemas-microsoft-com:datatypes""><Description dt:dt=""string"">E-Prime Primary Realtime Clock</Description><StartTime><Timestamp dt:dt=""int"">0</Timestamp><DateUtc dt:dt=""string"">2015-06-19T16:01:34Z</DateUtc></StartTime><FrequencyChanges><FrequencyChange><Frequency dt:dt=""r8"">2825566</Frequency><Timestamp dt:dt=""r8"">4344286607414</Timestamp><Current dt:dt=""r8"">0</Current><DateUtc dt:dt=""string"">2015-06-19T16:01:34Z</DateUtc></FrequencyChange></FrequencyChanges></Clock>\n"	Arrow Flanker 2014-12351-1	60.016	1.0.0.100	1	2075224269	Professional	2.0.10.353	2.0.10.353	06-19-2015	6/19/2015 4:01:35 PM	12:01:35	2.0.10.248	4	1	1	1	NA	NA	NA	NA	NA	NA	NA	NA	NA	NA	NA	NA	NA	NA	NA	NA	NA	NA	NA	NA	NA	NA	NA	NA	BlockProc	BlockList	NA	42	{LEFTARROW}	NA	-100	1914	incongruent	NA	NA	NA	NA	NA	NA	NA	NA	NA	NA	NA	NA	NA	NA	NA	NA	NA	NA	NA	NA	NA	NA	TrialProc	TrialList	0	9	337995	16	0	17	335712	0	1	{LEFTARROW}	-999999	0	337495	0	{LEFTARROW}	491	337986	NA	NA	left	rrlrr.bmp	354	0	NA	0	0	0	0	NA	0	0	0	NA	0	0	0	0	NA	0	0	3	1	42
Arrow Flanker 2014	12351	1	"<?xml version=""1.0""?>\n<Clock xmlns:dt=""urn:schemas-microsoft-com:datatypes""><Description dt:dt=""string"">E-Prime Primary Realtime Clock</Description><StartTime><Timestamp dt:dt=""int"">0</Timestamp><DateUtc dt:dt=""string"">2015-06-19T16:01:34Z</DateUtc></StartTime><FrequencyChanges><FrequencyChange><Frequency dt:dt=""r8"">2825566</Frequency><Timestamp dt:dt=""r8"">4344286607414</Timestamp><Current dt:dt=""r8"">0</Current><DateUtc dt:dt=""string"">2015-06-19T16:01:34Z</DateUtc></FrequencyChange></FrequencyChanges></Clock>\n"	Arrow Flanker 2014-12351-1	60.016	1.0.0.100	1	2075224269	Professional	2.0.10.353	2.0.10.353	06-19-2015	6/19/2015 4:01:35 PM	12:01:35	2.0.10.248	4	1	1	1	NA	NA	NA	NA	NA	NA	NA	NA	NA	NA	NA	NA	NA	NA	NA	NA	NA	NA	NA	NA	NA	NA	NA	NA	BlockProc	BlockList	NA	43	{LEFTARROW}	NA	-100	1527	incongruent	NA	NA	NA	NA	NA	NA	NA	NA	NA	NA	NA	NA	NA	NA	NA	NA	NA	NA	NA	NA	NA	NA	TrialProc	TrialList	0	13	340511	16	0	17	338528	0	1	{LEFTARROW}	-999999	0	339944	0	{LEFTARROW}	554	340498	NA	NA	left	rrlrr.bmp	354	0	NA	0	0	0	0	NA	0	0	0	NA	0	0	0	0	NA	0	0	3	1	43
Arrow Flanker 2014	12351	1	"<?xml version=""1.0""?>\n<Clock xmlns:dt=""urn:schemas-microsoft-com:datatypes""><Description dt:dt=""string"">E-Prime Primary Realtime Clock</Description><StartTime><Timestamp dt:dt=""int"">0</Timestamp><DateUtc dt:dt=""string"">2015-06-19T16:01:34Z</DateUtc></StartTime><FrequencyChanges><FrequencyChange><Frequency dt:dt=""r8"">2825566</Frequency><Timestamp dt:dt=""r8"">4344286607414</Timestamp><Current dt:dt=""r8"">0</Current><DateUtc dt:dt=""string"">2015-06-19T16:01:34Z</DateUtc></FrequencyChange></FrequencyChanges></Clock>\n"	Arrow Flanker 2014-12351-1	60.016	1.0.0.100	1	2075224269	Professional	2.0.10.353	2.0.10.353	06-19-2015	6/19/2015 4:01:35 PM	12:01:35	2.0.10.248	4	1	1	1	NA	NA	NA	NA	NA	NA	NA	NA	NA	NA	NA	NA	NA	NA	NA	NA	NA	NA	NA	NA	NA	NA	NA	NA	BlockProc	BlockList	NA	44	{LEFTARROW}	NA	-100	1147	incongruent	NA	NA	NA	NA	NA	NA	NA	NA	NA	NA	NA	NA	NA	NA	NA	NA	NA	NA	NA	NA	NA	NA	TrialProc	TrialList	0	8	342810	17	0	17	341044	0	1	{LEFTARROW}	-999999	0	342310	0	{LEFTARROW}	492	342802	NA	NA	left	rrlrr.bmp	354	0	NA	0	0	0	0	NA	0	0	0	NA	0	0	0	0	NA	0	0	3	1	44
Arrow Flanker 2014	12351	1	"<?xml version=""1.0""?>\n<Clock xmlns:dt=""urn:schemas-microsoft-com:datatypes""><Description dt:dt=""string"">E-Prime Primary Realtime Clock</Description><StartTime><Timestamp dt:dt=""int"">0</Timestamp><DateUtc dt:dt=""string"">2015-06-19T16:01:34Z</DateUtc></StartTime><FrequencyChanges><FrequencyChange><Frequency dt:dt=""r8"">2825566</Frequency><Timestamp dt:dt=""r8"">4344286607414</Timestamp><Current dt:dt=""r8"">0</Current><DateUtc dt:dt=""string"">2015-06-19T16:01:34Z</DateUtc></FrequencyChange></FrequencyChanges></Clock>\n"	Arrow Flanker 2014-12351-1	60.016	1.0.0.100	1	2075224269	Professional	2.0.10.353	2.0.10.353	06-19-2015	6/19/2015 4:01:35 PM	12:01:35	2.0.10.248	4	1	1	1	NA	NA	NA	NA	NA	NA	NA	NA	NA	NA	NA	NA	NA	NA	NA	NA	NA	NA	NA	NA	NA	NA	NA	NA	BlockProc	BlockList	NA	45	{LEFTARROW}	NA	-100	2386	neutral	NA	NA	NA	NA	NA	NA	NA	NA	NA	NA	NA	NA	NA	NA	NA	NA	NA	NA	NA	NA	NA	NA	TrialProc	TrialList	0	15	345809	17	0	16	343343	0	1	{LEFTARROW}	-999999	0	345276	0	{LEFTARROW}	518	345794	NA	NA	left	ooloo.bmp	354	0	NA	0	0	0	0	NA	0	0	0	NA	0	0	0	0	NA	0	0	5	1	45
Arrow Flanker 2014	12351	1	"<?xml version=""1.0""?>\n<Clock xmlns:dt=""urn:schemas-microsoft-com:datatypes""><Description dt:dt=""string"">E-Prime Primary Realtime Clock</Description><StartTime><Timestamp dt:dt=""int"">0</Timestamp><DateUtc dt:dt=""string"">2015-06-19T16:01:34Z</DateUtc></StartTime><FrequencyChanges><FrequencyChange><Frequency dt:dt=""r8"">2825566</Frequency><Timestamp dt:dt=""r8"">4344286607414</Timestamp><Current dt:dt=""r8"">0</Current><DateUtc dt:dt=""string"">2015-06-19T16:01:34Z</DateUtc></FrequencyChange></FrequencyChanges></Clock>\n"	Arrow Flanker 2014-12351-1	60.016	1.0.0.100	1	2075224269	Professional	2.0.10.353	2.0.10.353	06-19-2015	6/19/2015 4:01:35 PM	12:01:35	2.0.10.248	4	1	1	1	NA	NA	NA	NA	NA	NA	NA	NA	NA	NA	NA	NA	NA	NA	NA	NA	NA	NA	NA	NA	NA	NA	NA	NA	BlockProc	BlockList	NA	46	{RIGHTARROW}	NA	-100	2000	neutral	NA	NA	NA	NA	NA	NA	NA	NA	NA	NA	NA	NA	NA	NA	NA	NA	NA	NA	NA	NA	NA	NA	TrialProc	TrialList	0	10	348492	16	0	16	346342	0	1	{RIGHTARROW}	-999999	0	347875	0	{RIGHTARROW}	607	348482	NA	NA	right	ooroo.bmp	354	0	NA	0	0	0	0	NA	0	0	0	NA	0	0	0	0	NA	0	0	6	1	46
Arrow Flanker 2014	12351	1	"<?xml version=""1.0""?>\n<Clock xmlns:dt=""urn:schemas-microsoft-com:datatypes""><Description dt:dt=""string"">E-Prime Primary Realtime Clock</Description><StartTime><Timestamp dt:dt=""int"">0</Timestamp><DateUtc dt:dt=""string"">2015-06-19T16:01:34Z</DateUtc></StartTime><FrequencyChanges><FrequencyChange><Frequency dt:dt=""r8"">2825566</Frequency><Timestamp dt:dt=""r8"">4344286607414</Timestamp><Current dt:dt=""r8"">0</Current><DateUtc dt:dt=""string"">2015-06-19T16:01:34Z</DateUtc></FrequencyChange></FrequencyChanges></Clock>\n"	Arrow Flanker 2014-12351-1	60.016	1.0.0.100	1	2075224269	Professional	2.0.10.353	2.0.10.353	06-19-2015	6/19/2015 4:01:35 PM	12:01:35	2.0.10.248	4	1	1	1	NA	NA	NA	NA	NA	NA	NA	NA	NA	NA	NA	NA	NA	NA	NA	NA	NA	NA	NA	NA	NA	NA	NA	NA	BlockProc	BlockList	NA	47	{RIGHTARROW}	NA	-100	1410	congruent	NA	NA	NA	NA	NA	NA	NA	NA	NA	NA	NA	NA	NA	NA	NA	NA	NA	NA	NA	NA	NA	NA	TrialProc	TrialList	0	13	351391	17	0	17	349025	0	1	{RIGHTARROW}	-999999	0	350641	0	{RIGHTARROW}	737	351378	NA	NA	right	rrrrr.bmp	354	0	NA	0	0	0	0	NA	0	0	0	NA	0	0	0	0	NA	0	0	2	1	47
Arrow Flanker 2014	12351	1	"<?xml version=""1.0""?>\n<Clock xmlns:dt=""urn:schemas-microsoft-com:datatypes""><Description dt:dt=""string"">E-Prime Primary Realtime Clock</Description><StartTime><Timestamp dt:dt=""int"">0</Timestamp><DateUtc dt:dt=""string"">2015-06-19T16:01:34Z</DateUtc></StartTime><FrequencyChanges><FrequencyChange><Frequency dt:dt=""r8"">2825566</Frequency><Timestamp dt:dt=""r8"">4344286607414</Timestamp><Current dt:dt=""r8"">0</Current><DateUtc dt:dt=""string"">2015-06-19T16:01:34Z</DateUtc></FrequencyChange></FrequencyChanges></Clock>\n"	Arrow Flanker 2014-12351-1	60.016	1.0.0.100	1	2075224269	Professional	2.0.10.353	2.0.10.353	06-19-2015	6/19/2015 4:01:35 PM	12:01:35	2.0.10.248	4	1	1	1	NA	NA	NA	NA	NA	NA	NA	NA	NA	NA	NA	NA	NA	NA	NA	NA	NA	NA	NA	NA	NA	NA	NA	NA	BlockProc	BlockList	NA	48	{RIGHTARROW}	NA	-100	1596	incongruent	NA	NA	NA	NA	NA	NA	NA	NA	NA	NA	NA	NA	NA	NA	NA	NA	NA	NA	NA	NA	NA	NA	TrialProc	TrialList	0	20	354790	17	0	16	351924	0	1	{RIGHTARROW}	-999999	16	353857	0	{RIGHTARROW}	913	354770	NA	NA	right	llrll.bmp	354	0	NA	0	0	0	0	NA	0	0	0	NA	0	0	0	0	NA	0	0	4	1	48
Arrow Flanker 2014	12351	1	"<?xml version=""1.0""?>\n<Clock xmlns:dt=""urn:schemas-microsoft-com:datatypes""><Description dt:dt=""string"">E-Prime Primary Realtime Clock</Description><StartTime><Timestamp dt:dt=""int"">0</Timestamp><DateUtc dt:dt=""string"">2015-06-19T16:01:34Z</DateUtc></StartTime><FrequencyChanges><FrequencyChange><Frequency dt:dt=""r8"">2825566</Frequency><Timestamp dt:dt=""r8"">4344286607414</Timestamp><Current dt:dt=""r8"">0</Current><DateUtc dt:dt=""string"">2015-06-19T16:01:34Z</DateUtc></FrequencyChange></FrequencyChanges></Clock>\n"	Arrow Flanker 2014-12351-1	60.016	1.0.0.100	1	2075224269	Professional	2.0.10.353	2.0.10.353	06-19-2015	6/19/2015 4:01:35 PM	12:01:35	2.0.10.248	4	1	1	1	NA	NA	NA	NA	NA	NA	NA	NA	NA	NA	NA	NA	NA	NA	NA	NA	NA	NA	NA	NA	NA	NA	NA	NA	BlockProc	BlockList	NA	49	{RIGHTARROW}	NA	-100	1198	congruent	NA	NA	NA	NA	NA	NA	NA	NA	NA	NA	NA	NA	NA	NA	NA	NA	NA	NA	NA	NA	NA	NA	TrialProc	TrialList	0	10	357356	17	0	16	355323	0	1	{RIGHTARROW}	-999999	0	356806	0	{RIGHTARROW}	540	357346	NA	NA	right	rrrrr.bmp	354	0	NA	0	0	0	0	NA	0	0	0	NA	0	0	0	0	NA	0	0	2	1	49
Arrow Flanker 2014	12351	1	"<?xml version=""1.0""?>\n<Clock xmlns:dt=""urn:schemas-microsoft-com:datatypes""><Description dt:dt=""string"">E-Prime Primary Realtime Clock</Description><StartTime><Timestamp dt:dt=""int"">0</Timestamp><DateUtc dt:dt=""string"">2015-06-19T16:01:34Z</DateUtc></StartTime><FrequencyChanges><FrequencyChange><Frequency dt:dt=""r8"">2825566</Frequency><Timestamp dt:dt=""r8"">4344286607414</Timestamp><Current dt:dt=""r8"">0</Current><DateUtc dt:dt=""string"">2015-06-19T16:01:34Z</DateUtc></FrequencyChange></FrequencyChanges></Clock>\n"	Arrow Flanker 2014-12351-1	60.016	1.0.0.100	1	2075224269	Professional	2.0.10.353	2.0.10.353	06-19-2015	6/19/2015 4:01:35 PM	12:01:35	2.0.10.248	4	1	1	1	NA	NA	NA	NA	NA	NA	NA	NA	NA	NA	NA	NA	NA	NA	NA	NA	NA	NA	NA	NA	NA	NA	NA	NA	BlockProc	BlockList	NA	50	{RIGHTARROW}	NA	-100	1414	congruent	NA	NA	NA	NA	NA	NA	NA	NA	NA	NA	NA	NA	NA	NA	NA	NA	NA	NA	NA	NA	NA	NA	TrialProc	TrialList	0	14	360272	17	0	16	357889	0	1	{RIGHTARROW}	-999999	16	359672	0	{RIGHTARROW}	585	360257	NA	NA	right	rrrrr.bmp	354	0	NA	0	0	0	0	NA	0	0	0	NA	0	0	0	0	NA	0	0	2	1	50
Arrow Flanker 2014	12351	1	"<?xml version=""1.0""?>\n<Clock xmlns:dt=""urn:schemas-microsoft-com:datatypes""><Description dt:dt=""string"">E-Prime Primary Realtime Clock</Description><StartTime><Timestamp dt:dt=""int"">0</Timestamp><DateUtc dt:dt=""string"">2015-06-19T16:01:34Z</DateUtc></StartTime><FrequencyChanges><FrequencyChange><Frequency dt:dt=""r8"">2825566</Frequency><Timestamp dt:dt=""r8"">4344286607414</Timestamp><Current dt:dt=""r8"">0</Current><DateUtc dt:dt=""string"">2015-06-19T16:01:34Z</DateUtc></FrequencyChange></FrequencyChanges></Clock>\n"	Arrow Flanker 2014-12351-1	60.016	1.0.0.100	1	2075224269	Professional	2.0.10.353	2.0.10.353	06-19-2015	6/19/2015 4:01:35 PM	12:01:35	2.0.10.248	4	1	1	1	NA	NA	NA	NA	NA	NA	NA	NA	NA	NA	NA	NA	NA	NA	NA	NA	NA	NA	NA	NA	NA	NA	NA	NA	BlockProc	BlockList	NA	51	{LEFTARROW}	NA	-100	1131	congruent	NA	NA	NA	NA	NA	NA	NA	NA	NA	NA	NA	NA	NA	NA	NA	NA	NA	NA	NA	NA	NA	NA	TrialProc	TrialList	1	7	362921	17	0	16	360805	0	1	{LEFTARROW}	-999999	-1	362271	0	{LEFTARROW}	642	362913	NA	NA	left	lllll.bmp	354	0	NA	0	0	0	0	NA	0	0	0	NA	0	0	0	0	NA	0	0	1	1	51
Arrow Flanker 2014	12351	1	"<?xml version=""1.0""?>\n<Clock xmlns:dt=""urn:schemas-microsoft-com:datatypes""><Description dt:dt=""string"">E-Prime Primary Realtime Clock</Description><StartTime><Timestamp dt:dt=""int"">0</Timestamp><DateUtc dt:dt=""string"">2015-06-19T16:01:34Z</DateUtc></StartTime><FrequencyChanges><FrequencyChange><Frequency dt:dt=""r8"">2825566</Frequency><Timestamp dt:dt=""r8"">4344286607414</Timestamp><Current dt:dt=""r8"">0</Current><DateUtc dt:dt=""string"">2015-06-19T16:01:34Z</DateUtc></FrequencyChange></FrequencyChanges></Clock>\n"	Arrow Flanker 2014-12351-1	60.016	1.0.0.100	1	2075224269	Professional	2.0.10.353	2.0.10.353	06-19-2015	6/19/2015 4:01:35 PM	12:01:35	2.0.10.248	4	1	1	1	NA	NA	NA	NA	NA	NA	NA	NA	NA	NA	NA	NA	NA	NA	NA	NA	NA	NA	NA	NA	NA	NA	NA	NA	BlockProc	BlockList	NA	52	{RIGHTARROW}	NA	-100	1978	congruent	NA	NA	NA	NA	NA	NA	NA	NA	NA	NA	NA	NA	NA	NA	NA	NA	NA	NA	NA	NA	NA	NA	TrialProc	TrialList	0	10	366187	17	0	17	363455	0	1	{RIGHTARROW}	-999999	16	364954	0	{RIGHTARROW}	1223	366177	NA	NA	right	rrrrr.bmp	354	0	NA	0	0	0	0	NA	0	0	0	NA	0	0	0	0	NA	0	0	2	1	52
Arrow Flanker 2014	12351	1	"<?xml version=""1.0""?>\n<Clock xmlns:dt=""urn:schemas-microsoft-com:datatypes""><Description dt:dt=""string"">E-Prime Primary Realtime Clock</Description><StartTime><Timestamp dt:dt=""int"">0</Timestamp><DateUtc dt:dt=""string"">2015-06-19T16:01:34Z</DateUtc></StartTime><FrequencyChanges><FrequencyChange><Frequency dt:dt=""r8"">2825566</Frequency><Timestamp dt:dt=""r8"">4344286607414</Timestamp><Current dt:dt=""r8"">0</Current><DateUtc dt:dt=""string"">2015-06-19T16:01:34Z</DateUtc></FrequencyChange></FrequencyChanges></Clock>\n"	Arrow Flanker 2014-12351-1	60.016	1.0.0.100	1	2075224269	Professional	2.0.10.353	2.0.10.353	06-19-2015	6/19/2015 4:01:35 PM	12:01:35	2.0.10.248	4	1	1	1	NA	NA	NA	NA	NA	NA	NA	NA	NA	NA	NA	NA	NA	NA	NA	NA	NA	NA	NA	NA	NA	NA	NA	NA	BlockProc	BlockList	NA	53	{RIGHTARROW}	NA	-100	802	congruent	NA	NA	NA	NA	NA	NA	NA	NA	NA	NA	NA	NA	NA	NA	NA	NA	NA	NA	NA	NA	NA	NA	TrialProc	TrialList	0	10	368220	17	0	16	366720	0	1	{RIGHTARROW}	-999999	0	367653	0	{RIGHTARROW}	556	368209	NA	NA	right	rrrrr.bmp	354	0	NA	0	0	0	0	NA	0	0	0	NA	0	0	0	0	NA	0	0	2	1	53
Arrow Flanker 2014	12351	1	"<?xml version=""1.0""?>\n<Clock xmlns:dt=""urn:schemas-microsoft-com:datatypes""><Description dt:dt=""string"">E-Prime Primary Realtime Clock</Description><StartTime><Timestamp dt:dt=""int"">0</Timestamp><DateUtc dt:dt=""string"">2015-06-19T16:01:34Z</DateUtc></StartTime><FrequencyChanges><FrequencyChange><Frequency dt:dt=""r8"">2825566</Frequency><Timestamp dt:dt=""r8"">4344286607414</Timestamp><Current dt:dt=""r8"">0</Current><DateUtc dt:dt=""string"">2015-06-19T16:01:34Z</DateUtc></FrequencyChange></FrequencyChanges></Clock>\n"	Arrow Flanker 2014-12351-1	60.016	1.0.0.100	1	2075224269	Professional	2.0.10.353	2.0.10.353	06-19-2015	6/19/2015 4:01:35 PM	12:01:35	2.0.10.248	4	1	1	1	NA	NA	NA	NA	NA	NA	NA	NA	NA	NA	NA	NA	NA	NA	NA	NA	NA	NA	NA	NA	NA	NA	NA	NA	BlockProc	BlockList	NA	54	{LEFTARROW}	NA	-100	2291	neutral	NA	NA	NA	NA	NA	NA	NA	NA	NA	NA	NA	NA	NA	NA	NA	NA	NA	NA	NA	NA	2	2	TrialProc	TrialList	1	13	371102	17	0	16	368753	0	1	{LEFTARROW}	-999999	0	370436	0	{LEFTARROW}	653	371089	NA	NA	left	ooloo.bmp	354	0	NA	-999999	17	371636	0	1	3478	375114	0	NA	-999999	21	375135	0	1	4130	379265	5	1	54
Arrow Flanker 2014	12351	1	"<?xml version=""1.0""?>\n<Clock xmlns:dt=""urn:schemas-microsoft-com:datatypes""><Description dt:dt=""string"">E-Prime Primary Realtime Clock</Description><StartTime><Timestamp dt:dt=""int"">0</Timestamp><DateUtc dt:dt=""string"">2015-06-19T16:01:34Z</DateUtc></StartTime><FrequencyChanges><FrequencyChange><Frequency dt:dt=""r8"">2825566</Frequency><Timestamp dt:dt=""r8"">4344286607414</Timestamp><Current dt:dt=""r8"">0</Current><DateUtc dt:dt=""string"">2015-06-19T16:01:34Z</DateUtc></FrequencyChange></FrequencyChanges></Clock>\n"	Arrow Flanker 2014-12351-1	60.016	1.0.0.100	1	2075224269	Professional	2.0.10.353	2.0.10.353	06-19-2015	6/19/2015 4:01:35 PM	12:01:35	2.0.10.248	4	1	1	1	NA	NA	NA	NA	NA	NA	NA	NA	NA	NA	NA	NA	NA	NA	NA	NA	NA	NA	NA	NA	NA	NA	NA	NA	BlockProc	BlockList	NA	55	{RIGHTARROW}	NA	-100	2338	incongruent	NA	NA	NA	NA	NA	NA	NA	NA	NA	NA	NA	NA	NA	NA	NA	NA	NA	NA	NA	NA	NA	NA	TrialProc	TrialList	0	8	383033	16	0	18	380083	0	1	{RIGHTARROW}	-999999	0	381966	0	{RIGHTARROW}	1059	383025	NA	NA	right	llrll.bmp	354	0	NA	0	0	0	0	NA	0	0	0	NA	0	0	0	0	NA	0	0	4	1	55
Arrow Flanker 2014	12351	1	"<?xml version=""1.0""?>\n<Clock xmlns:dt=""urn:schemas-microsoft-com:datatypes""><Description dt:dt=""string"">E-Prime Primary Realtime Clock</Description><StartTime><Timestamp dt:dt=""int"">0</Timestamp><DateUtc dt:dt=""string"">2015-06-19T16:01:34Z</DateUtc></StartTime><FrequencyChanges><FrequencyChange><Frequency dt:dt=""r8"">2825566</Frequency><Timestamp dt:dt=""r8"">4344286607414</Timestamp><Current dt:dt=""r8"">0</Current><DateUtc dt:dt=""string"">2015-06-19T16:01:34Z</DateUtc></FrequencyChange></FrequencyChanges></Clock>\n"	Arrow Flanker 2014-12351-1	60.016	1.0.0.100	1	2075224269	Professional	2.0.10.353	2.0.10.353	06-19-2015	6/19/2015 4:01:35 PM	12:01:35	2.0.10.248	4	1	1	1	NA	NA	NA	NA	NA	NA	NA	NA	NA	NA	NA	NA	NA	NA	NA	NA	NA	NA	NA	NA	NA	NA	NA	NA	BlockProc	BlockList	NA	56	{LEFTARROW}	NA	-100	1508	congruent	NA	NA	NA	NA	NA	NA	NA	NA	NA	NA	NA	NA	NA	NA	NA	NA	NA	NA	NA	NA	NA	NA	TrialProc	TrialList	0	9	385882	17	0	17	383566	1233	1	{LEFTARROW}	-999999	0	385299	0	{LEFTARROW}	574	385873	NA	NA	left	lllll.bmp	354	0	NA	0	0	0	0	NA	0	0	0	NA	0	0	0	0	NA	0	0	1	1	56
Arrow Flanker 2014	12351	1	"<?xml version=""1.0""?>\n<Clock xmlns:dt=""urn:schemas-microsoft-com:datatypes""><Description dt:dt=""string"">E-Prime Primary Realtime Clock</Description><StartTime><Timestamp dt:dt=""int"">0</Timestamp><DateUtc dt:dt=""string"">2015-06-19T16:01:34Z</DateUtc></StartTime><FrequencyChanges><FrequencyChange><Frequency dt:dt=""r8"">2825566</Frequency><Timestamp dt:dt=""r8"">4344286607414</Timestamp><Current dt:dt=""r8"">0</Current><DateUtc dt:dt=""string"">2015-06-19T16:01:34Z</DateUtc></FrequencyChange></FrequencyChanges></Clock>\n"	Arrow Flanker 2014-12351-1	60.016	1.0.0.100	1	2075224269	Professional	2.0.10.353	2.0.10.353	06-19-2015	6/19/2015 4:01:35 PM	12:01:35	2.0.10.248	4	1	1	1	NA	NA	NA	NA	NA	NA	NA	NA	NA	NA	NA	NA	NA	NA	NA	NA	NA	NA	NA	NA	NA	NA	NA	NA	BlockProc	BlockList	NA	57	{LEFTARROW}	NA	-100	2263	neutral	NA	NA	NA	NA	NA	NA	NA	NA	NA	NA	NA	NA	NA	NA	NA	NA	NA	NA	NA	NA	NA	NA	TrialProc	TrialList	0	12	389181	17	0	16	386415	0	1	{LEFTARROW}	-999999	0	388398	0	{LEFTARROW}	771	389169	NA	NA	left	ooloo.bmp	354	0	NA	0	0	0	0	NA	0	0	0	NA	0	0	0	0	NA	0	0	5	1	57
Arrow Flanker 2014	12351	1	"<?xml version=""1.0""?>\n<Clock xmlns:dt=""urn:schemas-microsoft-com:datatypes""><Description dt:dt=""string"">E-Prime Primary Realtime Clock</Description><StartTime><Timestamp dt:dt=""int"">0</Timestamp><DateUtc dt:dt=""string"">2015-06-19T16:01:34Z</DateUtc></StartTime><FrequencyChanges><FrequencyChange><Frequency dt:dt=""r8"">2825566</Frequency><Timestamp dt:dt=""r8"">4344286607414</Timestamp><Current dt:dt=""r8"">0</Current><DateUtc dt:dt=""string"">2015-06-19T16:01:34Z</DateUtc></FrequencyChange></FrequencyChanges></Clock>\n"	Arrow Flanker 2014-12351-1	60.016	1.0.0.100	1	2075224269	Professional	2.0.10.353	2.0.10.353	06-19-2015	6/19/2015 4:01:35 PM	12:01:35	2.0.10.248	4	1	1	1	NA	NA	NA	NA	NA	NA	NA	NA	NA	NA	NA	NA	NA	NA	NA	NA	NA	NA	NA	NA	NA	NA	NA	NA	BlockProc	BlockList	NA	58	{LEFTARROW}	NA	-100	2111	congruent	NA	NA	NA	NA	NA	NA	NA	NA	NA	NA	NA	NA	NA	NA	NA	NA	NA	NA	NA	NA	NA	NA	TrialProc	TrialList	1	8	392313	17	0	16	389714	0	1	{LEFTARROW}	-999999	0	391797	0	{LEFTARROW}	508	392305	NA	NA	left	lllll.bmp	354	0	NA	0	0	0	0	NA	0	0	0	NA	0	0	0	0	NA	0	0	1	1	58
Arrow Flanker 2014	12351	1	"<?xml version=""1.0""?>\n<Clock xmlns:dt=""urn:schemas-microsoft-com:datatypes""><Description dt:dt=""string"">E-Prime Primary Realtime Clock</Description><StartTime><Timestamp dt:dt=""int"">0</Timestamp><DateUtc dt:dt=""string"">2015-06-19T16:01:34Z</DateUtc></StartTime><FrequencyChanges><FrequencyChange><Frequency dt:dt=""r8"">2825566</Frequency><Timestamp dt:dt=""r8"">4344286607414</Timestamp><Current dt:dt=""r8"">0</Current><DateUtc dt:dt=""string"">2015-06-19T16:01:34Z</DateUtc></FrequencyChange></FrequencyChanges></Clock>\n"	Arrow Flanker 2014-12351-1	60.016	1.0.0.100	1	2075224269	Professional	2.0.10.353	2.0.10.353	06-19-2015	6/19/2015 4:01:35 PM	12:01:35	2.0.10.248	4	1	1	1	NA	NA	NA	NA	NA	NA	NA	NA	NA	NA	NA	NA	NA	NA	NA	NA	NA	NA	NA	NA	NA	NA	NA	NA	BlockProc	BlockList	NA	59	{RIGHTARROW}	NA	-100	733	neutral	NA	NA	NA	NA	NA	NA	NA	NA	NA	NA	NA	NA	NA	NA	NA	NA	NA	NA	NA	NA	NA	NA	TrialProc	TrialList	0	15	394480	16	0	17	392847	0	1	{RIGHTARROW}	-999999	0	393980	0	{RIGHTARROW}	485	394465	NA	NA	right	ooroo.bmp	354	0	NA	0	0	0	0	NA	0	0	0	NA	0	0	0	0	NA	0	0	6	1	59
Arrow Flanker 2014	12351	1	"<?xml version=""1.0""?>\n<Clock xmlns:dt=""urn:schemas-microsoft-com:datatypes""><Description dt:dt=""string"">E-Prime Primary Realtime Clock</Description><StartTime><Timestamp dt:dt=""int"">0</Timestamp><DateUtc dt:dt=""string"">2015-06-19T16:01:34Z</DateUtc></StartTime><FrequencyChanges><FrequencyChange><Frequency dt:dt=""r8"">2825566</Frequency><Timestamp dt:dt=""r8"">4344286607414</Timestamp><Current dt:dt=""r8"">0</Current><DateUtc dt:dt=""string"">2015-06-19T16:01:34Z</DateUtc></FrequencyChange></FrequencyChanges></Clock>\n"	Arrow Flanker 2014-12351-1	60.016	1.0.0.100	1	2075224269	Professional	2.0.10.353	2.0.10.353	06-19-2015	6/19/2015 4:01:35 PM	12:01:35	2.0.10.248	4	1	1	1	NA	NA	NA	NA	NA	NA	NA	NA	NA	NA	NA	NA	NA	NA	NA	NA	NA	NA	NA	NA	NA	NA	NA	NA	BlockProc	BlockList	NA	60	{RIGHTARROW}	NA	-100	2211	incongruent	NA	NA	NA	NA	NA	NA	NA	NA	NA	NA	NA	NA	NA	NA	NA	NA	NA	NA	NA	NA	NA	NA	TrialProc	TrialList	0	16	397729	16	0	17	395013	0	1	{RIGHTARROW}	-999999	0	396996	0	{RIGHTARROW}	716	397712	NA	NA	right	llrll.bmp	354	0	NA	0	0	0	0	NA	0	0	0	NA	0	0	0	0	NA	0	0	4	1	60
Arrow Flanker 2014	12351	1	"<?xml version=""1.0""?>\n<Clock xmlns:dt=""urn:schemas-microsoft-com:datatypes""><Description dt:dt=""string"">E-Prime Primary Realtime Clock</Description><StartTime><Timestamp dt:dt=""int"">0</Timestamp><DateUtc dt:dt=""string"">2015-06-19T16:01:34Z</DateUtc></StartTime><FrequencyChanges><FrequencyChange><Frequency dt:dt=""r8"">2825566</Frequency><Timestamp dt:dt=""r8"">4344286607414</Timestamp><Current dt:dt=""r8"">0</Current><DateUtc dt:dt=""string"">2015-06-19T16:01:34Z</DateUtc></FrequencyChange></FrequencyChanges></Clock>\n"	Arrow Flanker 2014-12351-1	60.016	1.0.0.100	1	2075224269	Professional	2.0.10.353	2.0.10.353	06-19-2015	6/19/2015 4:01:35 PM	12:01:35	2.0.10.248	4	1	1	1	NA	NA	NA	NA	NA	NA	NA	NA	NA	NA	NA	NA	NA	NA	NA	NA	NA	NA	NA	NA	NA	NA	NA	NA	BlockProc	BlockList	NA	61	{RIGHTARROW}	NA	-100	1760	neutral	NA	NA	NA	NA	NA	NA	NA	NA	NA	NA	NA	NA	NA	NA	NA	NA	NA	NA	NA	NA	NA	NA	TrialProc	TrialList	0	10	399995	17	0	17	398262	0	1	{RIGHTARROW}	-999999	0	399512	0	{RIGHTARROW}	472	399984	NA	NA	right	ooroo.bmp	354	0	NA	0	0	0	0	NA	0	0	0	NA	0	0	0	0	NA	0	0	6	1	61
Arrow Flanker 2014	12351	1	"<?xml version=""1.0""?>\n<Clock xmlns:dt=""urn:schemas-microsoft-com:datatypes""><Description dt:dt=""string"">E-Prime Primary Realtime Clock</Description><StartTime><Timestamp dt:dt=""int"">0</Timestamp><DateUtc dt:dt=""string"">2015-06-19T16:01:34Z</DateUtc></StartTime><FrequencyChanges><FrequencyChange><Frequency dt:dt=""r8"">2825566</Frequency><Timestamp dt:dt=""r8"">4344286607414</Timestamp><Current dt:dt=""r8"">0</Current><DateUtc dt:dt=""string"">2015-06-19T16:01:34Z</DateUtc></FrequencyChange></FrequencyChanges></Clock>\n"	Arrow Flanker 2014-12351-1	60.016	1.0.0.100	1	2075224269	Professional	2.0.10.353	2.0.10.353	06-19-2015	6/19/2015 4:01:35 PM	12:01:35	2.0.10.248	4	1	1	1	NA	NA	NA	NA	NA	NA	NA	NA	NA	NA	NA	NA	NA	NA	NA	NA	NA	NA	NA	NA	NA	NA	NA	NA	BlockProc	BlockList	NA	62	{RIGHTARROW}	NA	-100	1401	incongruent	NA	NA	NA	NA	NA	NA	NA	NA	NA	NA	NA	NA	NA	NA	NA	NA	NA	NA	NA	NA	NA	NA	TrialProc	TrialList	0	9	402794	17	0	16	400528	0	1	{RIGHTARROW}	-999999	0	402278	0	{RIGHTARROW}	506	402784	NA	NA	right	llrll.bmp	354	0	NA	0	0	0	0	NA	0	0	0	NA	0	0	0	0	NA	0	0	4	1	62
Arrow Flanker 2014	12351	1	"<?xml version=""1.0""?>\n<Clock xmlns:dt=""urn:schemas-microsoft-com:datatypes""><Description dt:dt=""string"">E-Prime Primary Realtime Clock</Description><StartTime><Timestamp dt:dt=""int"">0</Timestamp><DateUtc dt:dt=""string"">2015-06-19T16:01:34Z</DateUtc></StartTime><FrequencyChanges><FrequencyChange><Frequency dt:dt=""r8"">2825566</Frequency><Timestamp dt:dt=""r8"">4344286607414</Timestamp><Current dt:dt=""r8"">0</Current><DateUtc dt:dt=""string"">2015-06-19T16:01:34Z</DateUtc></FrequencyChange></FrequencyChanges></Clock>\n"	Arrow Flanker 2014-12351-1	60.016	1.0.0.100	1	2075224269	Professional	2.0.10.353	2.0.10.353	06-19-2015	6/19/2015 4:01:35 PM	12:01:35	2.0.10.248	4	1	1	1	NA	NA	NA	NA	NA	NA	NA	NA	NA	NA	NA	NA	NA	NA	NA	NA	NA	NA	NA	NA	NA	NA	NA	NA	BlockProc	BlockList	NA	63	{RIGHTARROW}	NA	-100	919	neutral	NA	NA	NA	NA	NA	NA	NA	NA	NA	NA	NA	NA	NA	NA	NA	NA	NA	NA	NA	NA	NA	NA	TrialProc	TrialList	0	7	405160	17	0	16	403327	0	1	{RIGHTARROW}	-999999	0	404627	0	{RIGHTARROW}	525	405152	NA	NA	right	ooroo.bmp	354	0	NA	0	0	0	0	NA	0	0	0	NA	0	0	0	0	NA	0	0	6	1	63
Arrow Flanker 2014	12351	1	"<?xml version=""1.0""?>\n<Clock xmlns:dt=""urn:schemas-microsoft-com:datatypes""><Description dt:dt=""string"">E-Prime Primary Realtime Clock</Description><StartTime><Timestamp dt:dt=""int"">0</Timestamp><DateUtc dt:dt=""string"">2015-06-19T16:01:34Z</DateUtc></StartTime><FrequencyChanges><FrequencyChange><Frequency dt:dt=""r8"">2825566</Frequency><Timestamp dt:dt=""r8"">4344286607414</Timestamp><Current dt:dt=""r8"">0</Current><DateUtc dt:dt=""string"">2015-06-19T16:01:34Z</DateUtc></FrequencyChange></FrequencyChanges></Clock>\n"	Arrow Flanker 2014-12351-1	60.016	1.0.0.100	1	2075224269	Professional	2.0.10.353	2.0.10.353	06-19-2015	6/19/2015 4:01:35 PM	12:01:35	2.0.10.248	4	1	1	1	NA	NA	NA	NA	NA	NA	NA	NA	NA	NA	NA	NA	NA	NA	NA	NA	NA	NA	NA	NA	NA	NA	NA	NA	BlockProc	BlockList	NA	64	{RIGHTARROW}	NA	-100	2450	neutral	NA	NA	NA	NA	NA	NA	NA	NA	NA	NA	NA	NA	NA	NA	NA	NA	NA	NA	NA	NA	NA	NA	TrialProc	TrialList	0	6	407910	16	0	16	405693	0	1	{RIGHTARROW}	-999999	-1	407459	0	{RIGHTARROW}	445	407904	NA	NA	right	ooroo.bmp	354	0	NA	0	0	0	0	NA	0	0	0	NA	0	0	0	0	NA	0	0	6	1	64
Arrow Flanker 2014	12351	1	"<?xml version=""1.0""?>\n<Clock xmlns:dt=""urn:schemas-microsoft-com:datatypes""><Description dt:dt=""string"">E-Prime Primary Realtime Clock</Description><StartTime><Timestamp dt:dt=""int"">0</Timestamp><DateUtc dt:dt=""string"">2015-06-19T16:01:34Z</DateUtc></StartTime><FrequencyChanges><FrequencyChange><Frequency dt:dt=""r8"">2825566</Frequency><Timestamp dt:dt=""r8"">4344286607414</Timestamp><Current dt:dt=""r8"">0</Current><DateUtc dt:dt=""string"">2015-06-19T16:01:34Z</DateUtc></FrequencyChange></FrequencyChanges></Clock>\n"	Arrow Flanker 2014-12351-1	60.016	1.0.0.100	1	2075224269	Professional	2.0.10.353	2.0.10.353	06-19-2015	6/19/2015 4:01:35 PM	12:01:35	2.0.10.248	4	1	1	1	NA	NA	NA	NA	NA	NA	NA	NA	NA	NA	NA	NA	NA	NA	NA	NA	NA	NA	NA	NA	NA	NA	NA	NA	BlockProc	BlockList	NA	65	{LEFTARROW}	NA	-100	1548	incongruent	NA	NA	NA	NA	NA	NA	NA	NA	NA	NA	NA	NA	NA	NA	NA	NA	NA	NA	NA	NA	NA	NA	TrialProc	TrialList	0	18	410642	17	0	17	408443	0	1	{LEFTARROW}	-999999	0	409742	0	{LEFTARROW}	882	410624	NA	NA	left	rrlrr.bmp	354	0	NA	0	0	0	0	NA	0	0	0	NA	0	0	0	0	NA	0	0	3	1	65
Arrow Flanker 2014	12351	1	"<?xml version=""1.0""?>\n<Clock xmlns:dt=""urn:schemas-microsoft-com:datatypes""><Description dt:dt=""string"">E-Prime Primary Realtime Clock</Description><StartTime><Timestamp dt:dt=""int"">0</Timestamp><DateUtc dt:dt=""string"">2015-06-19T16:01:34Z</DateUtc></StartTime><FrequencyChanges><FrequencyChange><Frequency dt:dt=""r8"">2825566</Frequency><Timestamp dt:dt=""r8"">4344286607414</Timestamp><Current dt:dt=""r8"">0</Current><DateUtc dt:dt=""string"">2015-06-19T16:01:34Z</DateUtc></FrequencyChange></FrequencyChanges></Clock>\n"	Arrow Flanker 2014-12351-1	60.016	1.0.0.100	1	2075224269	Professional	2.0.10.353	2.0.10.353	06-19-2015	6/19/2015 4:01:35 PM	12:01:35	2.0.10.248	4	1	1	1	NA	NA	NA	NA	NA	NA	NA	NA	NA	NA	NA	NA	NA	NA	NA	NA	NA	NA	NA	NA	NA	NA	NA	NA	BlockProc	BlockList	NA	66	{LEFTARROW}	NA	-100	2193	neutral	NA	NA	NA	NA	NA	NA	NA	NA	NA	NA	NA	NA	NA	NA	NA	NA	NA	NA	NA	NA	NA	NA	TrialProc	TrialList	0	15	413375	16	0	16	411175	0	1	{LEFTARROW}	-999999	0	412841	0	{LEFTARROW}	519	413360	NA	NA	left	ooloo.bmp	354	0	NA	0	0	0	0	NA	0	0	0	NA	0	0	0	0	NA	0	0	5	1	66
