ExperimentName	Subject	Session	Clock.Information	DataFile.Basename	Display.RefreshRate	ExperimentVersion	Group	RandomSeed	RuntimeCapabilities	RuntimeVersion	RuntimeVersionExpected	SessionDate	SessionStartDateTimeUtc	SessionTime	StudioVersion	Block	BlockList	BlockList.Cycle	BlockList.Sample	Both	CompletelyMW	CongMeanRT	CongTotal	Fragmented	GoodByeList	GoodByeList.Cycle	GoodByeList.Sample	IncongMeanRT	IncongTotal	MapBlockList	MapBlockList.Cycle	MapBlockList.Sample	Mindwandering	MostlyMW	MostlyOT	NeutralMeanRT	NeutralTotal	NumberProbes1	NumberProbes2	OnTask	PracBlockList	PracBlockList.Cycle	PracBlockList.Sample	Procedure[Block]	Running[Block]	Sequential	Trial	CorrectAnswer	CuePositionY	CuePositionY2	DurationOfFixation	FlankerType	MapTrialList	MapTrialList.Cycle	MapTrialList.Sample	PracSlideFixationStart.DurationError	PracSlideFixationStart.OnsetDelay	PracSlideFixationStart.OnsetTime	PracSlideFixationStart.OnsetToOnsetTime	PracSlideTarget.ACC	PracSlideTarget.CRESP	PracSlideTarget.DurationError	PracSlideTarget.OnsetDelay	PracSlideTarget.OnsetTime	PracSlideTarget.OnsetToOnsetTime	PracSlideTarget.RESP	PracSlideTarget.RT	PracSlideTarget.RTTime	PracSlideTarget.Tag	PracTrialList	PracTrialList.Cycle	PracTrialList.Sample	Probe1Resp	Probe2Resp	Procedure[Trial]	Running[Trial]	SlideFixationEnd.DurationError	SlideFixationEnd.OnsetDelay	SlideFixationEnd.OnsetTime	SlideFixationEnd.OnsetToOnsetTime	SlideFixationStart.DurationError	SlideFixationStart.OnsetDelay	SlideFixationStart.OnsetTime	SlideFixationStart.OnsetToOnsetTime	SlideTarget.ACC	SlideTarget.CRESP	SlideTarget.DurationError	SlideTarget.OnsetDelay	SlideTarget.OnsetTime	SlideTarget.OnsetToOnsetTime	SlideTarget.RESP	SlideTarget.RT	SlideTarget.RTTime	SlideTarget.Tag	TargerDirection	TargetDirection	TargetImage	TargetPosition	ThoughtProbe1.ACC	ThoughtProbe1.CRESP	ThoughtProbe1.DurationError	ThoughtProbe1.OnsetDelay	ThoughtProbe1.OnsetTime	ThoughtProbe1.OnsetToOnsetTime	ThoughtProbe1.RESP	ThoughtProbe1.RT	ThoughtProbe1.RTTime	ThoughtProbe2.ACC	ThoughtProbe2.CRESP	ThoughtProbe2.DurationError	ThoughtProbe2.OnsetDelay	ThoughtProbe2.OnsetTime	ThoughtProbe2.OnsetToOnsetTime	ThoughtProbe2.RESP	ThoughtProbe2.RT	ThoughtProbe2.RTTime	TrialList	TrialList.Cycle	TrialList.Sample
Arrow Flanker 2014	12382	1	"<?xml version=""1.0""?>\n<Clock xmlns:dt=""urn:schemas-microsoft-com:datatypes""><Description dt:dt=""string"">E-Prime Primary Realtime Clock</Description><StartTime><Timestamp dt:dt=""int"">0</Timestamp><DateUtc dt:dt=""string"">2015-06-29T17:51:30Z</DateUtc></StartTime><FrequencyChanges><FrequencyChange><Frequency dt:dt=""r8"">2825703</Frequency><Timestamp dt:dt=""r8"">4745415471515</Timestamp><Current dt:dt=""r8"">0</Current><DateUtc dt:dt=""string"">2015-06-29T17:51:30Z</DateUtc></FrequencyChange></FrequencyChanges></Clock>\n"	Arrow Flanker 2014-12382-1	60.019	1.0.0.98	1	-522820274	Professional	2.0.10.353	2.0.10.353	06-29-2015	6/29/2015 5:51:30 PM	13:51:30	2.0.10.248	1	NA	NA	NA	NA	NA	NA	NA	NA	NA	NA	NA	NA	NA	1	1	1	NA	NA	NA	NA	NA	NA	NA	NA	NA	NA	NA	MapBlockProc	MapBlockList	NA	1	{RIGHTARROW}	-100	NA	658	NA	2	1	1	0	9	264120	666	1	{RIGHTARROW}	0	16	265302	0	{RIGHTARROW}	1665	266967	NA	NA	NA	NA	NA	NA	MapTrialProc	MapTrialList	NA	NA	NA	NA	NA	NA	NA	NA	NA	NA	NA	NA	NA	NA	NA	NA	NA	NA	right	NA	R.bmp	354	NA	NA	NA	NA	NA	NA	NA	NA	NA	NA	NA	NA	NA	NA	NA	NA	NA	NA	NA	NA	NA
Arrow Flanker 2014	12382	1	"<?xml version=""1.0""?>\n<Clock xmlns:dt=""urn:schemas-microsoft-com:datatypes""><Description dt:dt=""string"">E-Prime Primary Realtime Clock</Description><StartTime><Timestamp dt:dt=""int"">0</Timestamp><DateUtc dt:dt=""string"">2015-06-29T17:51:30Z</DateUtc></StartTime><FrequencyChanges><FrequencyChange><Frequency dt:dt=""r8"">2825703</Frequency><Timestamp dt:dt=""r8"">4745415471515</Timestamp><Current dt:dt=""r8"">0</Current><DateUtc dt:dt=""string"">2015-06-29T17:51:30Z</DateUtc></FrequencyChange></FrequencyChanges></Clock>\n"	Arrow Flanker 2014-12382-1	60.019	1.0.0.98	1	-522820274	Professional	2.0.10.353	2.0.10.353	06-29-2015	6/29/2015 5:51:30 PM	13:51:30	2.0.10.248	1	NA	NA	NA	NA	NA	NA	NA	NA	NA	NA	NA	NA	NA	1	1	1	NA	NA	NA	NA	NA	NA	NA	NA	NA	NA	NA	MapBlockProc	MapBlockList	NA	2	{LEFTARROW}	-100	NA	1056	NA	1	1	2	0	16	268484	1067	1	{LEFTARROW}	-999999	0	270051	0	{LEFTARROW}	420	270471	NA	NA	NA	NA	NA	NA	MapTrialProc	MapTrialList	NA	NA	NA	NA	NA	NA	NA	NA	NA	NA	NA	NA	NA	NA	NA	NA	NA	NA	left	NA	L.bmp	354	NA	NA	NA	NA	NA	NA	NA	NA	NA	NA	NA	NA	NA	NA	NA	NA	NA	NA	NA	NA	NA
Arrow Flanker 2014	12382	1	"<?xml version=""1.0""?>\n<Clock xmlns:dt=""urn:schemas-microsoft-com:datatypes""><Description dt:dt=""string"">E-Prime Primary Realtime Clock</Description><StartTime><Timestamp dt:dt=""int"">0</Timestamp><DateUtc dt:dt=""string"">2015-06-29T17:51:30Z</DateUtc></StartTime><FrequencyChanges><FrequencyChange><Frequency dt:dt=""r8"">2825703</Frequency><Timestamp dt:dt=""r8"">4745415471515</Timestamp><Current dt:dt=""r8"">0</Current><DateUtc dt:dt=""string"">2015-06-29T17:51:30Z</DateUtc></FrequencyChange></FrequencyChanges></Clock>\n"	Arrow Flanker 2014-12382-1	60.019	1.0.0.98	1	-522820274	Professional	2.0.10.353	2.0.10.353	06-29-2015	6/29/2015 5:51:30 PM	13:51:30	2.0.10.248	1	NA	NA	NA	NA	NA	NA	NA	NA	NA	NA	NA	NA	NA	1	1	1	NA	NA	NA	NA	NA	NA	NA	NA	NA	NA	NA	MapBlockProc	MapBlockList	NA	3	{LEFTARROW}	-100	NA	1217	NA	1	1	3	0	16	272000	1233	0	{LEFTARROW}	-999999	0	273733	0	{RIGHTARROW}	233	273966	NA	NA	NA	NA	NA	NA	MapTrialProc	MapTrialList	NA	NA	NA	NA	NA	NA	NA	NA	NA	NA	NA	NA	NA	NA	NA	NA	NA	NA	left	NA	L.bmp	354	NA	NA	NA	NA	NA	NA	NA	NA	NA	NA	NA	NA	NA	NA	NA	NA	NA	NA	NA	NA	NA
Arrow Flanker 2014	12382	1	"<?xml version=""1.0""?>\n<Clock xmlns:dt=""urn:schemas-microsoft-com:datatypes""><Description dt:dt=""string"">E-Prime Primary Realtime Clock</Description><StartTime><Timestamp dt:dt=""int"">0</Timestamp><DateUtc dt:dt=""string"">2015-06-29T17:51:30Z</DateUtc></StartTime><FrequencyChanges><FrequencyChange><Frequency dt:dt=""r8"">2825703</Frequency><Timestamp dt:dt=""r8"">4745415471515</Timestamp><Current dt:dt=""r8"">0</Current><DateUtc dt:dt=""string"">2015-06-29T17:51:30Z</DateUtc></FrequencyChange></FrequencyChanges></Clock>\n"	Arrow Flanker 2014-12382-1	60.019	1.0.0.98	1	-522820274	Professional	2.0.10.353	2.0.10.353	06-29-2015	6/29/2015 5:51:30 PM	13:51:30	2.0.10.248	1	NA	NA	NA	NA	NA	NA	NA	NA	NA	NA	NA	NA	NA	1	1	1	NA	NA	NA	NA	NA	NA	NA	NA	NA	NA	NA	MapBlockProc	MapBlockList	NA	4	{RIGHTARROW}	-100	NA	1009	NA	2	1	4	0	16	275499	1016	1	{RIGHTARROW}	-999999	0	277015	0	{RIGHTARROW}	359	277374	NA	NA	NA	NA	NA	NA	MapTrialProc	MapTrialList	NA	NA	NA	NA	NA	NA	NA	NA	NA	NA	NA	NA	NA	NA	NA	NA	NA	NA	right	NA	R.bmp	354	NA	NA	NA	NA	NA	NA	NA	NA	NA	NA	NA	NA	NA	NA	NA	NA	NA	NA	NA	NA	NA
Arrow Flanker 2014	12382	1	"<?xml version=""1.0""?>\n<Clock xmlns:dt=""urn:schemas-microsoft-com:datatypes""><Description dt:dt=""string"">E-Prime Primary Realtime Clock</Description><StartTime><Timestamp dt:dt=""int"">0</Timestamp><DateUtc dt:dt=""string"">2015-06-29T17:51:30Z</DateUtc></StartTime><FrequencyChanges><FrequencyChange><Frequency dt:dt=""r8"">2825703</Frequency><Timestamp dt:dt=""r8"">4745415471515</Timestamp><Current dt:dt=""r8"">0</Current><DateUtc dt:dt=""string"">2015-06-29T17:51:30Z</DateUtc></FrequencyChange></FrequencyChanges></Clock>\n"	Arrow Flanker 2014-12382-1	60.019	1.0.0.98	1	-522820274	Professional	2.0.10.353	2.0.10.353	06-29-2015	6/29/2015 5:51:30 PM	13:51:30	2.0.10.248	1	NA	NA	NA	NA	NA	NA	NA	NA	NA	NA	NA	NA	NA	1	1	1	NA	NA	NA	NA	NA	NA	NA	NA	NA	NA	NA	MapBlockProc	MapBlockList	NA	5	{LEFTARROW}	-100	NA	1339	NA	1	1	5	0	16	278914	1350	1	{LEFTARROW}	-999999	0	280764	0	{LEFTARROW}	450	281214	NA	NA	NA	NA	NA	NA	MapTrialProc	MapTrialList	NA	NA	NA	NA	NA	NA	NA	NA	NA	NA	NA	NA	NA	NA	NA	NA	NA	NA	left	NA	L.bmp	354	NA	NA	NA	NA	NA	NA	NA	NA	NA	NA	NA	NA	NA	NA	NA	NA	NA	NA	NA	NA	NA
Arrow Flanker 2014	12382	1	"<?xml version=""1.0""?>\n<Clock xmlns:dt=""urn:schemas-microsoft-com:datatypes""><Description dt:dt=""string"">E-Prime Primary Realtime Clock</Description><StartTime><Timestamp dt:dt=""int"">0</Timestamp><DateUtc dt:dt=""string"">2015-06-29T17:51:30Z</DateUtc></StartTime><FrequencyChanges><FrequencyChange><Frequency dt:dt=""r8"">2825703</Frequency><Timestamp dt:dt=""r8"">4745415471515</Timestamp><Current dt:dt=""r8"">0</Current><DateUtc dt:dt=""string"">2015-06-29T17:51:30Z</DateUtc></FrequencyChange></FrequencyChanges></Clock>\n"	Arrow Flanker 2014-12382-1	60.019	1.0.0.98	1	-522820274	Professional	2.0.10.353	2.0.10.353	06-29-2015	6/29/2015 5:51:30 PM	13:51:30	2.0.10.248	1	NA	NA	NA	NA	NA	NA	NA	NA	NA	NA	NA	NA	NA	1	1	1	NA	NA	NA	NA	NA	NA	NA	NA	NA	NA	NA	MapBlockProc	MapBlockList	NA	6	{RIGHTARROW}	-100	NA	503	NA	2	1	6	0	17	282747	516	1	{RIGHTARROW}	-999999	0	283763	0	{RIGHTARROW}	730	284493	NA	NA	NA	NA	NA	NA	MapTrialProc	MapTrialList	NA	NA	NA	NA	NA	NA	NA	NA	NA	NA	NA	NA	NA	NA	NA	NA	NA	NA	right	NA	R.bmp	354	NA	NA	NA	NA	NA	NA	NA	NA	NA	NA	NA	NA	NA	NA	NA	NA	NA	NA	NA	NA	NA
Arrow Flanker 2014	12382	1	"<?xml version=""1.0""?>\n<Clock xmlns:dt=""urn:schemas-microsoft-com:datatypes""><Description dt:dt=""string"">E-Prime Primary Realtime Clock</Description><StartTime><Timestamp dt:dt=""int"">0</Timestamp><DateUtc dt:dt=""string"">2015-06-29T17:51:30Z</DateUtc></StartTime><FrequencyChanges><FrequencyChange><Frequency dt:dt=""r8"">2825703</Frequency><Timestamp dt:dt=""r8"">4745415471515</Timestamp><Current dt:dt=""r8"">0</Current><DateUtc dt:dt=""string"">2015-06-29T17:51:30Z</DateUtc></FrequencyChange></FrequencyChanges></Clock>\n"	Arrow Flanker 2014-12382-1	60.019	1.0.0.98	1	-522820274	Professional	2.0.10.353	2.0.10.353	06-29-2015	6/29/2015 5:51:30 PM	13:51:30	2.0.10.248	1	NA	NA	NA	NA	NA	NA	NA	NA	NA	NA	NA	NA	NA	1	1	1	NA	NA	NA	NA	NA	NA	NA	NA	NA	NA	NA	MapBlockProc	MapBlockList	NA	7	{LEFTARROW}	-100	NA	1557	NA	1	1	7	0	16	286029	1566	1	{LEFTARROW}	-999999	0	288095	0	{LEFTARROW}	422	288517	NA	NA	NA	NA	NA	NA	MapTrialProc	MapTrialList	NA	NA	NA	NA	NA	NA	NA	NA	NA	NA	NA	NA	NA	NA	NA	NA	NA	NA	left	NA	L.bmp	354	NA	NA	NA	NA	NA	NA	NA	NA	NA	NA	NA	NA	NA	NA	NA	NA	NA	NA	NA	NA	NA
Arrow Flanker 2014	12382	1	"<?xml version=""1.0""?>\n<Clock xmlns:dt=""urn:schemas-microsoft-com:datatypes""><Description dt:dt=""string"">E-Prime Primary Realtime Clock</Description><StartTime><Timestamp dt:dt=""int"">0</Timestamp><DateUtc dt:dt=""string"">2015-06-29T17:51:30Z</DateUtc></StartTime><FrequencyChanges><FrequencyChange><Frequency dt:dt=""r8"">2825703</Frequency><Timestamp dt:dt=""r8"">4745415471515</Timestamp><Current dt:dt=""r8"">0</Current><DateUtc dt:dt=""string"">2015-06-29T17:51:30Z</DateUtc></FrequencyChange></FrequencyChanges></Clock>\n"	Arrow Flanker 2014-12382-1	60.019	1.0.0.98	1	-522820274	Professional	2.0.10.353	2.0.10.353	06-29-2015	6/29/2015 5:51:30 PM	13:51:30	2.0.10.248	1	NA	NA	NA	NA	NA	NA	NA	NA	NA	NA	NA	NA	NA	1	1	1	NA	NA	NA	NA	NA	NA	NA	NA	NA	NA	NA	MapBlockProc	MapBlockList	NA	8	{LEFTARROW}	-100	NA	831	NA	1	1	8	0	16	290044	833	1	{LEFTARROW}	-999999	0	291377	0	{LEFTARROW}	780	292157	NA	NA	NA	NA	NA	NA	MapTrialProc	MapTrialList	NA	NA	NA	NA	NA	NA	NA	NA	NA	NA	NA	NA	NA	NA	NA	NA	NA	NA	left	NA	L.bmp	354	NA	NA	NA	NA	NA	NA	NA	NA	NA	NA	NA	NA	NA	NA	NA	NA	NA	NA	NA	NA	NA
Arrow Flanker 2014	12382	1	"<?xml version=""1.0""?>\n<Clock xmlns:dt=""urn:schemas-microsoft-com:datatypes""><Description dt:dt=""string"">E-Prime Primary Realtime Clock</Description><StartTime><Timestamp dt:dt=""int"">0</Timestamp><DateUtc dt:dt=""string"">2015-06-29T17:51:30Z</DateUtc></StartTime><FrequencyChanges><FrequencyChange><Frequency dt:dt=""r8"">2825703</Frequency><Timestamp dt:dt=""r8"">4745415471515</Timestamp><Current dt:dt=""r8"">0</Current><DateUtc dt:dt=""string"">2015-06-29T17:51:30Z</DateUtc></FrequencyChange></FrequencyChanges></Clock>\n"	Arrow Flanker 2014-12382-1	60.019	1.0.0.98	1	-522820274	Professional	2.0.10.353	2.0.10.353	06-29-2015	6/29/2015 5:51:30 PM	13:51:30	2.0.10.248	1	NA	NA	NA	NA	NA	NA	NA	NA	NA	NA	NA	NA	NA	1	1	1	NA	NA	NA	NA	NA	NA	NA	NA	NA	NA	NA	MapBlockProc	MapBlockList	NA	9	{RIGHTARROW}	-100	NA	478	NA	2	1	9	0	16	293693	483	1	{RIGHTARROW}	-999999	0	294676	0	{RIGHTARROW}	393	295069	NA	NA	NA	NA	NA	NA	MapTrialProc	MapTrialList	NA	NA	NA	NA	NA	NA	NA	NA	NA	NA	NA	NA	NA	NA	NA	NA	NA	NA	right	NA	R.bmp	354	NA	NA	NA	NA	NA	NA	NA	NA	NA	NA	NA	NA	NA	NA	NA	NA	NA	NA	NA	NA	NA
Arrow Flanker 2014	12382	1	"<?xml version=""1.0""?>\n<Clock xmlns:dt=""urn:schemas-microsoft-com:datatypes""><Description dt:dt=""string"">E-Prime Primary Realtime Clock</Description><StartTime><Timestamp dt:dt=""int"">0</Timestamp><DateUtc dt:dt=""string"">2015-06-29T17:51:30Z</DateUtc></StartTime><FrequencyChanges><FrequencyChange><Frequency dt:dt=""r8"">2825703</Frequency><Timestamp dt:dt=""r8"">4745415471515</Timestamp><Current dt:dt=""r8"">0</Current><DateUtc dt:dt=""string"">2015-06-29T17:51:30Z</DateUtc></FrequencyChange></FrequencyChanges></Clock>\n"	Arrow Flanker 2014-12382-1	60.019	1.0.0.98	1	-522820274	Professional	2.0.10.353	2.0.10.353	06-29-2015	6/29/2015 5:51:30 PM	13:51:30	2.0.10.248	1	NA	NA	NA	NA	NA	NA	NA	NA	NA	NA	NA	NA	NA	1	1	1	NA	NA	NA	NA	NA	NA	NA	NA	NA	NA	NA	MapBlockProc	MapBlockList	NA	10	{RIGHTARROW}	-100	NA	589	NA	2	1	10	0	16	296609	600	1	{RIGHTARROW}	-999999	0	297709	0	{RIGHTARROW}	487	298196	NA	NA	NA	NA	NA	NA	MapTrialProc	MapTrialList	NA	NA	NA	NA	NA	NA	NA	NA	NA	NA	NA	NA	NA	NA	NA	NA	NA	NA	right	NA	R.bmp	354	NA	NA	NA	NA	NA	NA	NA	NA	NA	NA	NA	NA	NA	NA	NA	NA	NA	NA	NA	NA	NA
Arrow Flanker 2014	12382	1	"<?xml version=""1.0""?>\n<Clock xmlns:dt=""urn:schemas-microsoft-com:datatypes""><Description dt:dt=""string"">E-Prime Primary Realtime Clock</Description><StartTime><Timestamp dt:dt=""int"">0</Timestamp><DateUtc dt:dt=""string"">2015-06-29T17:51:30Z</DateUtc></StartTime><FrequencyChanges><FrequencyChange><Frequency dt:dt=""r8"">2825703</Frequency><Timestamp dt:dt=""r8"">4745415471515</Timestamp><Current dt:dt=""r8"">0</Current><DateUtc dt:dt=""string"">2015-06-29T17:51:30Z</DateUtc></FrequencyChange></FrequencyChanges></Clock>\n"	Arrow Flanker 2014-12382-1	60.019	1.0.0.98	1	-522820274	Professional	2.0.10.353	2.0.10.353	06-29-2015	6/29/2015 5:51:30 PM	13:51:30	2.0.10.248	2	NA	NA	NA	NA	NA	NA	NA	NA	NA	NA	NA	NA	NA	NA	NA	NA	NA	NA	NA	NA	NA	NA	NA	NA	1	1	1	PracBlockProc	PracBlockList	NA	1	{LEFTARROW}	-100	NA	969	congruent	NA	NA	NA	0	19	324534	983	1	{LEFTARROW}	-999999	16	326033	0	{LEFTARROW}	753	326786	NA	1	1	1	NA	NA	PracTrialProc	PracTrialList	NA	NA	NA	NA	NA	NA	NA	NA	NA	NA	NA	NA	NA	NA	NA	NA	NA	NA	left	NA	lllll.bmp	354	NA	NA	NA	NA	NA	NA	NA	NA	NA	NA	NA	NA	NA	NA	NA	NA	NA	NA	NA	NA	NA
Arrow Flanker 2014	12382	1	"<?xml version=""1.0""?>\n<Clock xmlns:dt=""urn:schemas-microsoft-com:datatypes""><Description dt:dt=""string"">E-Prime Primary Realtime Clock</Description><StartTime><Timestamp dt:dt=""int"">0</Timestamp><DateUtc dt:dt=""string"">2015-06-29T17:51:30Z</DateUtc></StartTime><FrequencyChanges><FrequencyChange><Frequency dt:dt=""r8"">2825703</Frequency><Timestamp dt:dt=""r8"">4745415471515</Timestamp><Current dt:dt=""r8"">0</Current><DateUtc dt:dt=""string"">2015-06-29T17:51:30Z</DateUtc></FrequencyChange></FrequencyChanges></Clock>\n"	Arrow Flanker 2014-12382-1	60.019	1.0.0.98	1	-522820274	Professional	2.0.10.353	2.0.10.353	06-29-2015	6/29/2015 5:51:30 PM	13:51:30	2.0.10.248	2	NA	NA	NA	NA	NA	NA	NA	NA	NA	NA	NA	NA	NA	NA	NA	NA	NA	NA	NA	NA	NA	NA	NA	NA	1	1	1	PracBlockProc	PracBlockList	NA	2	{RIGHTARROW}	-100	NA	1122	congruent	NA	NA	NA	0	16	328316	1133	1	{RIGHTARROW}	-999999	16	329965	0	{RIGHTARROW}	853	330818	NA	4	1	2	NA	NA	PracTrialProc	PracTrialList	NA	NA	NA	NA	NA	NA	NA	NA	NA	NA	NA	NA	NA	NA	NA	NA	NA	NA	right	NA	rrrrr.bmp	354	NA	NA	NA	NA	NA	NA	NA	NA	NA	NA	NA	NA	NA	NA	NA	NA	NA	NA	NA	NA	NA
Arrow Flanker 2014	12382	1	"<?xml version=""1.0""?>\n<Clock xmlns:dt=""urn:schemas-microsoft-com:datatypes""><Description dt:dt=""string"">E-Prime Primary Realtime Clock</Description><StartTime><Timestamp dt:dt=""int"">0</Timestamp><DateUtc dt:dt=""string"">2015-06-29T17:51:30Z</DateUtc></StartTime><FrequencyChanges><FrequencyChange><Frequency dt:dt=""r8"">2825703</Frequency><Timestamp dt:dt=""r8"">4745415471515</Timestamp><Current dt:dt=""r8"">0</Current><DateUtc dt:dt=""string"">2015-06-29T17:51:30Z</DateUtc></FrequencyChange></FrequencyChanges></Clock>\n"	Arrow Flanker 2014-12382-1	60.019	1.0.0.98	1	-522820274	Professional	2.0.10.353	2.0.10.353	06-29-2015	6/29/2015 5:51:30 PM	13:51:30	2.0.10.248	2	NA	NA	NA	NA	NA	NA	NA	NA	NA	NA	NA	NA	NA	NA	NA	NA	NA	NA	NA	NA	NA	NA	NA	NA	1	1	1	PracBlockProc	PracBlockList	NA	3	{LEFTARROW}	-100	NA	1192	incongruent	NA	NA	NA	0	16	332348	1199	0	{LEFTARROW}	0	0	334047	1700	NA	0	0	NA	2	1	3	NA	NA	PracTrialProc	PracTrialList	NA	NA	NA	NA	NA	NA	NA	NA	NA	NA	NA	NA	NA	NA	NA	NA	NA	NA	left	NA	rrlrr.bmp	354	NA	NA	NA	NA	NA	NA	NA	NA	NA	NA	NA	NA	NA	NA	NA	NA	NA	NA	NA	NA	NA
Arrow Flanker 2014	12382	1	"<?xml version=""1.0""?>\n<Clock xmlns:dt=""urn:schemas-microsoft-com:datatypes""><Description dt:dt=""string"">E-Prime Primary Realtime Clock</Description><StartTime><Timestamp dt:dt=""int"">0</Timestamp><DateUtc dt:dt=""string"">2015-06-29T17:51:30Z</DateUtc></StartTime><FrequencyChanges><FrequencyChange><Frequency dt:dt=""r8"">2825703</Frequency><Timestamp dt:dt=""r8"">4745415471515</Timestamp><Current dt:dt=""r8"">0</Current><DateUtc dt:dt=""string"">2015-06-29T17:51:30Z</DateUtc></FrequencyChange></FrequencyChanges></Clock>\n"	Arrow Flanker 2014-12382-1	60.019	1.0.0.98	1	-522820274	Professional	2.0.10.353	2.0.10.353	06-29-2015	6/29/2015 5:51:30 PM	13:51:30	2.0.10.248	2	NA	NA	NA	NA	NA	NA	NA	NA	NA	NA	NA	NA	NA	NA	NA	NA	NA	NA	NA	NA	NA	NA	NA	NA	1	1	1	PracBlockProc	PracBlockList	NA	4	{RIGHTARROW}	-100	NA	783	neutral	NA	NA	NA	0	16	337263	783	1	{RIGHTARROW}	-999999	0	338546	0	{RIGHTARROW}	703	339249	NA	6	1	4	NA	NA	PracTrialProc	PracTrialList	NA	NA	NA	NA	NA	NA	NA	NA	NA	NA	NA	NA	NA	NA	NA	NA	NA	NA	right	NA	ooroo.bmp	354	NA	NA	NA	NA	NA	NA	NA	NA	NA	NA	NA	NA	NA	NA	NA	NA	NA	NA	NA	NA	NA
Arrow Flanker 2014	12382	1	"<?xml version=""1.0""?>\n<Clock xmlns:dt=""urn:schemas-microsoft-com:datatypes""><Description dt:dt=""string"">E-Prime Primary Realtime Clock</Description><StartTime><Timestamp dt:dt=""int"">0</Timestamp><DateUtc dt:dt=""string"">2015-06-29T17:51:30Z</DateUtc></StartTime><FrequencyChanges><FrequencyChange><Frequency dt:dt=""r8"">2825703</Frequency><Timestamp dt:dt=""r8"">4745415471515</Timestamp><Current dt:dt=""r8"">0</Current><DateUtc dt:dt=""string"">2015-06-29T17:51:30Z</DateUtc></FrequencyChange></FrequencyChanges></Clock>\n"	Arrow Flanker 2014-12382-1	60.019	1.0.0.98	1	-522820274	Professional	2.0.10.353	2.0.10.353	06-29-2015	6/29/2015 5:51:30 PM	13:51:30	2.0.10.248	2	NA	NA	NA	NA	NA	NA	NA	NA	NA	NA	NA	NA	NA	NA	NA	NA	NA	NA	NA	NA	NA	NA	NA	NA	1	1	1	PracBlockProc	PracBlockList	NA	5	{LEFTARROW}	-100	NA	929	neutral	NA	NA	NA	0	16	340778	933	1	{LEFTARROW}	-999999	16	342228	0	{LEFTARROW}	445	342673	NA	3	1	5	NA	NA	PracTrialProc	PracTrialList	NA	NA	NA	NA	NA	NA	NA	NA	NA	NA	NA	NA	NA	NA	NA	NA	NA	NA	left	NA	ooloo.bmp	354	NA	NA	NA	NA	NA	NA	NA	NA	NA	NA	NA	NA	NA	NA	NA	NA	NA	NA	NA	NA	NA
Arrow Flanker 2014	12382	1	"<?xml version=""1.0""?>\n<Clock xmlns:dt=""urn:schemas-microsoft-com:datatypes""><Description dt:dt=""string"">E-Prime Primary Realtime Clock</Description><StartTime><Timestamp dt:dt=""int"">0</Timestamp><DateUtc dt:dt=""string"">2015-06-29T17:51:30Z</DateUtc></StartTime><FrequencyChanges><FrequencyChange><Frequency dt:dt=""r8"">2825703</Frequency><Timestamp dt:dt=""r8"">4745415471515</Timestamp><Current dt:dt=""r8"">0</Current><DateUtc dt:dt=""string"">2015-06-29T17:51:30Z</DateUtc></FrequencyChange></FrequencyChanges></Clock>\n"	Arrow Flanker 2014-12382-1	60.019	1.0.0.98	1	-522820274	Professional	2.0.10.353	2.0.10.353	06-29-2015	6/29/2015 5:51:30 PM	13:51:30	2.0.10.248	2	NA	NA	NA	NA	NA	NA	NA	NA	NA	NA	NA	NA	NA	NA	NA	NA	NA	NA	NA	NA	NA	NA	NA	NA	1	1	1	PracBlockProc	PracBlockList	NA	6	{RIGHTARROW}	-100	NA	696	incongruent	NA	NA	NA	0	16	344211	700	1	{RIGHTARROW}	-999999	0	345410	0	{RIGHTARROW}	519	345929	NA	5	1	6	NA	NA	PracTrialProc	PracTrialList	NA	NA	NA	NA	NA	NA	NA	NA	NA	NA	NA	NA	NA	NA	NA	NA	NA	NA	right	NA	llrll.bmp	354	NA	NA	NA	NA	NA	NA	NA	NA	NA	NA	NA	NA	NA	NA	NA	NA	NA	NA	NA	NA	NA
Arrow Flanker 2014	12382	1	"<?xml version=""1.0""?>\n<Clock xmlns:dt=""urn:schemas-microsoft-com:datatypes""><Description dt:dt=""string"">E-Prime Primary Realtime Clock</Description><StartTime><Timestamp dt:dt=""int"">0</Timestamp><DateUtc dt:dt=""string"">2015-06-29T17:51:30Z</DateUtc></StartTime><FrequencyChanges><FrequencyChange><Frequency dt:dt=""r8"">2825703</Frequency><Timestamp dt:dt=""r8"">4745415471515</Timestamp><Current dt:dt=""r8"">0</Current><DateUtc dt:dt=""string"">2015-06-29T17:51:30Z</DateUtc></FrequencyChange></FrequencyChanges></Clock>\n"	Arrow Flanker 2014-12382-1	60.019	1.0.0.98	1	-522820274	Professional	2.0.10.353	2.0.10.353	06-29-2015	6/29/2015 5:51:30 PM	13:51:30	2.0.10.248	3	NA	NA	NA	NA	NA	NA	NA	NA	NA	NA	NA	NA	NA	NA	NA	NA	NA	NA	NA	NA	NA	NA	NA	NA	1	2	2	PracBlockProc	PracBlockList	NA	1	{RIGHTARROW}	-100	NA	645	incongruent	NA	NA	NA	0	9	363505	650	1	{RIGHTARROW}	-999999	0	364671	0	{RIGHTARROW}	776	365447	NA	5	2	7	NA	NA	PracTrialProc	PracTrialList	NA	NA	NA	NA	NA	NA	NA	NA	NA	NA	NA	NA	NA	NA	NA	NA	NA	NA	right	NA	llrll.bmp	354	NA	NA	NA	NA	NA	NA	NA	NA	NA	NA	NA	NA	NA	NA	NA	NA	NA	NA	NA	NA	NA
Arrow Flanker 2014	12382	1	"<?xml version=""1.0""?>\n<Clock xmlns:dt=""urn:schemas-microsoft-com:datatypes""><Description dt:dt=""string"">E-Prime Primary Realtime Clock</Description><StartTime><Timestamp dt:dt=""int"">0</Timestamp><DateUtc dt:dt=""string"">2015-06-29T17:51:30Z</DateUtc></StartTime><FrequencyChanges><FrequencyChange><Frequency dt:dt=""r8"">2825703</Frequency><Timestamp dt:dt=""r8"">4745415471515</Timestamp><Current dt:dt=""r8"">0</Current><DateUtc dt:dt=""string"">2015-06-29T17:51:30Z</DateUtc></FrequencyChange></FrequencyChanges></Clock>\n"	Arrow Flanker 2014-12382-1	60.019	1.0.0.98	1	-522820274	Professional	2.0.10.353	2.0.10.353	06-29-2015	6/29/2015 5:51:30 PM	13:51:30	2.0.10.248	3	NA	NA	NA	NA	NA	NA	NA	NA	NA	NA	NA	NA	NA	NA	NA	NA	NA	NA	NA	NA	NA	NA	NA	NA	1	2	2	PracBlockProc	PracBlockList	NA	2	{LEFTARROW}	-100	NA	662	neutral	NA	NA	NA	0	16	366987	666	1	{LEFTARROW}	-999999	0	368153	0	{LEFTARROW}	470	368623	NA	3	2	8	NA	NA	PracTrialProc	PracTrialList	NA	NA	NA	NA	NA	NA	NA	NA	NA	NA	NA	NA	NA	NA	NA	NA	NA	NA	left	NA	ooloo.bmp	354	NA	NA	NA	NA	NA	NA	NA	NA	NA	NA	NA	NA	NA	NA	NA	NA	NA	NA	NA	NA	NA
Arrow Flanker 2014	12382	1	"<?xml version=""1.0""?>\n<Clock xmlns:dt=""urn:schemas-microsoft-com:datatypes""><Description dt:dt=""string"">E-Prime Primary Realtime Clock</Description><StartTime><Timestamp dt:dt=""int"">0</Timestamp><DateUtc dt:dt=""string"">2015-06-29T17:51:30Z</DateUtc></StartTime><FrequencyChanges><FrequencyChange><Frequency dt:dt=""r8"">2825703</Frequency><Timestamp dt:dt=""r8"">4745415471515</Timestamp><Current dt:dt=""r8"">0</Current><DateUtc dt:dt=""string"">2015-06-29T17:51:30Z</DateUtc></FrequencyChange></FrequencyChanges></Clock>\n"	Arrow Flanker 2014-12382-1	60.019	1.0.0.98	1	-522820274	Professional	2.0.10.353	2.0.10.353	06-29-2015	6/29/2015 5:51:30 PM	13:51:30	2.0.10.248	3	NA	NA	NA	NA	NA	NA	NA	NA	NA	NA	NA	NA	NA	NA	NA	NA	NA	NA	NA	NA	NA	NA	NA	NA	1	2	2	PracBlockProc	PracBlockList	NA	3	{LEFTARROW}	-100	NA	1047	incongruent	NA	NA	NA	0	17	370153	1049	0	{LEFTARROW}	-999999	0	371702	0	{RIGHTARROW}	801	372503	NA	2	2	9	NA	NA	PracTrialProc	PracTrialList	NA	NA	NA	NA	NA	NA	NA	NA	NA	NA	NA	NA	NA	NA	NA	NA	NA	NA	left	NA	rrlrr.bmp	354	NA	NA	NA	NA	NA	NA	NA	NA	NA	NA	NA	NA	NA	NA	NA	NA	NA	NA	NA	NA	NA
Arrow Flanker 2014	12382	1	"<?xml version=""1.0""?>\n<Clock xmlns:dt=""urn:schemas-microsoft-com:datatypes""><Description dt:dt=""string"">E-Prime Primary Realtime Clock</Description><StartTime><Timestamp dt:dt=""int"">0</Timestamp><DateUtc dt:dt=""string"">2015-06-29T17:51:30Z</DateUtc></StartTime><FrequencyChanges><FrequencyChange><Frequency dt:dt=""r8"">2825703</Frequency><Timestamp dt:dt=""r8"">4745415471515</Timestamp><Current dt:dt=""r8"">0</Current><DateUtc dt:dt=""string"">2015-06-29T17:51:30Z</DateUtc></FrequencyChange></FrequencyChanges></Clock>\n"	Arrow Flanker 2014-12382-1	60.019	1.0.0.98	1	-522820274	Professional	2.0.10.353	2.0.10.353	06-29-2015	6/29/2015 5:51:30 PM	13:51:30	2.0.10.248	3	NA	NA	NA	NA	NA	NA	NA	NA	NA	NA	NA	NA	NA	NA	NA	NA	NA	NA	NA	NA	NA	NA	NA	NA	1	2	2	PracBlockProc	PracBlockList	NA	4	{LEFTARROW}	-100	NA	1000	congruent	NA	NA	NA	0	16	374035	1016	1	{LEFTARROW}	-999999	0	375551	0	{LEFTARROW}	992	376543	NA	1	2	10	NA	NA	PracTrialProc	PracTrialList	NA	NA	NA	NA	NA	NA	NA	NA	NA	NA	NA	NA	NA	NA	NA	NA	NA	NA	left	NA	lllll.bmp	354	NA	NA	NA	NA	NA	NA	NA	NA	NA	NA	NA	NA	NA	NA	NA	NA	NA	NA	NA	NA	NA
Arrow Flanker 2014	12382	1	"<?xml version=""1.0""?>\n<Clock xmlns:dt=""urn:schemas-microsoft-com:datatypes""><Description dt:dt=""string"">E-Prime Primary Realtime Clock</Description><StartTime><Timestamp dt:dt=""int"">0</Timestamp><DateUtc dt:dt=""string"">2015-06-29T17:51:30Z</DateUtc></StartTime><FrequencyChanges><FrequencyChange><Frequency dt:dt=""r8"">2825703</Frequency><Timestamp dt:dt=""r8"">4745415471515</Timestamp><Current dt:dt=""r8"">0</Current><DateUtc dt:dt=""string"">2015-06-29T17:51:30Z</DateUtc></FrequencyChange></FrequencyChanges></Clock>\n"	Arrow Flanker 2014-12382-1	60.019	1.0.0.98	1	-522820274	Professional	2.0.10.353	2.0.10.353	06-29-2015	6/29/2015 5:51:30 PM	13:51:30	2.0.10.248	3	NA	NA	NA	NA	NA	NA	NA	NA	NA	NA	NA	NA	NA	NA	NA	NA	NA	NA	NA	NA	NA	NA	NA	NA	1	2	2	PracBlockProc	PracBlockList	NA	5	{RIGHTARROW}	-100	NA	1563	neutral	NA	NA	NA	0	17	378084	1566	1	{RIGHTARROW}	-999999	16	380166	0	{RIGHTARROW}	520	380686	NA	6	2	11	NA	NA	PracTrialProc	PracTrialList	NA	NA	NA	NA	NA	NA	NA	NA	NA	NA	NA	NA	NA	NA	NA	NA	NA	NA	right	NA	ooroo.bmp	354	NA	NA	NA	NA	NA	NA	NA	NA	NA	NA	NA	NA	NA	NA	NA	NA	NA	NA	NA	NA	NA
Arrow Flanker 2014	12382	1	"<?xml version=""1.0""?>\n<Clock xmlns:dt=""urn:schemas-microsoft-com:datatypes""><Description dt:dt=""string"">E-Prime Primary Realtime Clock</Description><StartTime><Timestamp dt:dt=""int"">0</Timestamp><DateUtc dt:dt=""string"">2015-06-29T17:51:30Z</DateUtc></StartTime><FrequencyChanges><FrequencyChange><Frequency dt:dt=""r8"">2825703</Frequency><Timestamp dt:dt=""r8"">4745415471515</Timestamp><Current dt:dt=""r8"">0</Current><DateUtc dt:dt=""string"">2015-06-29T17:51:30Z</DateUtc></FrequencyChange></FrequencyChanges></Clock>\n"	Arrow Flanker 2014-12382-1	60.019	1.0.0.98	1	-522820274	Professional	2.0.10.353	2.0.10.353	06-29-2015	6/29/2015 5:51:30 PM	13:51:30	2.0.10.248	3	NA	NA	NA	NA	NA	NA	NA	NA	NA	NA	NA	NA	NA	NA	NA	NA	NA	NA	NA	NA	NA	NA	NA	NA	1	2	2	PracBlockProc	PracBlockList	NA	6	{RIGHTARROW}	-100	NA	1582	congruent	NA	NA	NA	0	16	382215	1583	1	{RIGHTARROW}	-999999	0	384298	0	{RIGHTARROW}	716	385014	NA	4	2	12	NA	NA	PracTrialProc	PracTrialList	NA	NA	NA	NA	NA	NA	NA	NA	NA	NA	NA	NA	NA	NA	NA	NA	NA	NA	right	NA	rrrrr.bmp	354	NA	NA	NA	NA	NA	NA	NA	NA	NA	NA	NA	NA	NA	NA	NA	NA	NA	NA	NA	NA	NA
Arrow Flanker 2014	12382	1	"<?xml version=""1.0""?>\n<Clock xmlns:dt=""urn:schemas-microsoft-com:datatypes""><Description dt:dt=""string"">E-Prime Primary Realtime Clock</Description><StartTime><Timestamp dt:dt=""int"">0</Timestamp><DateUtc dt:dt=""string"">2015-06-29T17:51:30Z</DateUtc></StartTime><FrequencyChanges><FrequencyChange><Frequency dt:dt=""r8"">2825703</Frequency><Timestamp dt:dt=""r8"">4745415471515</Timestamp><Current dt:dt=""r8"">0</Current><DateUtc dt:dt=""string"">2015-06-29T17:51:30Z</DateUtc></FrequencyChange></FrequencyChanges></Clock>\n"	Arrow Flanker 2014-12382-1	60.019	1.0.0.98	1	-522820274	Professional	2.0.10.353	2.0.10.353	06-29-2015	6/29/2015 5:51:30 PM	13:51:30	2.0.10.248	4	NA	NA	NA	NA	NA	NA	NA	NA	NA	NA	NA	NA	NA	NA	NA	NA	NA	NA	NA	NA	NA	NA	NA	NA	1	3	3	PracBlockProc	PracBlockList	NA	1	{LEFTARROW}	-100	NA	1545	neutral	NA	NA	NA	0	5	390563	1549	1	{LEFTARROW}	-999999	0	392612	0	{LEFTARROW}	593	393205	NA	3	3	13	NA	NA	PracTrialProc	PracTrialList	NA	NA	NA	NA	NA	NA	NA	NA	NA	NA	NA	NA	NA	NA	NA	NA	NA	NA	left	NA	ooloo.bmp	354	NA	NA	NA	NA	NA	NA	NA	NA	NA	NA	NA	NA	NA	NA	NA	NA	NA	NA	NA	NA	NA
Arrow Flanker 2014	12382	1	"<?xml version=""1.0""?>\n<Clock xmlns:dt=""urn:schemas-microsoft-com:datatypes""><Description dt:dt=""string"">E-Prime Primary Realtime Clock</Description><StartTime><Timestamp dt:dt=""int"">0</Timestamp><DateUtc dt:dt=""string"">2015-06-29T17:51:30Z</DateUtc></StartTime><FrequencyChanges><FrequencyChange><Frequency dt:dt=""r8"">2825703</Frequency><Timestamp dt:dt=""r8"">4745415471515</Timestamp><Current dt:dt=""r8"">0</Current><DateUtc dt:dt=""string"">2015-06-29T17:51:30Z</DateUtc></FrequencyChange></FrequencyChanges></Clock>\n"	Arrow Flanker 2014-12382-1	60.019	1.0.0.98	1	-522820274	Professional	2.0.10.353	2.0.10.353	06-29-2015	6/29/2015 5:51:30 PM	13:51:30	2.0.10.248	4	NA	NA	NA	NA	NA	NA	NA	NA	NA	NA	NA	NA	NA	NA	NA	NA	NA	NA	NA	NA	NA	NA	NA	NA	1	3	3	PracBlockProc	PracBlockList	NA	2	{RIGHTARROW}	-100	NA	1394	congruent	NA	NA	NA	0	16	394745	1399	1	{RIGHTARROW}	-999999	0	396644	0	{RIGHTARROW}	641	397285	NA	4	3	14	NA	NA	PracTrialProc	PracTrialList	NA	NA	NA	NA	NA	NA	NA	NA	NA	NA	NA	NA	NA	NA	NA	NA	NA	NA	right	NA	rrrrr.bmp	354	NA	NA	NA	NA	NA	NA	NA	NA	NA	NA	NA	NA	NA	NA	NA	NA	NA	NA	NA	NA	NA
Arrow Flanker 2014	12382	1	"<?xml version=""1.0""?>\n<Clock xmlns:dt=""urn:schemas-microsoft-com:datatypes""><Description dt:dt=""string"">E-Prime Primary Realtime Clock</Description><StartTime><Timestamp dt:dt=""int"">0</Timestamp><DateUtc dt:dt=""string"">2015-06-29T17:51:30Z</DateUtc></StartTime><FrequencyChanges><FrequencyChange><Frequency dt:dt=""r8"">2825703</Frequency><Timestamp dt:dt=""r8"">4745415471515</Timestamp><Current dt:dt=""r8"">0</Current><DateUtc dt:dt=""string"">2015-06-29T17:51:30Z</DateUtc></FrequencyChange></FrequencyChanges></Clock>\n"	Arrow Flanker 2014-12382-1	60.019	1.0.0.98	1	-522820274	Professional	2.0.10.353	2.0.10.353	06-29-2015	6/29/2015 5:51:30 PM	13:51:30	2.0.10.248	4	NA	NA	NA	NA	NA	NA	NA	NA	NA	NA	NA	NA	NA	NA	NA	NA	NA	NA	NA	NA	NA	NA	NA	NA	1	3	3	PracBlockProc	PracBlockList	NA	3	{RIGHTARROW}	-100	NA	1343	incongruent	NA	NA	NA	0	16	398827	1350	0	{RIGHTARROW}	-999999	0	400693	0	{LEFTARROW}	960	401653	NA	5	3	15	NA	NA	PracTrialProc	PracTrialList	NA	NA	NA	NA	NA	NA	NA	NA	NA	NA	NA	NA	NA	NA	NA	NA	NA	NA	right	NA	llrll.bmp	354	NA	NA	NA	NA	NA	NA	NA	NA	NA	NA	NA	NA	NA	NA	NA	NA	NA	NA	NA	NA	NA
Arrow Flanker 2014	12382	1	"<?xml version=""1.0""?>\n<Clock xmlns:dt=""urn:schemas-microsoft-com:datatypes""><Description dt:dt=""string"">E-Prime Primary Realtime Clock</Description><StartTime><Timestamp dt:dt=""int"">0</Timestamp><DateUtc dt:dt=""string"">2015-06-29T17:51:30Z</DateUtc></StartTime><FrequencyChanges><FrequencyChange><Frequency dt:dt=""r8"">2825703</Frequency><Timestamp dt:dt=""r8"">4745415471515</Timestamp><Current dt:dt=""r8"">0</Current><DateUtc dt:dt=""string"">2015-06-29T17:51:30Z</DateUtc></FrequencyChange></FrequencyChanges></Clock>\n"	Arrow Flanker 2014-12382-1	60.019	1.0.0.98	1	-522820274	Professional	2.0.10.353	2.0.10.353	06-29-2015	6/29/2015 5:51:30 PM	13:51:30	2.0.10.248	4	NA	NA	NA	NA	NA	NA	NA	NA	NA	NA	NA	NA	NA	NA	NA	NA	NA	NA	NA	NA	NA	NA	NA	NA	1	3	3	PracBlockProc	PracBlockList	NA	4	{RIGHTARROW}	-100	NA	1584	neutral	NA	NA	NA	0	16	403192	0	1	{RIGHTARROW}	-999999	0	405292	0	{RIGHTARROW}	512	405804	NA	6	3	16	NA	NA	PracTrialProc	PracTrialList	NA	NA	NA	NA	NA	NA	NA	NA	NA	NA	NA	NA	NA	NA	NA	NA	NA	NA	right	NA	ooroo.bmp	354	NA	NA	NA	NA	NA	NA	NA	NA	NA	NA	NA	NA	NA	NA	NA	NA	NA	NA	NA	NA	NA
Arrow Flanker 2014	12382	1	"<?xml version=""1.0""?>\n<Clock xmlns:dt=""urn:schemas-microsoft-com:datatypes""><Description dt:dt=""string"">E-Prime Primary Realtime Clock</Description><StartTime><Timestamp dt:dt=""int"">0</Timestamp><DateUtc dt:dt=""string"">2015-06-29T17:51:30Z</DateUtc></StartTime><FrequencyChanges><FrequencyChange><Frequency dt:dt=""r8"">2825703</Frequency><Timestamp dt:dt=""r8"">4745415471515</Timestamp><Current dt:dt=""r8"">0</Current><DateUtc dt:dt=""string"">2015-06-29T17:51:30Z</DateUtc></FrequencyChange></FrequencyChanges></Clock>\n"	Arrow Flanker 2014-12382-1	60.019	1.0.0.98	1	-522820274	Professional	2.0.10.353	2.0.10.353	06-29-2015	6/29/2015 5:51:30 PM	13:51:30	2.0.10.248	4	NA	NA	NA	NA	NA	NA	NA	NA	NA	NA	NA	NA	NA	NA	NA	NA	NA	NA	NA	NA	NA	NA	NA	NA	1	3	3	PracBlockProc	PracBlockList	NA	5	{LEFTARROW}	-100	NA	1526	congruent	NA	NA	NA	0	16	407341	0	1	{LEFTARROW}	-999999	0	409374	0	{LEFTARROW}	598	409972	NA	1	3	17	NA	NA	PracTrialProc	PracTrialList	NA	NA	NA	NA	NA	NA	NA	NA	NA	NA	NA	NA	NA	NA	NA	NA	NA	NA	left	NA	lllll.bmp	354	NA	NA	NA	NA	NA	NA	NA	NA	NA	NA	NA	NA	NA	NA	NA	NA	NA	NA	NA	NA	NA
Arrow Flanker 2014	12382	1	"<?xml version=""1.0""?>\n<Clock xmlns:dt=""urn:schemas-microsoft-com:datatypes""><Description dt:dt=""string"">E-Prime Primary Realtime Clock</Description><StartTime><Timestamp dt:dt=""int"">0</Timestamp><DateUtc dt:dt=""string"">2015-06-29T17:51:30Z</DateUtc></StartTime><FrequencyChanges><FrequencyChange><Frequency dt:dt=""r8"">2825703</Frequency><Timestamp dt:dt=""r8"">4745415471515</Timestamp><Current dt:dt=""r8"">0</Current><DateUtc dt:dt=""string"">2015-06-29T17:51:30Z</DateUtc></FrequencyChange></FrequencyChanges></Clock>\n"	Arrow Flanker 2014-12382-1	60.019	1.0.0.98	1	-522820274	Professional	2.0.10.353	2.0.10.353	06-29-2015	6/29/2015 5:51:30 PM	13:51:30	2.0.10.248	4	NA	NA	NA	NA	NA	NA	NA	NA	NA	NA	NA	NA	NA	NA	NA	NA	NA	NA	NA	NA	NA	NA	NA	NA	1	3	3	PracBlockProc	PracBlockList	NA	6	{LEFTARROW}	-100	NA	1379	incongruent	NA	NA	NA	0	16	411506	0	1	{LEFTARROW}	-999999	0	413389	0	{LEFTARROW}	1207	414596	NA	2	3	18	NA	NA	PracTrialProc	PracTrialList	NA	NA	NA	NA	NA	NA	NA	NA	NA	NA	NA	NA	NA	NA	NA	NA	NA	NA	left	NA	rrlrr.bmp	354	NA	NA	NA	NA	NA	NA	NA	NA	NA	NA	NA	NA	NA	NA	NA	NA	NA	NA	NA	NA	NA
Arrow Flanker 2014	12382	1	"<?xml version=""1.0""?>\n<Clock xmlns:dt=""urn:schemas-microsoft-com:datatypes""><Description dt:dt=""string"">E-Prime Primary Realtime Clock</Description><StartTime><Timestamp dt:dt=""int"">0</Timestamp><DateUtc dt:dt=""string"">2015-06-29T17:51:30Z</DateUtc></StartTime><FrequencyChanges><FrequencyChange><Frequency dt:dt=""r8"">2825703</Frequency><Timestamp dt:dt=""r8"">4745415471515</Timestamp><Current dt:dt=""r8"">0</Current><DateUtc dt:dt=""string"">2015-06-29T17:51:30Z</DateUtc></FrequencyChange></FrequencyChanges></Clock>\n"	Arrow Flanker 2014-12382-1	60.019	1.0.0.98	1	-522820274	Professional	2.0.10.353	2.0.10.353	06-29-2015	6/29/2015 5:51:30 PM	13:51:30	2.0.10.248	5	NA	NA	NA	NA	NA	NA	NA	NA	NA	NA	NA	NA	NA	NA	NA	NA	NA	NA	NA	NA	NA	NA	NA	NA	1	4	4	PracBlockProc	PracBlockList	NA	1	{LEFTARROW}	-100	NA	757	neutral	NA	NA	NA	0	10	417854	0	1	{LEFTARROW}	-999999	0	419121	0	{LEFTARROW}	530	419651	NA	3	4	19	NA	NA	PracTrialProc	PracTrialList	NA	NA	NA	NA	NA	NA	NA	NA	NA	NA	NA	NA	NA	NA	NA	NA	NA	NA	left	NA	ooloo.bmp	354	NA	NA	NA	NA	NA	NA	NA	NA	NA	NA	NA	NA	NA	NA	NA	NA	NA	NA	NA	NA	NA
Arrow Flanker 2014	12382	1	"<?xml version=""1.0""?>\n<Clock xmlns:dt=""urn:schemas-microsoft-com:datatypes""><Description dt:dt=""string"">E-Prime Primary Realtime Clock</Description><StartTime><Timestamp dt:dt=""int"">0</Timestamp><DateUtc dt:dt=""string"">2015-06-29T17:51:30Z</DateUtc></StartTime><FrequencyChanges><FrequencyChange><Frequency dt:dt=""r8"">2825703</Frequency><Timestamp dt:dt=""r8"">4745415471515</Timestamp><Current dt:dt=""r8"">0</Current><DateUtc dt:dt=""string"">2015-06-29T17:51:30Z</DateUtc></FrequencyChange></FrequencyChanges></Clock>\n"	Arrow Flanker 2014-12382-1	60.019	1.0.0.98	1	-522820274	Professional	2.0.10.353	2.0.10.353	06-29-2015	6/29/2015 5:51:30 PM	13:51:30	2.0.10.248	5	NA	NA	NA	NA	NA	NA	NA	NA	NA	NA	NA	NA	NA	NA	NA	NA	NA	NA	NA	NA	NA	NA	NA	NA	1	4	4	PracBlockProc	PracBlockList	NA	2	{RIGHTARROW}	-100	NA	1470	congruent	NA	NA	NA	0	17	421187	0	1	{RIGHTARROW}	-999999	0	423169	0	{RIGHTARROW}	690	423859	NA	4	4	20	NA	NA	PracTrialProc	PracTrialList	NA	NA	NA	NA	NA	NA	NA	NA	NA	NA	NA	NA	NA	NA	NA	NA	NA	NA	right	NA	rrrrr.bmp	354	NA	NA	NA	NA	NA	NA	NA	NA	NA	NA	NA	NA	NA	NA	NA	NA	NA	NA	NA	NA	NA
Arrow Flanker 2014	12382	1	"<?xml version=""1.0""?>\n<Clock xmlns:dt=""urn:schemas-microsoft-com:datatypes""><Description dt:dt=""string"">E-Prime Primary Realtime Clock</Description><StartTime><Timestamp dt:dt=""int"">0</Timestamp><DateUtc dt:dt=""string"">2015-06-29T17:51:30Z</DateUtc></StartTime><FrequencyChanges><FrequencyChange><Frequency dt:dt=""r8"">2825703</Frequency><Timestamp dt:dt=""r8"">4745415471515</Timestamp><Current dt:dt=""r8"">0</Current><DateUtc dt:dt=""string"">2015-06-29T17:51:30Z</DateUtc></FrequencyChange></FrequencyChanges></Clock>\n"	Arrow Flanker 2014-12382-1	60.019	1.0.0.98	1	-522820274	Professional	2.0.10.353	2.0.10.353	06-29-2015	6/29/2015 5:51:30 PM	13:51:30	2.0.10.248	5	NA	NA	NA	NA	NA	NA	NA	NA	NA	NA	NA	NA	NA	NA	NA	NA	NA	NA	NA	NA	NA	NA	NA	NA	1	4	4	PracBlockProc	PracBlockList	NA	3	{LEFTARROW}	-100	NA	601	incongruent	NA	NA	NA	0	16	425385	0	1	{LEFTARROW}	-999999	0	426502	0	{LEFTARROW}	677	427179	NA	2	4	21	NA	NA	PracTrialProc	PracTrialList	NA	NA	NA	NA	NA	NA	NA	NA	NA	NA	NA	NA	NA	NA	NA	NA	NA	NA	left	NA	rrlrr.bmp	354	NA	NA	NA	NA	NA	NA	NA	NA	NA	NA	NA	NA	NA	NA	NA	NA	NA	NA	NA	NA	NA
Arrow Flanker 2014	12382	1	"<?xml version=""1.0""?>\n<Clock xmlns:dt=""urn:schemas-microsoft-com:datatypes""><Description dt:dt=""string"">E-Prime Primary Realtime Clock</Description><StartTime><Timestamp dt:dt=""int"">0</Timestamp><DateUtc dt:dt=""string"">2015-06-29T17:51:30Z</DateUtc></StartTime><FrequencyChanges><FrequencyChange><Frequency dt:dt=""r8"">2825703</Frequency><Timestamp dt:dt=""r8"">4745415471515</Timestamp><Current dt:dt=""r8"">0</Current><DateUtc dt:dt=""string"">2015-06-29T17:51:30Z</DateUtc></FrequencyChange></FrequencyChanges></Clock>\n"	Arrow Flanker 2014-12382-1	60.019	1.0.0.98	1	-522820274	Professional	2.0.10.353	2.0.10.353	06-29-2015	6/29/2015 5:51:30 PM	13:51:30	2.0.10.248	5	NA	NA	NA	NA	NA	NA	NA	NA	NA	NA	NA	NA	NA	NA	NA	NA	NA	NA	NA	NA	NA	NA	NA	NA	1	4	4	PracBlockProc	PracBlockList	NA	4	{RIGHTARROW}	-100	NA	1317	incongruent	NA	NA	NA	0	17	428718	0	1	{RIGHTARROW}	-999999	0	430550	0	{RIGHTARROW}	724	431274	NA	5	4	22	NA	NA	PracTrialProc	PracTrialList	NA	NA	NA	NA	NA	NA	NA	NA	NA	NA	NA	NA	NA	NA	NA	NA	NA	NA	right	NA	llrll.bmp	354	NA	NA	NA	NA	NA	NA	NA	NA	NA	NA	NA	NA	NA	NA	NA	NA	NA	NA	NA	NA	NA
Arrow Flanker 2014	12382	1	"<?xml version=""1.0""?>\n<Clock xmlns:dt=""urn:schemas-microsoft-com:datatypes""><Description dt:dt=""string"">E-Prime Primary Realtime Clock</Description><StartTime><Timestamp dt:dt=""int"">0</Timestamp><DateUtc dt:dt=""string"">2015-06-29T17:51:30Z</DateUtc></StartTime><FrequencyChanges><FrequencyChange><Frequency dt:dt=""r8"">2825703</Frequency><Timestamp dt:dt=""r8"">4745415471515</Timestamp><Current dt:dt=""r8"">0</Current><DateUtc dt:dt=""string"">2015-06-29T17:51:30Z</DateUtc></FrequencyChange></FrequencyChanges></Clock>\n"	Arrow Flanker 2014-12382-1	60.019	1.0.0.98	1	-522820274	Professional	2.0.10.353	2.0.10.353	06-29-2015	6/29/2015 5:51:30 PM	13:51:30	2.0.10.248	5	NA	NA	NA	NA	NA	NA	NA	NA	NA	NA	NA	NA	NA	NA	NA	NA	NA	NA	NA	NA	NA	NA	NA	NA	1	4	4	PracBlockProc	PracBlockList	NA	5	{RIGHTARROW}	-100	NA	789	neutral	NA	NA	NA	0	16	432816	0	1	{RIGHTARROW}	-999999	0	434116	0	{RIGHTARROW}	614	434730	NA	6	4	23	NA	NA	PracTrialProc	PracTrialList	NA	NA	NA	NA	NA	NA	NA	NA	NA	NA	NA	NA	NA	NA	NA	NA	NA	NA	right	NA	ooroo.bmp	354	NA	NA	NA	NA	NA	NA	NA	NA	NA	NA	NA	NA	NA	NA	NA	NA	NA	NA	NA	NA	NA
Arrow Flanker 2014	12382	1	"<?xml version=""1.0""?>\n<Clock xmlns:dt=""urn:schemas-microsoft-com:datatypes""><Description dt:dt=""string"">E-Prime Primary Realtime Clock</Description><StartTime><Timestamp dt:dt=""int"">0</Timestamp><DateUtc dt:dt=""string"">2015-06-29T17:51:30Z</DateUtc></StartTime><FrequencyChanges><FrequencyChange><Frequency dt:dt=""r8"">2825703</Frequency><Timestamp dt:dt=""r8"">4745415471515</Timestamp><Current dt:dt=""r8"">0</Current><DateUtc dt:dt=""string"">2015-06-29T17:51:30Z</DateUtc></FrequencyChange></FrequencyChanges></Clock>\n"	Arrow Flanker 2014-12382-1	60.019	1.0.0.98	1	-522820274	Professional	2.0.10.353	2.0.10.353	06-29-2015	6/29/2015 5:51:30 PM	13:51:30	2.0.10.248	5	NA	NA	NA	NA	NA	NA	NA	NA	NA	NA	NA	NA	NA	NA	NA	NA	NA	NA	NA	NA	NA	NA	NA	NA	1	4	4	PracBlockProc	PracBlockList	NA	6	{LEFTARROW}	-100	NA	1355	congruent	NA	NA	NA	0	16	436265	0	1	{LEFTARROW}	-999999	0	438131	0	{LEFTARROW}	503	438634	NA	1	4	24	NA	NA	PracTrialProc	PracTrialList	NA	NA	NA	NA	NA	NA	NA	NA	NA	NA	NA	NA	NA	NA	NA	NA	NA	NA	left	NA	lllll.bmp	354	NA	NA	NA	NA	NA	NA	NA	NA	NA	NA	NA	NA	NA	NA	NA	NA	NA	NA	NA	NA	NA
Arrow Flanker 2014	12382	1	"<?xml version=""1.0""?>\n<Clock xmlns:dt=""urn:schemas-microsoft-com:datatypes""><Description dt:dt=""string"">E-Prime Primary Realtime Clock</Description><StartTime><Timestamp dt:dt=""int"">0</Timestamp><DateUtc dt:dt=""string"">2015-06-29T17:51:30Z</DateUtc></StartTime><FrequencyChanges><FrequencyChange><Frequency dt:dt=""r8"">2825703</Frequency><Timestamp dt:dt=""r8"">4745415471515</Timestamp><Current dt:dt=""r8"">0</Current><DateUtc dt:dt=""string"">2015-06-29T17:51:30Z</DateUtc></FrequencyChange></FrequencyChanges></Clock>\n"	Arrow Flanker 2014-12382-1	60.019	1.0.0.98	1	-522820274	Professional	2.0.10.353	2.0.10.353	06-29-2015	6/29/2015 5:51:30 PM	13:51:30	2.0.10.248	6	1	1	1	NA	NA	NA	NA	NA	NA	NA	NA	NA	NA	NA	NA	NA	NA	NA	NA	NA	NA	NA	NA	NA	NA	NA	NA	BlockProc	BlockList	NA	1	{RIGHTARROW}	NA	-100	2427	congruent	NA	NA	NA	NA	NA	NA	NA	NA	NA	NA	NA	NA	NA	NA	NA	NA	NA	NA	NA	NA	NA	NA	TrialProc	TrialList	1	17	465489	17	0	16	462990	1500	1	{RIGHTARROW}	-999999	0	464990	0	{RIGHTARROW}	482	465472	NA	NA	right	rrrrr.bmp	354	0	NA	0	0	0	0	NA	0	0	0	NA	0	0	0	0	NA	0	0	2	1	1
Arrow Flanker 2014	12382	1	"<?xml version=""1.0""?>\n<Clock xmlns:dt=""urn:schemas-microsoft-com:datatypes""><Description dt:dt=""string"">E-Prime Primary Realtime Clock</Description><StartTime><Timestamp dt:dt=""int"">0</Timestamp><DateUtc dt:dt=""string"">2015-06-29T17:51:30Z</DateUtc></StartTime><FrequencyChanges><FrequencyChange><Frequency dt:dt=""r8"">2825703</Frequency><Timestamp dt:dt=""r8"">4745415471515</Timestamp><Current dt:dt=""r8"">0</Current><DateUtc dt:dt=""string"">2015-06-29T17:51:30Z</DateUtc></FrequencyChange></FrequencyChanges></Clock>\n"	Arrow Flanker 2014-12382-1	60.019	1.0.0.98	1	-522820274	Professional	2.0.10.353	2.0.10.353	06-29-2015	6/29/2015 5:51:30 PM	13:51:30	2.0.10.248	6	1	1	1	NA	NA	NA	NA	NA	NA	NA	NA	NA	NA	NA	NA	NA	NA	NA	NA	NA	NA	NA	NA	NA	NA	NA	NA	BlockProc	BlockList	NA	2	{LEFTARROW}	NA	-100	1655	incongruent	NA	NA	NA	NA	NA	NA	NA	NA	NA	NA	NA	NA	NA	NA	NA	NA	NA	NA	NA	NA	NA	NA	TrialProc	TrialList	0	10	468322	17	0	17	466023	1316	1	{LEFTARROW}	-999999	0	467839	0	{LEFTARROW}	473	468312	NA	NA	left	rrlrr.bmp	354	0	NA	0	0	0	0	NA	0	0	0	NA	0	0	0	0	NA	0	0	3	1	2
Arrow Flanker 2014	12382	1	"<?xml version=""1.0""?>\n<Clock xmlns:dt=""urn:schemas-microsoft-com:datatypes""><Description dt:dt=""string"">E-Prime Primary Realtime Clock</Description><StartTime><Timestamp dt:dt=""int"">0</Timestamp><DateUtc dt:dt=""string"">2015-06-29T17:51:30Z</DateUtc></StartTime><FrequencyChanges><FrequencyChange><Frequency dt:dt=""r8"">2825703</Frequency><Timestamp dt:dt=""r8"">4745415471515</Timestamp><Current dt:dt=""r8"">0</Current><DateUtc dt:dt=""string"">2015-06-29T17:51:30Z</DateUtc></FrequencyChange></FrequencyChanges></Clock>\n"	Arrow Flanker 2014-12382-1	60.019	1.0.0.98	1	-522820274	Professional	2.0.10.353	2.0.10.353	06-29-2015	6/29/2015 5:51:30 PM	13:51:30	2.0.10.248	6	1	1	1	NA	NA	NA	NA	NA	NA	NA	NA	NA	NA	NA	NA	NA	NA	NA	NA	NA	NA	NA	NA	NA	NA	NA	NA	BlockProc	BlockList	NA	3	{RIGHTARROW}	NA	-100	1590	incongruent	NA	NA	NA	NA	NA	NA	NA	NA	NA	NA	NA	NA	NA	NA	NA	NA	NA	NA	NA	NA	NA	NA	TrialProc	TrialList	0	17	471721	17	0	16	468855	1534	1	{RIGHTARROW}	-999999	0	470888	0	{RIGHTARROW}	815	471703	NA	NA	right	llrll.bmp	354	0	NA	0	0	0	0	NA	0	0	0	NA	0	0	0	0	NA	0	0	4	1	3
Arrow Flanker 2014	12382	1	"<?xml version=""1.0""?>\n<Clock xmlns:dt=""urn:schemas-microsoft-com:datatypes""><Description dt:dt=""string"">E-Prime Primary Realtime Clock</Description><StartTime><Timestamp dt:dt=""int"">0</Timestamp><DateUtc dt:dt=""string"">2015-06-29T17:51:30Z</DateUtc></StartTime><FrequencyChanges><FrequencyChange><Frequency dt:dt=""r8"">2825703</Frequency><Timestamp dt:dt=""r8"">4745415471515</Timestamp><Current dt:dt=""r8"">0</Current><DateUtc dt:dt=""string"">2015-06-29T17:51:30Z</DateUtc></FrequencyChange></FrequencyChanges></Clock>\n"	Arrow Flanker 2014-12382-1	60.019	1.0.0.98	1	-522820274	Professional	2.0.10.353	2.0.10.353	06-29-2015	6/29/2015 5:51:30 PM	13:51:30	2.0.10.248	6	1	1	1	NA	NA	NA	NA	NA	NA	NA	NA	NA	NA	NA	NA	NA	NA	NA	NA	NA	NA	NA	NA	NA	NA	NA	NA	BlockProc	BlockList	NA	4	{RIGHTARROW}	NA	-100	421	incongruent	NA	NA	NA	NA	NA	NA	NA	NA	NA	NA	NA	NA	NA	NA	NA	NA	NA	NA	NA	NA	NA	NA	TrialProc	TrialList	1	19	473970	17	0	16	472254	417	1	{RIGHTARROW}	-999999	16	473187	0	{RIGHTARROW}	764	473951	NA	NA	right	llrll.bmp	354	0	NA	0	0	0	0	NA	0	0	0	NA	0	0	0	0	NA	0	0	4	1	4
Arrow Flanker 2014	12382	1	"<?xml version=""1.0""?>\n<Clock xmlns:dt=""urn:schemas-microsoft-com:datatypes""><Description dt:dt=""string"">E-Prime Primary Realtime Clock</Description><StartTime><Timestamp dt:dt=""int"">0</Timestamp><DateUtc dt:dt=""string"">2015-06-29T17:51:30Z</DateUtc></StartTime><FrequencyChanges><FrequencyChange><Frequency dt:dt=""r8"">2825703</Frequency><Timestamp dt:dt=""r8"">4745415471515</Timestamp><Current dt:dt=""r8"">0</Current><DateUtc dt:dt=""string"">2015-06-29T17:51:30Z</DateUtc></FrequencyChange></FrequencyChanges></Clock>\n"	Arrow Flanker 2014-12382-1	60.019	1.0.0.98	1	-522820274	Professional	2.0.10.353	2.0.10.353	06-29-2015	6/29/2015 5:51:30 PM	13:51:30	2.0.10.248	6	1	1	1	NA	NA	NA	NA	NA	NA	NA	NA	NA	NA	NA	NA	NA	NA	NA	NA	NA	NA	NA	NA	NA	NA	NA	NA	BlockProc	BlockList	NA	5	{LEFTARROW}	NA	-100	1411	neutral	NA	NA	NA	NA	NA	NA	NA	NA	NA	NA	NA	NA	NA	NA	NA	NA	NA	NA	NA	NA	NA	NA	TrialProc	TrialList	0	21	476836	17	0	16	474503	1317	1	{LEFTARROW}	-999999	0	476336	0	{LEFTARROW}	479	476815	NA	NA	left	ooloo.bmp	354	0	NA	0	0	0	0	NA	0	0	0	NA	0	0	0	0	NA	0	0	5	1	5
Arrow Flanker 2014	12382	1	"<?xml version=""1.0""?>\n<Clock xmlns:dt=""urn:schemas-microsoft-com:datatypes""><Description dt:dt=""string"">E-Prime Primary Realtime Clock</Description><StartTime><Timestamp dt:dt=""int"">0</Timestamp><DateUtc dt:dt=""string"">2015-06-29T17:51:30Z</DateUtc></StartTime><FrequencyChanges><FrequencyChange><Frequency dt:dt=""r8"">2825703</Frequency><Timestamp dt:dt=""r8"">4745415471515</Timestamp><Current dt:dt=""r8"">0</Current><DateUtc dt:dt=""string"">2015-06-29T17:51:30Z</DateUtc></FrequencyChange></FrequencyChanges></Clock>\n"	Arrow Flanker 2014-12382-1	60.019	1.0.0.98	1	-522820274	Professional	2.0.10.353	2.0.10.353	06-29-2015	6/29/2015 5:51:30 PM	13:51:30	2.0.10.248	6	1	1	1	NA	NA	NA	NA	NA	NA	NA	NA	NA	NA	NA	NA	NA	NA	NA	NA	NA	NA	NA	NA	NA	NA	NA	NA	BlockProc	BlockList	NA	6	{LEFTARROW}	NA	-100	1005	congruent	NA	NA	NA	NA	NA	NA	NA	NA	NA	NA	NA	NA	NA	NA	NA	NA	NA	NA	NA	NA	NA	NA	TrialProc	TrialList	0	18	478969	16	0	16	477369	550	1	{LEFTARROW}	-999999	0	478419	0	{LEFTARROW}	532	478951	NA	NA	left	lllll.bmp	354	0	NA	0	0	0	0	NA	0	0	0	NA	0	0	0	0	NA	0	0	1	1	6
Arrow Flanker 2014	12382	1	"<?xml version=""1.0""?>\n<Clock xmlns:dt=""urn:schemas-microsoft-com:datatypes""><Description dt:dt=""string"">E-Prime Primary Realtime Clock</Description><StartTime><Timestamp dt:dt=""int"">0</Timestamp><DateUtc dt:dt=""string"">2015-06-29T17:51:30Z</DateUtc></StartTime><FrequencyChanges><FrequencyChange><Frequency dt:dt=""r8"">2825703</Frequency><Timestamp dt:dt=""r8"">4745415471515</Timestamp><Current dt:dt=""r8"">0</Current><DateUtc dt:dt=""string"">2015-06-29T17:51:30Z</DateUtc></FrequencyChange></FrequencyChanges></Clock>\n"	Arrow Flanker 2014-12382-1	60.019	1.0.0.98	1	-522820274	Professional	2.0.10.353	2.0.10.353	06-29-2015	6/29/2015 5:51:30 PM	13:51:30	2.0.10.248	6	1	1	1	NA	NA	NA	NA	NA	NA	NA	NA	NA	NA	NA	NA	NA	NA	NA	NA	NA	NA	NA	NA	NA	NA	NA	NA	BlockProc	BlockList	NA	7	{LEFTARROW}	NA	-100	2082	neutral	NA	NA	NA	NA	NA	NA	NA	NA	NA	NA	NA	NA	NA	NA	NA	NA	NA	NA	NA	NA	NA	NA	TrialProc	TrialList	0	13	481868	16	0	17	479502	1383	1	{LEFTARROW}	-999999	-1	481384	0	{LEFTARROW}	471	481855	NA	NA	left	ooloo.bmp	354	0	NA	0	0	0	0	NA	0	0	0	NA	0	0	0	0	NA	0	0	5	1	7
Arrow Flanker 2014	12382	1	"<?xml version=""1.0""?>\n<Clock xmlns:dt=""urn:schemas-microsoft-com:datatypes""><Description dt:dt=""string"">E-Prime Primary Realtime Clock</Description><StartTime><Timestamp dt:dt=""int"">0</Timestamp><DateUtc dt:dt=""string"">2015-06-29T17:51:30Z</DateUtc></StartTime><FrequencyChanges><FrequencyChange><Frequency dt:dt=""r8"">2825703</Frequency><Timestamp dt:dt=""r8"">4745415471515</Timestamp><Current dt:dt=""r8"">0</Current><DateUtc dt:dt=""string"">2015-06-29T17:51:30Z</DateUtc></FrequencyChange></FrequencyChanges></Clock>\n"	Arrow Flanker 2014-12382-1	60.019	1.0.0.98	1	-522820274	Professional	2.0.10.353	2.0.10.353	06-29-2015	6/29/2015 5:51:30 PM	13:51:30	2.0.10.248	6	1	1	1	NA	NA	NA	NA	NA	NA	NA	NA	NA	NA	NA	NA	NA	NA	NA	NA	NA	NA	NA	NA	NA	NA	NA	NA	BlockProc	BlockList	NA	8	{RIGHTARROW}	NA	-100	2180	neutral	NA	NA	NA	NA	NA	NA	NA	NA	NA	NA	NA	NA	NA	NA	NA	NA	NA	NA	NA	NA	NA	NA	TrialProc	TrialList	1	8	484583	17	0	17	482401	1349	1	{RIGHTARROW}	-999999	0	484250	0	{RIGHTARROW}	324	484574	NA	NA	right	ooroo.bmp	354	0	NA	0	0	0	0	NA	0	0	0	NA	0	0	0	0	NA	0	0	6	1	8
Arrow Flanker 2014	12382	1	"<?xml version=""1.0""?>\n<Clock xmlns:dt=""urn:schemas-microsoft-com:datatypes""><Description dt:dt=""string"">E-Prime Primary Realtime Clock</Description><StartTime><Timestamp dt:dt=""int"">0</Timestamp><DateUtc dt:dt=""string"">2015-06-29T17:51:30Z</DateUtc></StartTime><FrequencyChanges><FrequencyChange><Frequency dt:dt=""r8"">2825703</Frequency><Timestamp dt:dt=""r8"">4745415471515</Timestamp><Current dt:dt=""r8"">0</Current><DateUtc dt:dt=""string"">2015-06-29T17:51:30Z</DateUtc></FrequencyChange></FrequencyChanges></Clock>\n"	Arrow Flanker 2014-12382-1	60.019	1.0.0.98	1	-522820274	Professional	2.0.10.353	2.0.10.353	06-29-2015	6/29/2015 5:51:30 PM	13:51:30	2.0.10.248	6	1	1	1	NA	NA	NA	NA	NA	NA	NA	NA	NA	NA	NA	NA	NA	NA	NA	NA	NA	NA	NA	NA	NA	NA	NA	NA	BlockProc	BlockList	NA	9	{LEFTARROW}	NA	-100	1301	congruent	NA	NA	NA	NA	NA	NA	NA	NA	NA	NA	NA	NA	NA	NA	NA	NA	NA	NA	NA	NA	NA	NA	TrialProc	TrialList	1	8	486766	17	0	17	485117	717	1	{LEFTARROW}	-999999	0	486333	0	{LEFTARROW}	425	486758	NA	NA	left	lllll.bmp	354	0	NA	0	0	0	0	NA	0	0	0	NA	0	0	0	0	NA	0	0	1	1	9
Arrow Flanker 2014	12382	1	"<?xml version=""1.0""?>\n<Clock xmlns:dt=""urn:schemas-microsoft-com:datatypes""><Description dt:dt=""string"">E-Prime Primary Realtime Clock</Description><StartTime><Timestamp dt:dt=""int"">0</Timestamp><DateUtc dt:dt=""string"">2015-06-29T17:51:30Z</DateUtc></StartTime><FrequencyChanges><FrequencyChange><Frequency dt:dt=""r8"">2825703</Frequency><Timestamp dt:dt=""r8"">4745415471515</Timestamp><Current dt:dt=""r8"">0</Current><DateUtc dt:dt=""string"">2015-06-29T17:51:30Z</DateUtc></FrequencyChange></FrequencyChanges></Clock>\n"	Arrow Flanker 2014-12382-1	60.019	1.0.0.98	1	-522820274	Professional	2.0.10.353	2.0.10.353	06-29-2015	6/29/2015 5:51:30 PM	13:51:30	2.0.10.248	6	1	1	1	NA	NA	NA	NA	NA	NA	NA	NA	NA	NA	NA	NA	NA	NA	NA	NA	NA	NA	NA	NA	NA	NA	NA	NA	BlockProc	BlockList	NA	10	{RIGHTARROW}	NA	-100	1683	neutral	NA	NA	NA	NA	NA	NA	NA	NA	NA	NA	NA	NA	NA	NA	NA	NA	NA	NA	NA	NA	NA	NA	TrialProc	TrialList	0	20	489082	17	0	16	487299	817	1	{RIGHTARROW}	-999999	0	488616	0	{RIGHTARROW}	446	489062	NA	NA	right	ooroo.bmp	354	0	NA	0	0	0	0	NA	0	0	0	NA	0	0	0	0	NA	0	0	6	1	10
Arrow Flanker 2014	12382	1	"<?xml version=""1.0""?>\n<Clock xmlns:dt=""urn:schemas-microsoft-com:datatypes""><Description dt:dt=""string"">E-Prime Primary Realtime Clock</Description><StartTime><Timestamp dt:dt=""int"">0</Timestamp><DateUtc dt:dt=""string"">2015-06-29T17:51:30Z</DateUtc></StartTime><FrequencyChanges><FrequencyChange><Frequency dt:dt=""r8"">2825703</Frequency><Timestamp dt:dt=""r8"">4745415471515</Timestamp><Current dt:dt=""r8"">0</Current><DateUtc dt:dt=""string"">2015-06-29T17:51:30Z</DateUtc></FrequencyChange></FrequencyChanges></Clock>\n"	Arrow Flanker 2014-12382-1	60.019	1.0.0.98	1	-522820274	Professional	2.0.10.353	2.0.10.353	06-29-2015	6/29/2015 5:51:30 PM	13:51:30	2.0.10.248	6	1	1	1	NA	NA	NA	NA	NA	NA	NA	NA	NA	NA	NA	NA	NA	NA	NA	NA	NA	NA	NA	NA	NA	NA	NA	NA	BlockProc	BlockList	NA	11	{RIGHTARROW}	NA	-100	2045	incongruent	NA	NA	NA	NA	NA	NA	NA	NA	NA	NA	NA	NA	NA	NA	NA	NA	NA	NA	NA	NA	NA	NA	TrialProc	TrialList	0	21	492331	17	0	16	489615	1316	1	{RIGHTARROW}	-999999	16	491448	0	{RIGHTARROW}	862	492310	NA	NA	right	llrll.bmp	354	0	NA	0	0	0	0	NA	0	0	0	NA	0	0	0	0	NA	0	0	4	1	11
Arrow Flanker 2014	12382	1	"<?xml version=""1.0""?>\n<Clock xmlns:dt=""urn:schemas-microsoft-com:datatypes""><Description dt:dt=""string"">E-Prime Primary Realtime Clock</Description><StartTime><Timestamp dt:dt=""int"">0</Timestamp><DateUtc dt:dt=""string"">2015-06-29T17:51:30Z</DateUtc></StartTime><FrequencyChanges><FrequencyChange><Frequency dt:dt=""r8"">2825703</Frequency><Timestamp dt:dt=""r8"">4745415471515</Timestamp><Current dt:dt=""r8"">0</Current><DateUtc dt:dt=""string"">2015-06-29T17:51:30Z</DateUtc></FrequencyChange></FrequencyChanges></Clock>\n"	Arrow Flanker 2014-12382-1	60.019	1.0.0.98	1	-522820274	Professional	2.0.10.353	2.0.10.353	06-29-2015	6/29/2015 5:51:30 PM	13:51:30	2.0.10.248	6	1	1	1	NA	NA	NA	NA	NA	NA	NA	NA	NA	NA	NA	NA	NA	NA	NA	NA	NA	NA	NA	NA	NA	NA	NA	NA	BlockProc	BlockList	NA	12	{LEFTARROW}	NA	-100	1362	congruent	NA	NA	NA	NA	NA	NA	NA	NA	NA	NA	NA	NA	NA	NA	NA	NA	NA	NA	NA	NA	NA	NA	TrialProc	TrialList	0	8	494814	16	0	16	492864	950	1	{LEFTARROW}	-999999	0	494314	0	{LEFTARROW}	492	494806	NA	NA	left	lllll.bmp	354	0	NA	0	0	0	0	NA	0	0	0	NA	0	0	0	0	NA	0	0	1	1	12
Arrow Flanker 2014	12382	1	"<?xml version=""1.0""?>\n<Clock xmlns:dt=""urn:schemas-microsoft-com:datatypes""><Description dt:dt=""string"">E-Prime Primary Realtime Clock</Description><StartTime><Timestamp dt:dt=""int"">0</Timestamp><DateUtc dt:dt=""string"">2015-06-29T17:51:30Z</DateUtc></StartTime><FrequencyChanges><FrequencyChange><Frequency dt:dt=""r8"">2825703</Frequency><Timestamp dt:dt=""r8"">4745415471515</Timestamp><Current dt:dt=""r8"">0</Current><DateUtc dt:dt=""string"">2015-06-29T17:51:30Z</DateUtc></FrequencyChange></FrequencyChanges></Clock>\n"	Arrow Flanker 2014-12382-1	60.019	1.0.0.98	1	-522820274	Professional	2.0.10.353	2.0.10.353	06-29-2015	6/29/2015 5:51:30 PM	13:51:30	2.0.10.248	6	1	1	1	NA	NA	NA	NA	NA	NA	NA	NA	NA	NA	NA	NA	NA	NA	NA	NA	NA	NA	NA	NA	NA	NA	NA	NA	BlockProc	BlockList	NA	13	{RIGHTARROW}	NA	-100	570	incongruent	NA	NA	NA	NA	NA	NA	NA	NA	NA	NA	NA	NA	NA	NA	NA	NA	NA	NA	NA	NA	NA	NA	TrialProc	TrialList	1	12	496946	17	0	17	495347	516	1	{RIGHTARROW}	-999999	0	496363	0	{RIGHTARROW}	570	496933	NA	NA	right	llrll.bmp	354	0	NA	0	0	0	0	NA	0	0	0	NA	0	0	0	0	NA	0	0	4	1	13
Arrow Flanker 2014	12382	1	"<?xml version=""1.0""?>\n<Clock xmlns:dt=""urn:schemas-microsoft-com:datatypes""><Description dt:dt=""string"">E-Prime Primary Realtime Clock</Description><StartTime><Timestamp dt:dt=""int"">0</Timestamp><DateUtc dt:dt=""string"">2015-06-29T17:51:30Z</DateUtc></StartTime><FrequencyChanges><FrequencyChange><Frequency dt:dt=""r8"">2825703</Frequency><Timestamp dt:dt=""r8"">4745415471515</Timestamp><Current dt:dt=""r8"">0</Current><DateUtc dt:dt=""string"">2015-06-29T17:51:30Z</DateUtc></FrequencyChange></FrequencyChanges></Clock>\n"	Arrow Flanker 2014-12382-1	60.019	1.0.0.98	1	-522820274	Professional	2.0.10.353	2.0.10.353	06-29-2015	6/29/2015 5:51:30 PM	13:51:30	2.0.10.248	6	1	1	1	NA	NA	NA	NA	NA	NA	NA	NA	NA	NA	NA	NA	NA	NA	NA	NA	NA	NA	NA	NA	NA	NA	NA	NA	BlockProc	BlockList	NA	14	{LEFTARROW}	NA	-100	2563	neutral	NA	NA	NA	NA	NA	NA	NA	NA	NA	NA	NA	NA	NA	NA	NA	NA	NA	NA	NA	NA	NA	NA	TrialProc	TrialList	0	15	500012	17	0	16	497479	1533	1	{LEFTARROW}	-999999	0	499512	0	{LEFTARROW}	485	499997	NA	NA	left	ooloo.bmp	354	0	NA	0	0	0	0	NA	0	0	0	NA	0	0	0	0	NA	0	0	5	1	14
Arrow Flanker 2014	12382	1	"<?xml version=""1.0""?>\n<Clock xmlns:dt=""urn:schemas-microsoft-com:datatypes""><Description dt:dt=""string"">E-Prime Primary Realtime Clock</Description><StartTime><Timestamp dt:dt=""int"">0</Timestamp><DateUtc dt:dt=""string"">2015-06-29T17:51:30Z</DateUtc></StartTime><FrequencyChanges><FrequencyChange><Frequency dt:dt=""r8"">2825703</Frequency><Timestamp dt:dt=""r8"">4745415471515</Timestamp><Current dt:dt=""r8"">0</Current><DateUtc dt:dt=""string"">2015-06-29T17:51:30Z</DateUtc></FrequencyChange></FrequencyChanges></Clock>\n"	Arrow Flanker 2014-12382-1	60.019	1.0.0.98	1	-522820274	Professional	2.0.10.353	2.0.10.353	06-29-2015	6/29/2015 5:51:30 PM	13:51:30	2.0.10.248	6	1	1	1	NA	NA	NA	NA	NA	NA	NA	NA	NA	NA	NA	NA	NA	NA	NA	NA	NA	NA	NA	NA	NA	NA	NA	NA	BlockProc	BlockList	NA	15	{RIGHTARROW}	NA	-100	2580	congruent	NA	NA	NA	NA	NA	NA	NA	NA	NA	NA	NA	NA	NA	NA	NA	NA	NA	NA	NA	NA	NA	NA	TrialProc	TrialList	1	11	503144	17	0	16	500545	1583	1	{RIGHTARROW}	-999999	0	502628	0	{RIGHTARROW}	505	503133	NA	NA	right	rrrrr.bmp	354	0	NA	0	0	0	0	NA	0	0	0	NA	0	0	0	0	NA	0	0	2	1	15
Arrow Flanker 2014	12382	1	"<?xml version=""1.0""?>\n<Clock xmlns:dt=""urn:schemas-microsoft-com:datatypes""><Description dt:dt=""string"">E-Prime Primary Realtime Clock</Description><StartTime><Timestamp dt:dt=""int"">0</Timestamp><DateUtc dt:dt=""string"">2015-06-29T17:51:30Z</DateUtc></StartTime><FrequencyChanges><FrequencyChange><Frequency dt:dt=""r8"">2825703</Frequency><Timestamp dt:dt=""r8"">4745415471515</Timestamp><Current dt:dt=""r8"">0</Current><DateUtc dt:dt=""string"">2015-06-29T17:51:30Z</DateUtc></FrequencyChange></FrequencyChanges></Clock>\n"	Arrow Flanker 2014-12382-1	60.019	1.0.0.98	1	-522820274	Professional	2.0.10.353	2.0.10.353	06-29-2015	6/29/2015 5:51:30 PM	13:51:30	2.0.10.248	6	1	1	1	NA	NA	NA	NA	NA	NA	NA	NA	NA	NA	NA	NA	NA	NA	NA	NA	NA	NA	NA	NA	NA	NA	NA	NA	BlockProc	BlockList	NA	16	{LEFTARROW}	NA	-100	1018	congruent	NA	NA	NA	NA	NA	NA	NA	NA	NA	NA	NA	NA	NA	NA	NA	NA	NA	NA	NA	NA	NA	NA	TrialProc	TrialList	1	11	505360	17	0	17	503678	516	1	{LEFTARROW}	-999999	0	504694	0	{LEFTARROW}	655	505349	NA	NA	left	lllll.bmp	354	0	NA	0	0	0	0	NA	0	0	0	NA	0	0	0	0	NA	0	0	1	1	16
Arrow Flanker 2014	12382	1	"<?xml version=""1.0""?>\n<Clock xmlns:dt=""urn:schemas-microsoft-com:datatypes""><Description dt:dt=""string"">E-Prime Primary Realtime Clock</Description><StartTime><Timestamp dt:dt=""int"">0</Timestamp><DateUtc dt:dt=""string"">2015-06-29T17:51:30Z</DateUtc></StartTime><FrequencyChanges><FrequencyChange><Frequency dt:dt=""r8"">2825703</Frequency><Timestamp dt:dt=""r8"">4745415471515</Timestamp><Current dt:dt=""r8"">0</Current><DateUtc dt:dt=""string"">2015-06-29T17:51:30Z</DateUtc></FrequencyChange></FrequencyChanges></Clock>\n"	Arrow Flanker 2014-12382-1	60.019	1.0.0.98	1	-522820274	Professional	2.0.10.353	2.0.10.353	06-29-2015	6/29/2015 5:51:30 PM	13:51:30	2.0.10.248	6	1	1	1	NA	NA	NA	NA	NA	NA	NA	NA	NA	NA	NA	NA	NA	NA	NA	NA	NA	NA	NA	NA	NA	NA	NA	NA	BlockProc	BlockList	NA	17	{RIGHTARROW}	NA	-100	2236	congruent	NA	NA	NA	NA	NA	NA	NA	NA	NA	NA	NA	NA	NA	NA	NA	NA	NA	NA	NA	NA	NA	NA	TrialProc	TrialList	1	8	508109	17	0	17	505894	1216	1	{RIGHTARROW}	-999999	0	507610	0	{RIGHTARROW}	491	508101	NA	NA	right	rrrrr.bmp	354	0	NA	0	0	0	0	NA	0	0	0	NA	0	0	0	0	NA	0	0	2	1	17
Arrow Flanker 2014	12382	1	"<?xml version=""1.0""?>\n<Clock xmlns:dt=""urn:schemas-microsoft-com:datatypes""><Description dt:dt=""string"">E-Prime Primary Realtime Clock</Description><StartTime><Timestamp dt:dt=""int"">0</Timestamp><DateUtc dt:dt=""string"">2015-06-29T17:51:30Z</DateUtc></StartTime><FrequencyChanges><FrequencyChange><Frequency dt:dt=""r8"">2825703</Frequency><Timestamp dt:dt=""r8"">4745415471515</Timestamp><Current dt:dt=""r8"">0</Current><DateUtc dt:dt=""string"">2015-06-29T17:51:30Z</DateUtc></FrequencyChange></FrequencyChanges></Clock>\n"	Arrow Flanker 2014-12382-1	60.019	1.0.0.98	1	-522820274	Professional	2.0.10.353	2.0.10.353	06-29-2015	6/29/2015 5:51:30 PM	13:51:30	2.0.10.248	6	1	1	1	NA	NA	NA	NA	NA	NA	NA	NA	NA	NA	NA	NA	NA	NA	NA	NA	NA	NA	NA	NA	NA	NA	NA	NA	BlockProc	BlockList	NA	18	{RIGHTARROW}	NA	-100	1702	congruent	NA	NA	NA	NA	NA	NA	NA	NA	NA	NA	NA	NA	NA	NA	NA	NA	NA	NA	NA	NA	NA	NA	TrialProc	TrialList	0	14	510459	16	0	17	508643	816	1	{RIGHTARROW}	-999999	0	509959	0	{RIGHTARROW}	485	510444	NA	NA	right	rrrrr.bmp	354	0	NA	0	0	0	0	NA	0	0	0	NA	0	0	0	0	NA	0	0	2	1	18
Arrow Flanker 2014	12382	1	"<?xml version=""1.0""?>\n<Clock xmlns:dt=""urn:schemas-microsoft-com:datatypes""><Description dt:dt=""string"">E-Prime Primary Realtime Clock</Description><StartTime><Timestamp dt:dt=""int"">0</Timestamp><DateUtc dt:dt=""string"">2015-06-29T17:51:30Z</DateUtc></StartTime><FrequencyChanges><FrequencyChange><Frequency dt:dt=""r8"">2825703</Frequency><Timestamp dt:dt=""r8"">4745415471515</Timestamp><Current dt:dt=""r8"">0</Current><DateUtc dt:dt=""string"">2015-06-29T17:51:30Z</DateUtc></FrequencyChange></FrequencyChanges></Clock>\n"	Arrow Flanker 2014-12382-1	60.019	1.0.0.98	1	-522820274	Professional	2.0.10.353	2.0.10.353	06-29-2015	6/29/2015 5:51:30 PM	13:51:30	2.0.10.248	6	1	1	1	NA	NA	NA	NA	NA	NA	NA	NA	NA	NA	NA	NA	NA	NA	NA	NA	NA	NA	NA	NA	NA	NA	NA	NA	BlockProc	BlockList	NA	19	{LEFTARROW}	NA	-100	1716	neutral	NA	NA	NA	NA	NA	NA	NA	NA	NA	NA	NA	NA	NA	NA	NA	NA	NA	NA	NA	NA	NA	NA	TrialProc	TrialList	0	18	513358	16	0	17	510992	1466	1	{LEFTARROW}	-999999	0	512958	0	{LEFTARROW}	382	513340	NA	NA	left	ooloo.bmp	354	0	NA	0	0	0	0	NA	0	0	0	NA	0	0	0	0	NA	0	0	5	1	19
Arrow Flanker 2014	12382	1	"<?xml version=""1.0""?>\n<Clock xmlns:dt=""urn:schemas-microsoft-com:datatypes""><Description dt:dt=""string"">E-Prime Primary Realtime Clock</Description><StartTime><Timestamp dt:dt=""int"">0</Timestamp><DateUtc dt:dt=""string"">2015-06-29T17:51:30Z</DateUtc></StartTime><FrequencyChanges><FrequencyChange><Frequency dt:dt=""r8"">2825703</Frequency><Timestamp dt:dt=""r8"">4745415471515</Timestamp><Current dt:dt=""r8"">0</Current><DateUtc dt:dt=""string"">2015-06-29T17:51:30Z</DateUtc></FrequencyChange></FrequencyChanges></Clock>\n"	Arrow Flanker 2014-12382-1	60.019	1.0.0.98	1	-522820274	Professional	2.0.10.353	2.0.10.353	06-29-2015	6/29/2015 5:51:30 PM	13:51:30	2.0.10.248	6	1	1	1	NA	NA	NA	NA	NA	NA	NA	NA	NA	NA	NA	NA	NA	NA	NA	NA	NA	NA	NA	NA	NA	NA	NA	NA	BlockProc	BlockList	NA	20	{RIGHTARROW}	NA	-100	1151	congruent	NA	NA	NA	NA	NA	NA	NA	NA	NA	NA	NA	NA	NA	NA	NA	NA	NA	NA	NA	NA	NA	NA	TrialProc	TrialList	0	15	515907	17	0	17	513891	1100	1	{RIGHTARROW}	-999999	16	515507	0	{RIGHTARROW}	385	515892	NA	NA	right	rrrrr.bmp	354	0	NA	0	0	0	0	NA	0	0	0	NA	0	0	0	0	NA	0	0	2	1	20
Arrow Flanker 2014	12382	1	"<?xml version=""1.0""?>\n<Clock xmlns:dt=""urn:schemas-microsoft-com:datatypes""><Description dt:dt=""string"">E-Prime Primary Realtime Clock</Description><StartTime><Timestamp dt:dt=""int"">0</Timestamp><DateUtc dt:dt=""string"">2015-06-29T17:51:30Z</DateUtc></StartTime><FrequencyChanges><FrequencyChange><Frequency dt:dt=""r8"">2825703</Frequency><Timestamp dt:dt=""r8"">4745415471515</Timestamp><Current dt:dt=""r8"">0</Current><DateUtc dt:dt=""string"">2015-06-29T17:51:30Z</DateUtc></FrequencyChange></FrequencyChanges></Clock>\n"	Arrow Flanker 2014-12382-1	60.019	1.0.0.98	1	-522820274	Professional	2.0.10.353	2.0.10.353	06-29-2015	6/29/2015 5:51:30 PM	13:51:30	2.0.10.248	6	1	1	1	NA	NA	NA	NA	NA	NA	NA	NA	NA	NA	NA	NA	NA	NA	NA	NA	NA	NA	NA	NA	NA	NA	NA	NA	BlockProc	BlockList	NA	21	{LEFTARROW}	NA	-100	967	incongruent	NA	NA	NA	NA	NA	NA	NA	NA	NA	NA	NA	NA	NA	NA	NA	NA	NA	NA	NA	NA	NA	NA	TrialProc	TrialList	1	10	518206	17	0	16	516440	700	1	{LEFTARROW}	-999999	0	517640	0	{LEFTARROW}	556	518196	NA	NA	left	rrlrr.bmp	354	0	NA	0	0	0	0	NA	0	0	0	NA	0	0	0	0	NA	0	0	3	1	21
Arrow Flanker 2014	12382	1	"<?xml version=""1.0""?>\n<Clock xmlns:dt=""urn:schemas-microsoft-com:datatypes""><Description dt:dt=""string"">E-Prime Primary Realtime Clock</Description><StartTime><Timestamp dt:dt=""int"">0</Timestamp><DateUtc dt:dt=""string"">2015-06-29T17:51:30Z</DateUtc></StartTime><FrequencyChanges><FrequencyChange><Frequency dt:dt=""r8"">2825703</Frequency><Timestamp dt:dt=""r8"">4745415471515</Timestamp><Current dt:dt=""r8"">0</Current><DateUtc dt:dt=""string"">2015-06-29T17:51:30Z</DateUtc></FrequencyChange></FrequencyChanges></Clock>\n"	Arrow Flanker 2014-12382-1	60.019	1.0.0.98	1	-522820274	Professional	2.0.10.353	2.0.10.353	06-29-2015	6/29/2015 5:51:30 PM	13:51:30	2.0.10.248	6	1	1	1	NA	NA	NA	NA	NA	NA	NA	NA	NA	NA	NA	NA	NA	NA	NA	NA	NA	NA	NA	NA	NA	NA	NA	NA	BlockProc	BlockList	NA	22	{RIGHTARROW}	NA	-100	1699	neutral	NA	NA	NA	NA	NA	NA	NA	NA	NA	NA	NA	NA	NA	NA	NA	NA	NA	NA	NA	NA	2	2	TrialProc	TrialList	0	18	520206	16	0	16	518739	550	1	{RIGHTARROW}	-999999	0	519789	0	{RIGHTARROW}	399	520188	NA	NA	right	ooroo.bmp	354	0	NA	-999999	17	520739	0	1	18452	539191	0	NA	-999999	25	539216	0	1	3983	543199	6	1	22
Arrow Flanker 2014	12382	1	"<?xml version=""1.0""?>\n<Clock xmlns:dt=""urn:schemas-microsoft-com:datatypes""><Description dt:dt=""string"">E-Prime Primary Realtime Clock</Description><StartTime><Timestamp dt:dt=""int"">0</Timestamp><DateUtc dt:dt=""string"">2015-06-29T17:51:30Z</DateUtc></StartTime><FrequencyChanges><FrequencyChange><Frequency dt:dt=""r8"">2825703</Frequency><Timestamp dt:dt=""r8"">4745415471515</Timestamp><Current dt:dt=""r8"">0</Current><DateUtc dt:dt=""string"">2015-06-29T17:51:30Z</DateUtc></FrequencyChange></FrequencyChanges></Clock>\n"	Arrow Flanker 2014-12382-1	60.019	1.0.0.98	1	-522820274	Professional	2.0.10.353	2.0.10.353	06-29-2015	6/29/2015 5:51:30 PM	13:51:30	2.0.10.248	6	1	1	1	NA	NA	NA	NA	NA	NA	NA	NA	NA	NA	NA	NA	NA	NA	NA	NA	NA	NA	NA	NA	NA	NA	NA	NA	BlockProc	BlockList	NA	23	{LEFTARROW}	NA	-100	1949	neutral	NA	NA	NA	NA	NA	NA	NA	NA	NA	NA	NA	NA	NA	NA	NA	NA	NA	NA	NA	NA	NA	NA	TrialProc	TrialList	0	19	548397	16	0	27	545981	1450	1	{LEFTARROW}	-999999	0	547930	0	{LEFTARROW}	448	548378	NA	NA	left	ooloo.bmp	354	0	NA	0	0	0	0	NA	0	0	0	NA	0	0	0	0	NA	0	0	5	1	23
Arrow Flanker 2014	12382	1	"<?xml version=""1.0""?>\n<Clock xmlns:dt=""urn:schemas-microsoft-com:datatypes""><Description dt:dt=""string"">E-Prime Primary Realtime Clock</Description><StartTime><Timestamp dt:dt=""int"">0</Timestamp><DateUtc dt:dt=""string"">2015-06-29T17:51:30Z</DateUtc></StartTime><FrequencyChanges><FrequencyChange><Frequency dt:dt=""r8"">2825703</Frequency><Timestamp dt:dt=""r8"">4745415471515</Timestamp><Current dt:dt=""r8"">0</Current><DateUtc dt:dt=""string"">2015-06-29T17:51:30Z</DateUtc></FrequencyChange></FrequencyChanges></Clock>\n"	Arrow Flanker 2014-12382-1	60.019	1.0.0.98	1	-522820274	Professional	2.0.10.353	2.0.10.353	06-29-2015	6/29/2015 5:51:30 PM	13:51:30	2.0.10.248	6	1	1	1	NA	NA	NA	NA	NA	NA	NA	NA	NA	NA	NA	NA	NA	NA	NA	NA	NA	NA	NA	NA	NA	NA	NA	NA	BlockProc	BlockList	NA	24	{LEFTARROW}	NA	-100	1808	incongruent	NA	NA	NA	NA	NA	NA	NA	NA	NA	NA	NA	NA	NA	NA	NA	NA	NA	NA	NA	NA	NA	NA	TrialProc	TrialList	0	13	551263	16	0	17	548930	1017	1	{LEFTARROW}	-999999	0	550446	0	{LEFTARROW}	803	551249	NA	NA	left	rrlrr.bmp	354	0	NA	0	0	0	0	NA	0	0	0	NA	0	0	0	0	NA	0	0	3	1	24
Arrow Flanker 2014	12382	1	"<?xml version=""1.0""?>\n<Clock xmlns:dt=""urn:schemas-microsoft-com:datatypes""><Description dt:dt=""string"">E-Prime Primary Realtime Clock</Description><StartTime><Timestamp dt:dt=""int"">0</Timestamp><DateUtc dt:dt=""string"">2015-06-29T17:51:30Z</DateUtc></StartTime><FrequencyChanges><FrequencyChange><Frequency dt:dt=""r8"">2825703</Frequency><Timestamp dt:dt=""r8"">4745415471515</Timestamp><Current dt:dt=""r8"">0</Current><DateUtc dt:dt=""string"">2015-06-29T17:51:30Z</DateUtc></FrequencyChange></FrequencyChanges></Clock>\n"	Arrow Flanker 2014-12382-1	60.019	1.0.0.98	1	-522820274	Professional	2.0.10.353	2.0.10.353	06-29-2015	6/29/2015 5:51:30 PM	13:51:30	2.0.10.248	6	1	1	1	NA	NA	NA	NA	NA	NA	NA	NA	NA	NA	NA	NA	NA	NA	NA	NA	NA	NA	NA	NA	NA	NA	NA	NA	BlockProc	BlockList	NA	25	{LEFTARROW}	NA	-100	1247	congruent	NA	NA	NA	NA	NA	NA	NA	NA	NA	NA	NA	NA	NA	NA	NA	NA	NA	NA	NA	NA	NA	NA	TrialProc	TrialList	0	8	553529	16	0	17	551796	633	1	{LEFTARROW}	-999999	0	552929	0	{LEFTARROW}	592	553521	NA	NA	left	lllll.bmp	354	0	NA	0	0	0	0	NA	0	0	0	NA	0	0	0	0	NA	0	0	1	1	25
Arrow Flanker 2014	12382	1	"<?xml version=""1.0""?>\n<Clock xmlns:dt=""urn:schemas-microsoft-com:datatypes""><Description dt:dt=""string"">E-Prime Primary Realtime Clock</Description><StartTime><Timestamp dt:dt=""int"">0</Timestamp><DateUtc dt:dt=""string"">2015-06-29T17:51:30Z</DateUtc></StartTime><FrequencyChanges><FrequencyChange><Frequency dt:dt=""r8"">2825703</Frequency><Timestamp dt:dt=""r8"">4745415471515</Timestamp><Current dt:dt=""r8"">0</Current><DateUtc dt:dt=""string"">2015-06-29T17:51:30Z</DateUtc></FrequencyChange></FrequencyChanges></Clock>\n"	Arrow Flanker 2014-12382-1	60.019	1.0.0.98	1	-522820274	Professional	2.0.10.353	2.0.10.353	06-29-2015	6/29/2015 5:51:30 PM	13:51:30	2.0.10.248	6	1	1	1	NA	NA	NA	NA	NA	NA	NA	NA	NA	NA	NA	NA	NA	NA	NA	NA	NA	NA	NA	NA	NA	NA	NA	NA	BlockProc	BlockList	NA	26	{LEFTARROW}	NA	-100	1464	neutral	NA	NA	NA	NA	NA	NA	NA	NA	NA	NA	NA	NA	NA	NA	NA	NA	NA	NA	NA	NA	NA	NA	TrialProc	TrialList	1	17	556194	17	0	17	554062	0	1	{LEFTARROW}	-999999	0	555678	0	{LEFTARROW}	499	556177	NA	NA	left	ooloo.bmp	354	0	NA	0	0	0	0	NA	0	0	0	NA	0	0	0	0	NA	0	0	5	1	26
Arrow Flanker 2014	12382	1	"<?xml version=""1.0""?>\n<Clock xmlns:dt=""urn:schemas-microsoft-com:datatypes""><Description dt:dt=""string"">E-Prime Primary Realtime Clock</Description><StartTime><Timestamp dt:dt=""int"">0</Timestamp><DateUtc dt:dt=""string"">2015-06-29T17:51:30Z</DateUtc></StartTime><FrequencyChanges><FrequencyChange><Frequency dt:dt=""r8"">2825703</Frequency><Timestamp dt:dt=""r8"">4745415471515</Timestamp><Current dt:dt=""r8"">0</Current><DateUtc dt:dt=""string"">2015-06-29T17:51:30Z</DateUtc></FrequencyChange></FrequencyChanges></Clock>\n"	Arrow Flanker 2014-12382-1	60.019	1.0.0.98	1	-522820274	Professional	2.0.10.353	2.0.10.353	06-29-2015	6/29/2015 5:51:30 PM	13:51:30	2.0.10.248	6	1	1	1	NA	NA	NA	NA	NA	NA	NA	NA	NA	NA	NA	NA	NA	NA	NA	NA	NA	NA	NA	NA	NA	NA	NA	NA	BlockProc	BlockList	NA	27	{RIGHTARROW}	NA	-100	1455	incongruent	NA	NA	NA	NA	NA	NA	NA	NA	NA	NA	NA	NA	NA	NA	NA	NA	NA	NA	NA	NA	NA	NA	TrialProc	TrialList	0	13	558494	16	0	17	556728	0	1	{RIGHTARROW}	-999999	0	557844	0	{RIGHTARROW}	637	558481	NA	NA	right	llrll.bmp	354	0	NA	0	0	0	0	NA	0	0	0	NA	0	0	0	0	NA	0	0	4	1	27
Arrow Flanker 2014	12382	1	"<?xml version=""1.0""?>\n<Clock xmlns:dt=""urn:schemas-microsoft-com:datatypes""><Description dt:dt=""string"">E-Prime Primary Realtime Clock</Description><StartTime><Timestamp dt:dt=""int"">0</Timestamp><DateUtc dt:dt=""string"">2015-06-29T17:51:30Z</DateUtc></StartTime><FrequencyChanges><FrequencyChange><Frequency dt:dt=""r8"">2825703</Frequency><Timestamp dt:dt=""r8"">4745415471515</Timestamp><Current dt:dt=""r8"">0</Current><DateUtc dt:dt=""string"">2015-06-29T17:51:30Z</DateUtc></FrequencyChange></FrequencyChanges></Clock>\n"	Arrow Flanker 2014-12382-1	60.019	1.0.0.98	1	-522820274	Professional	2.0.10.353	2.0.10.353	06-29-2015	6/29/2015 5:51:30 PM	13:51:30	2.0.10.248	6	1	1	1	NA	NA	NA	NA	NA	NA	NA	NA	NA	NA	NA	NA	NA	NA	NA	NA	NA	NA	NA	NA	NA	NA	NA	NA	BlockProc	BlockList	NA	28	{RIGHTARROW}	NA	-100	949	congruent	NA	NA	NA	NA	NA	NA	NA	NA	NA	NA	NA	NA	NA	NA	NA	NA	NA	NA	NA	NA	NA	NA	TrialProc	TrialList	0	14	560743	17	0	17	559027	717	1	{RIGHTARROW}	-999999	0	560243	0	{RIGHTARROW}	486	560729	NA	NA	right	rrrrr.bmp	354	0	NA	0	0	0	0	NA	0	0	0	NA	0	0	0	0	NA	0	0	2	1	28
Arrow Flanker 2014	12382	1	"<?xml version=""1.0""?>\n<Clock xmlns:dt=""urn:schemas-microsoft-com:datatypes""><Description dt:dt=""string"">E-Prime Primary Realtime Clock</Description><StartTime><Timestamp dt:dt=""int"">0</Timestamp><DateUtc dt:dt=""string"">2015-06-29T17:51:30Z</DateUtc></StartTime><FrequencyChanges><FrequencyChange><Frequency dt:dt=""r8"">2825703</Frequency><Timestamp dt:dt=""r8"">4745415471515</Timestamp><Current dt:dt=""r8"">0</Current><DateUtc dt:dt=""string"">2015-06-29T17:51:30Z</DateUtc></FrequencyChange></FrequencyChanges></Clock>\n"	Arrow Flanker 2014-12382-1	60.019	1.0.0.98	1	-522820274	Professional	2.0.10.353	2.0.10.353	06-29-2015	6/29/2015 5:51:30 PM	13:51:30	2.0.10.248	6	1	1	1	NA	NA	NA	NA	NA	NA	NA	NA	NA	NA	NA	NA	NA	NA	NA	NA	NA	NA	NA	NA	NA	NA	NA	NA	BlockProc	BlockList	NA	29	{RIGHTARROW}	NA	-100	1737	neutral	NA	NA	NA	NA	NA	NA	NA	NA	NA	NA	NA	NA	NA	NA	NA	NA	NA	NA	NA	NA	NA	NA	TrialProc	TrialList	1	20	563525	17	0	16	561276	0	1	{RIGHTARROW}	-999999	0	563092	0	{RIGHTARROW}	412	563504	NA	NA	right	ooroo.bmp	354	0	NA	0	0	0	0	NA	0	0	0	NA	0	0	0	0	NA	0	0	6	1	29
Arrow Flanker 2014	12382	1	"<?xml version=""1.0""?>\n<Clock xmlns:dt=""urn:schemas-microsoft-com:datatypes""><Description dt:dt=""string"">E-Prime Primary Realtime Clock</Description><StartTime><Timestamp dt:dt=""int"">0</Timestamp><DateUtc dt:dt=""string"">2015-06-29T17:51:30Z</DateUtc></StartTime><FrequencyChanges><FrequencyChange><Frequency dt:dt=""r8"">2825703</Frequency><Timestamp dt:dt=""r8"">4745415471515</Timestamp><Current dt:dt=""r8"">0</Current><DateUtc dt:dt=""string"">2015-06-29T17:51:30Z</DateUtc></FrequencyChange></FrequencyChanges></Clock>\n"	Arrow Flanker 2014-12382-1	60.019	1.0.0.98	1	-522820274	Professional	2.0.10.353	2.0.10.353	06-29-2015	6/29/2015 5:51:30 PM	13:51:30	2.0.10.248	6	1	1	1	NA	NA	NA	NA	NA	NA	NA	NA	NA	NA	NA	NA	NA	NA	NA	NA	NA	NA	NA	NA	NA	NA	NA	NA	BlockProc	BlockList	NA	30	{LEFTARROW}	NA	-100	1848	incongruent	NA	NA	NA	NA	NA	NA	NA	NA	NA	NA	NA	NA	NA	NA	NA	NA	NA	NA	NA	NA	NA	NA	TrialProc	TrialList	0	9	566225	16	0	17	564059	0	1	{LEFTARROW}	-999999	0	565608	0	{LEFTARROW}	608	566216	NA	NA	left	rrlrr.bmp	354	0	NA	0	0	0	0	NA	0	0	0	NA	0	0	0	0	NA	0	0	3	1	30
Arrow Flanker 2014	12382	1	"<?xml version=""1.0""?>\n<Clock xmlns:dt=""urn:schemas-microsoft-com:datatypes""><Description dt:dt=""string"">E-Prime Primary Realtime Clock</Description><StartTime><Timestamp dt:dt=""int"">0</Timestamp><DateUtc dt:dt=""string"">2015-06-29T17:51:30Z</DateUtc></StartTime><FrequencyChanges><FrequencyChange><Frequency dt:dt=""r8"">2825703</Frequency><Timestamp dt:dt=""r8"">4745415471515</Timestamp><Current dt:dt=""r8"">0</Current><DateUtc dt:dt=""string"">2015-06-29T17:51:30Z</DateUtc></FrequencyChange></FrequencyChanges></Clock>\n"	Arrow Flanker 2014-12382-1	60.019	1.0.0.98	1	-522820274	Professional	2.0.10.353	2.0.10.353	06-29-2015	6/29/2015 5:51:30 PM	13:51:30	2.0.10.248	6	1	1	1	NA	NA	NA	NA	NA	NA	NA	NA	NA	NA	NA	NA	NA	NA	NA	NA	NA	NA	NA	NA	NA	NA	NA	NA	BlockProc	BlockList	NA	31	{RIGHTARROW}	NA	-100	2555	congruent	NA	NA	NA	NA	NA	NA	NA	NA	NA	NA	NA	NA	NA	NA	NA	NA	NA	NA	NA	NA	NA	NA	TrialProc	TrialList	0	13	569157	17	0	17	566758	0	1	{RIGHTARROW}	-999999	0	568674	0	{RIGHTARROW}	470	569144	NA	NA	right	rrrrr.bmp	354	0	NA	0	0	0	0	NA	0	0	0	NA	0	0	0	0	NA	0	0	2	1	31
Arrow Flanker 2014	12382	1	"<?xml version=""1.0""?>\n<Clock xmlns:dt=""urn:schemas-microsoft-com:datatypes""><Description dt:dt=""string"">E-Prime Primary Realtime Clock</Description><StartTime><Timestamp dt:dt=""int"">0</Timestamp><DateUtc dt:dt=""string"">2015-06-29T17:51:30Z</DateUtc></StartTime><FrequencyChanges><FrequencyChange><Frequency dt:dt=""r8"">2825703</Frequency><Timestamp dt:dt=""r8"">4745415471515</Timestamp><Current dt:dt=""r8"">0</Current><DateUtc dt:dt=""string"">2015-06-29T17:51:30Z</DateUtc></FrequencyChange></FrequencyChanges></Clock>\n"	Arrow Flanker 2014-12382-1	60.019	1.0.0.98	1	-522820274	Professional	2.0.10.353	2.0.10.353	06-29-2015	6/29/2015 5:51:30 PM	13:51:30	2.0.10.248	6	1	1	1	NA	NA	NA	NA	NA	NA	NA	NA	NA	NA	NA	NA	NA	NA	NA	NA	NA	NA	NA	NA	NA	NA	NA	NA	BlockProc	BlockList	NA	32	{LEFTARROW}	NA	-100	953	incongruent	NA	NA	NA	NA	NA	NA	NA	NA	NA	NA	NA	NA	NA	NA	NA	NA	NA	NA	NA	NA	NA	NA	TrialProc	TrialList	0	16	571440	16	0	16	569690	0	1	{LEFTARROW}	-999999	16	570873	0	{LEFTARROW}	551	571424	NA	NA	left	rrlrr.bmp	354	0	NA	0	0	0	0	NA	0	0	0	NA	0	0	0	0	NA	0	0	3	1	32
Arrow Flanker 2014	12382	1	"<?xml version=""1.0""?>\n<Clock xmlns:dt=""urn:schemas-microsoft-com:datatypes""><Description dt:dt=""string"">E-Prime Primary Realtime Clock</Description><StartTime><Timestamp dt:dt=""int"">0</Timestamp><DateUtc dt:dt=""string"">2015-06-29T17:51:30Z</DateUtc></StartTime><FrequencyChanges><FrequencyChange><Frequency dt:dt=""r8"">2825703</Frequency><Timestamp dt:dt=""r8"">4745415471515</Timestamp><Current dt:dt=""r8"">0</Current><DateUtc dt:dt=""string"">2015-06-29T17:51:30Z</DateUtc></FrequencyChange></FrequencyChanges></Clock>\n"	Arrow Flanker 2014-12382-1	60.019	1.0.0.98	1	-522820274	Professional	2.0.10.353	2.0.10.353	06-29-2015	6/29/2015 5:51:30 PM	13:51:30	2.0.10.248	6	1	1	1	NA	NA	NA	NA	NA	NA	NA	NA	NA	NA	NA	NA	NA	NA	NA	NA	NA	NA	NA	NA	NA	NA	NA	NA	BlockProc	BlockList	NA	33	{RIGHTARROW}	NA	-100	1124	neutral	NA	NA	NA	NA	NA	NA	NA	NA	NA	NA	NA	NA	NA	NA	NA	NA	NA	NA	NA	NA	NA	NA	TrialProc	TrialList	0	11	573939	17	0	17	571973	0	1	{RIGHTARROW}	-999999	0	573489	0	{RIGHTARROW}	439	573928	NA	NA	right	ooroo.bmp	354	0	NA	0	0	0	0	NA	0	0	0	NA	0	0	0	0	NA	0	0	6	1	33
Arrow Flanker 2014	12382	1	"<?xml version=""1.0""?>\n<Clock xmlns:dt=""urn:schemas-microsoft-com:datatypes""><Description dt:dt=""string"">E-Prime Primary Realtime Clock</Description><StartTime><Timestamp dt:dt=""int"">0</Timestamp><DateUtc dt:dt=""string"">2015-06-29T17:51:30Z</DateUtc></StartTime><FrequencyChanges><FrequencyChange><Frequency dt:dt=""r8"">2825703</Frequency><Timestamp dt:dt=""r8"">4745415471515</Timestamp><Current dt:dt=""r8"">0</Current><DateUtc dt:dt=""string"">2015-06-29T17:51:30Z</DateUtc></FrequencyChange></FrequencyChanges></Clock>\n"	Arrow Flanker 2014-12382-1	60.019	1.0.0.98	1	-522820274	Professional	2.0.10.353	2.0.10.353	06-29-2015	6/29/2015 5:51:30 PM	13:51:30	2.0.10.248	6	1	1	1	NA	NA	NA	NA	NA	NA	NA	NA	NA	NA	NA	NA	NA	NA	NA	NA	NA	NA	NA	NA	NA	NA	NA	NA	BlockProc	BlockList	NA	34	{RIGHTARROW}	NA	-100	1714	incongruent	NA	NA	NA	NA	NA	NA	NA	NA	NA	NA	NA	NA	NA	NA	NA	NA	NA	NA	NA	NA	NA	NA	TrialProc	TrialList	0	11	576555	16	0	16	574472	0	1	{RIGHTARROW}	-999999	0	575805	0	{RIGHTARROW}	739	576544	NA	NA	right	llrll.bmp	354	0	NA	0	0	0	0	NA	0	0	0	NA	0	0	0	0	NA	0	0	4	1	34
Arrow Flanker 2014	12382	1	"<?xml version=""1.0""?>\n<Clock xmlns:dt=""urn:schemas-microsoft-com:datatypes""><Description dt:dt=""string"">E-Prime Primary Realtime Clock</Description><StartTime><Timestamp dt:dt=""int"">0</Timestamp><DateUtc dt:dt=""string"">2015-06-29T17:51:30Z</DateUtc></StartTime><FrequencyChanges><FrequencyChange><Frequency dt:dt=""r8"">2825703</Frequency><Timestamp dt:dt=""r8"">4745415471515</Timestamp><Current dt:dt=""r8"">0</Current><DateUtc dt:dt=""string"">2015-06-29T17:51:30Z</DateUtc></FrequencyChange></FrequencyChanges></Clock>\n"	Arrow Flanker 2014-12382-1	60.019	1.0.0.98	1	-522820274	Professional	2.0.10.353	2.0.10.353	06-29-2015	6/29/2015 5:51:30 PM	13:51:30	2.0.10.248	6	1	1	1	NA	NA	NA	NA	NA	NA	NA	NA	NA	NA	NA	NA	NA	NA	NA	NA	NA	NA	NA	NA	NA	NA	NA	NA	BlockProc	BlockList	NA	35	{RIGHTARROW}	NA	-100	1104	congruent	NA	NA	NA	NA	NA	NA	NA	NA	NA	NA	NA	NA	NA	NA	NA	NA	NA	NA	NA	NA	NA	NA	TrialProc	TrialList	1	8	579287	17	0	17	577088	0	1	{RIGHTARROW}	-999999	0	578704	0	{RIGHTARROW}	575	579279	NA	NA	right	rrrrr.bmp	354	0	NA	0	0	0	0	NA	0	0	0	NA	0	0	0	0	NA	0	0	2	1	35
Arrow Flanker 2014	12382	1	"<?xml version=""1.0""?>\n<Clock xmlns:dt=""urn:schemas-microsoft-com:datatypes""><Description dt:dt=""string"">E-Prime Primary Realtime Clock</Description><StartTime><Timestamp dt:dt=""int"">0</Timestamp><DateUtc dt:dt=""string"">2015-06-29T17:51:30Z</DateUtc></StartTime><FrequencyChanges><FrequencyChange><Frequency dt:dt=""r8"">2825703</Frequency><Timestamp dt:dt=""r8"">4745415471515</Timestamp><Current dt:dt=""r8"">0</Current><DateUtc dt:dt=""string"">2015-06-29T17:51:30Z</DateUtc></FrequencyChange></FrequencyChanges></Clock>\n"	Arrow Flanker 2014-12382-1	60.019	1.0.0.98	1	-522820274	Professional	2.0.10.353	2.0.10.353	06-29-2015	6/29/2015 5:51:30 PM	13:51:30	2.0.10.248	6	1	1	1	NA	NA	NA	NA	NA	NA	NA	NA	NA	NA	NA	NA	NA	NA	NA	NA	NA	NA	NA	NA	NA	NA	NA	NA	BlockProc	BlockList	NA	36	{LEFTARROW}	NA	-100	1624	incongruent	NA	NA	NA	NA	NA	NA	NA	NA	NA	NA	NA	NA	NA	NA	NA	NA	NA	NA	NA	NA	NA	NA	TrialProc	TrialList	1	8	581503	17	0	33	579837	0	1	{LEFTARROW}	-999999	0	580803	0	{LEFTARROW}	692	581495	NA	NA	left	rrlrr.bmp	354	0	NA	0	0	0	0	NA	0	0	0	NA	0	0	0	0	NA	0	0	3	1	36
Arrow Flanker 2014	12382	1	"<?xml version=""1.0""?>\n<Clock xmlns:dt=""urn:schemas-microsoft-com:datatypes""><Description dt:dt=""string"">E-Prime Primary Realtime Clock</Description><StartTime><Timestamp dt:dt=""int"">0</Timestamp><DateUtc dt:dt=""string"">2015-06-29T17:51:30Z</DateUtc></StartTime><FrequencyChanges><FrequencyChange><Frequency dt:dt=""r8"">2825703</Frequency><Timestamp dt:dt=""r8"">4745415471515</Timestamp><Current dt:dt=""r8"">0</Current><DateUtc dt:dt=""string"">2015-06-29T17:51:30Z</DateUtc></FrequencyChange></FrequencyChanges></Clock>\n"	Arrow Flanker 2014-12382-1	60.019	1.0.0.98	1	-522820274	Professional	2.0.10.353	2.0.10.353	06-29-2015	6/29/2015 5:51:30 PM	13:51:30	2.0.10.248	6	1	1	1	NA	NA	NA	NA	NA	NA	NA	NA	NA	NA	NA	NA	NA	NA	NA	NA	NA	NA	NA	NA	NA	NA	NA	NA	BlockProc	BlockList	NA	37	{LEFTARROW}	NA	-100	1137	neutral	NA	NA	NA	NA	NA	NA	NA	NA	NA	NA	NA	NA	NA	NA	NA	NA	NA	NA	NA	NA	1	NA	TrialProc	TrialList	0	21	583836	17	0	33	582053	0	1	{LEFTARROW}	-999999	0	583286	0	{LEFTARROW}	529	583815	NA	NA	left	ooloo.bmp	354	0	NA	-999999	16	584369	0	1	3938	588307	0	NA	0	0	0	0	NA	0	0	5	1	37
Arrow Flanker 2014	12382	1	"<?xml version=""1.0""?>\n<Clock xmlns:dt=""urn:schemas-microsoft-com:datatypes""><Description dt:dt=""string"">E-Prime Primary Realtime Clock</Description><StartTime><Timestamp dt:dt=""int"">0</Timestamp><DateUtc dt:dt=""string"">2015-06-29T17:51:30Z</DateUtc></StartTime><FrequencyChanges><FrequencyChange><Frequency dt:dt=""r8"">2825703</Frequency><Timestamp dt:dt=""r8"">4745415471515</Timestamp><Current dt:dt=""r8"">0</Current><DateUtc dt:dt=""string"">2015-06-29T17:51:30Z</DateUtc></FrequencyChange></FrequencyChanges></Clock>\n"	Arrow Flanker 2014-12382-1	60.019	1.0.0.98	1	-522820274	Professional	2.0.10.353	2.0.10.353	06-29-2015	6/29/2015 5:51:30 PM	13:51:30	2.0.10.248	6	1	1	1	NA	NA	NA	NA	NA	NA	NA	NA	NA	NA	NA	NA	NA	NA	NA	NA	NA	NA	NA	NA	NA	NA	NA	NA	BlockProc	BlockList	NA	38	{RIGHTARROW}	NA	-100	2430	neutral	NA	NA	NA	NA	NA	NA	NA	NA	NA	NA	NA	NA	NA	NA	NA	NA	NA	NA	NA	NA	NA	NA	TrialProc	TrialList	1	22	592916	17	0	17	590400	0	1	{RIGHTARROW}	-999999	0	592200	0	{RIGHTARROW}	694	592894	NA	NA	right	ooroo.bmp	354	0	NA	0	0	0	0	NA	0	0	0	NA	0	0	0	0	NA	0	0	6	1	38
Arrow Flanker 2014	12382	1	"<?xml version=""1.0""?>\n<Clock xmlns:dt=""urn:schemas-microsoft-com:datatypes""><Description dt:dt=""string"">E-Prime Primary Realtime Clock</Description><StartTime><Timestamp dt:dt=""int"">0</Timestamp><DateUtc dt:dt=""string"">2015-06-29T17:51:30Z</DateUtc></StartTime><FrequencyChanges><FrequencyChange><Frequency dt:dt=""r8"">2825703</Frequency><Timestamp dt:dt=""r8"">4745415471515</Timestamp><Current dt:dt=""r8"">0</Current><DateUtc dt:dt=""string"">2015-06-29T17:51:30Z</DateUtc></FrequencyChange></FrequencyChanges></Clock>\n"	Arrow Flanker 2014-12382-1	60.019	1.0.0.98	1	-522820274	Professional	2.0.10.353	2.0.10.353	06-29-2015	6/29/2015 5:51:30 PM	13:51:30	2.0.10.248	6	1	1	1	NA	NA	NA	NA	NA	NA	NA	NA	NA	NA	NA	NA	NA	NA	NA	NA	NA	NA	NA	NA	NA	NA	NA	NA	BlockProc	BlockList	NA	39	{RIGHTARROW}	NA	-100	1576	neutral	NA	NA	NA	NA	NA	NA	NA	NA	NA	NA	NA	NA	NA	NA	NA	NA	NA	NA	NA	NA	NA	NA	TrialProc	TrialList	1	5	595899	16	0	16	593449	0	1	{RIGHTARROW}	-999999	0	595432	0	{RIGHTARROW}	462	595894	NA	NA	right	ooroo.bmp	354	0	NA	0	0	0	0	NA	0	0	0	NA	0	0	0	0	NA	0	0	6	1	39
Arrow Flanker 2014	12382	1	"<?xml version=""1.0""?>\n<Clock xmlns:dt=""urn:schemas-microsoft-com:datatypes""><Description dt:dt=""string"">E-Prime Primary Realtime Clock</Description><StartTime><Timestamp dt:dt=""int"">0</Timestamp><DateUtc dt:dt=""string"">2015-06-29T17:51:30Z</DateUtc></StartTime><FrequencyChanges><FrequencyChange><Frequency dt:dt=""r8"">2825703</Frequency><Timestamp dt:dt=""r8"">4745415471515</Timestamp><Current dt:dt=""r8"">0</Current><DateUtc dt:dt=""string"">2015-06-29T17:51:30Z</DateUtc></FrequencyChange></FrequencyChanges></Clock>\n"	Arrow Flanker 2014-12382-1	60.019	1.0.0.98	1	-522820274	Professional	2.0.10.353	2.0.10.353	06-29-2015	6/29/2015 5:51:30 PM	13:51:30	2.0.10.248	6	1	1	1	NA	NA	NA	NA	NA	NA	NA	NA	NA	NA	NA	NA	NA	NA	NA	NA	NA	NA	NA	NA	NA	NA	NA	NA	BlockProc	BlockList	NA	40	{LEFTARROW}	NA	-100	2462	congruent	NA	NA	NA	NA	NA	NA	NA	NA	NA	NA	NA	NA	NA	NA	NA	NA	NA	NA	NA	NA	NA	NA	TrialProc	TrialList	1	8	599014	17	0	17	596432	0	1	{LEFTARROW}	-999999	0	598481	0	{LEFTARROW}	525	599006	NA	NA	left	lllll.bmp	354	0	NA	0	0	0	0	NA	0	0	0	NA	0	0	0	0	NA	0	0	1	1	40
Arrow Flanker 2014	12382	1	"<?xml version=""1.0""?>\n<Clock xmlns:dt=""urn:schemas-microsoft-com:datatypes""><Description dt:dt=""string"">E-Prime Primary Realtime Clock</Description><StartTime><Timestamp dt:dt=""int"">0</Timestamp><DateUtc dt:dt=""string"">2015-06-29T17:51:30Z</DateUtc></StartTime><FrequencyChanges><FrequencyChange><Frequency dt:dt=""r8"">2825703</Frequency><Timestamp dt:dt=""r8"">4745415471515</Timestamp><Current dt:dt=""r8"">0</Current><DateUtc dt:dt=""string"">2015-06-29T17:51:30Z</DateUtc></FrequencyChange></FrequencyChanges></Clock>\n"	Arrow Flanker 2014-12382-1	60.019	1.0.0.98	1	-522820274	Professional	2.0.10.353	2.0.10.353	06-29-2015	6/29/2015 5:51:30 PM	13:51:30	2.0.10.248	6	1	1	1	NA	NA	NA	NA	NA	NA	NA	NA	NA	NA	NA	NA	NA	NA	NA	NA	NA	NA	NA	NA	NA	NA	NA	NA	BlockProc	BlockList	NA	41	{LEFTARROW}	NA	-100	2531	neutral	NA	NA	NA	NA	NA	NA	NA	NA	NA	NA	NA	NA	NA	NA	NA	NA	NA	NA	NA	NA	NA	NA	TrialProc	TrialList	0	5	602131	16	0	17	599548	0	1	{LEFTARROW}	-999999	0	601647	0	{LEFTARROW}	478	602125	NA	NA	left	ooloo.bmp	354	0	NA	0	0	0	0	NA	0	0	0	NA	0	0	0	0	NA	0	0	5	1	41
Arrow Flanker 2014	12382	1	"<?xml version=""1.0""?>\n<Clock xmlns:dt=""urn:schemas-microsoft-com:datatypes""><Description dt:dt=""string"">E-Prime Primary Realtime Clock</Description><StartTime><Timestamp dt:dt=""int"">0</Timestamp><DateUtc dt:dt=""string"">2015-06-29T17:51:30Z</DateUtc></StartTime><FrequencyChanges><FrequencyChange><Frequency dt:dt=""r8"">2825703</Frequency><Timestamp dt:dt=""r8"">4745415471515</Timestamp><Current dt:dt=""r8"">0</Current><DateUtc dt:dt=""string"">2015-06-29T17:51:30Z</DateUtc></FrequencyChange></FrequencyChanges></Clock>\n"	Arrow Flanker 2014-12382-1	60.019	1.0.0.98	1	-522820274	Professional	2.0.10.353	2.0.10.353	06-29-2015	6/29/2015 5:51:30 PM	13:51:30	2.0.10.248	6	1	1	1	NA	NA	NA	NA	NA	NA	NA	NA	NA	NA	NA	NA	NA	NA	NA	NA	NA	NA	NA	NA	NA	NA	NA	NA	BlockProc	BlockList	NA	42	{LEFTARROW}	NA	-100	1008	neutral	NA	NA	NA	NA	NA	NA	NA	NA	NA	NA	NA	NA	NA	NA	NA	NA	NA	NA	NA	NA	NA	NA	TrialProc	TrialList	0	6	604396	17	0	16	602663	0	1	{LEFTARROW}	-999999	0	603863	0	{LEFTARROW}	526	604389	NA	NA	left	ooloo.bmp	354	0	NA	0	0	0	0	NA	0	0	0	NA	0	0	0	0	NA	0	0	5	1	42
Arrow Flanker 2014	12382	1	"<?xml version=""1.0""?>\n<Clock xmlns:dt=""urn:schemas-microsoft-com:datatypes""><Description dt:dt=""string"">E-Prime Primary Realtime Clock</Description><StartTime><Timestamp dt:dt=""int"">0</Timestamp><DateUtc dt:dt=""string"">2015-06-29T17:51:30Z</DateUtc></StartTime><FrequencyChanges><FrequencyChange><Frequency dt:dt=""r8"">2825703</Frequency><Timestamp dt:dt=""r8"">4745415471515</Timestamp><Current dt:dt=""r8"">0</Current><DateUtc dt:dt=""string"">2015-06-29T17:51:30Z</DateUtc></FrequencyChange></FrequencyChanges></Clock>\n"	Arrow Flanker 2014-12382-1	60.019	1.0.0.98	1	-522820274	Professional	2.0.10.353	2.0.10.353	06-29-2015	6/29/2015 5:51:30 PM	13:51:30	2.0.10.248	6	1	1	1	NA	NA	NA	NA	NA	NA	NA	NA	NA	NA	NA	NA	NA	NA	NA	NA	NA	NA	NA	NA	NA	NA	NA	NA	BlockProc	BlockList	NA	43	{RIGHTARROW}	NA	-100	1706	incongruent	NA	NA	NA	NA	NA	NA	NA	NA	NA	NA	NA	NA	NA	NA	NA	NA	NA	NA	NA	NA	NA	NA	TrialProc	TrialList	1	17	607278	17	0	16	604929	1216	1	{RIGHTARROW}	-999999	0	606645	0	{RIGHTARROW}	616	607261	NA	NA	right	llrll.bmp	354	0	NA	0	0	0	0	NA	0	0	0	NA	0	0	0	0	NA	0	0	4	1	43
Arrow Flanker 2014	12382	1	"<?xml version=""1.0""?>\n<Clock xmlns:dt=""urn:schemas-microsoft-com:datatypes""><Description dt:dt=""string"">E-Prime Primary Realtime Clock</Description><StartTime><Timestamp dt:dt=""int"">0</Timestamp><DateUtc dt:dt=""string"">2015-06-29T17:51:30Z</DateUtc></StartTime><FrequencyChanges><FrequencyChange><Frequency dt:dt=""r8"">2825703</Frequency><Timestamp dt:dt=""r8"">4745415471515</Timestamp><Current dt:dt=""r8"">0</Current><DateUtc dt:dt=""string"">2015-06-29T17:51:30Z</DateUtc></FrequencyChange></FrequencyChanges></Clock>\n"	Arrow Flanker 2014-12382-1	60.019	1.0.0.98	1	-522820274	Professional	2.0.10.353	2.0.10.353	06-29-2015	6/29/2015 5:51:30 PM	13:51:30	2.0.10.248	6	1	1	1	NA	NA	NA	NA	NA	NA	NA	NA	NA	NA	NA	NA	NA	NA	NA	NA	NA	NA	NA	NA	NA	NA	NA	NA	BlockProc	BlockList	NA	44	{LEFTARROW}	NA	-100	889	neutral	NA	NA	NA	NA	NA	NA	NA	NA	NA	NA	NA	NA	NA	NA	NA	NA	NA	NA	NA	NA	NA	NA	TrialProc	TrialList	0	17	609678	16	0	17	607812	0	1	{LEFTARROW}	-999999	-1	609144	0	{LEFTARROW}	517	609661	NA	NA	left	ooloo.bmp	354	0	NA	0	0	0	0	NA	0	0	0	NA	0	0	0	0	NA	0	0	5	1	44
Arrow Flanker 2014	12382	1	"<?xml version=""1.0""?>\n<Clock xmlns:dt=""urn:schemas-microsoft-com:datatypes""><Description dt:dt=""string"">E-Prime Primary Realtime Clock</Description><StartTime><Timestamp dt:dt=""int"">0</Timestamp><DateUtc dt:dt=""string"">2015-06-29T17:51:30Z</DateUtc></StartTime><FrequencyChanges><FrequencyChange><Frequency dt:dt=""r8"">2825703</Frequency><Timestamp dt:dt=""r8"">4745415471515</Timestamp><Current dt:dt=""r8"">0</Current><DateUtc dt:dt=""string"">2015-06-29T17:51:30Z</DateUtc></FrequencyChange></FrequencyChanges></Clock>\n"	Arrow Flanker 2014-12382-1	60.019	1.0.0.98	1	-522820274	Professional	2.0.10.353	2.0.10.353	06-29-2015	6/29/2015 5:51:30 PM	13:51:30	2.0.10.248	6	1	1	1	NA	NA	NA	NA	NA	NA	NA	NA	NA	NA	NA	NA	NA	NA	NA	NA	NA	NA	NA	NA	NA	NA	NA	NA	BlockProc	BlockList	NA	45	{LEFTARROW}	NA	-100	1531	incongruent	NA	NA	NA	NA	NA	NA	NA	NA	NA	NA	NA	NA	NA	NA	NA	NA	NA	NA	NA	NA	NA	NA	TrialProc	TrialList	1	16	612893	17	0	17	610211	0	1	{LEFTARROW}	-999999	0	612227	0	{LEFTARROW}	650	612877	NA	NA	left	rrlrr.bmp	354	0	NA	0	0	0	0	NA	0	0	0	NA	0	0	0	0	NA	0	0	3	1	45
Arrow Flanker 2014	12382	1	"<?xml version=""1.0""?>\n<Clock xmlns:dt=""urn:schemas-microsoft-com:datatypes""><Description dt:dt=""string"">E-Prime Primary Realtime Clock</Description><StartTime><Timestamp dt:dt=""int"">0</Timestamp><DateUtc dt:dt=""string"">2015-06-29T17:51:30Z</DateUtc></StartTime><FrequencyChanges><FrequencyChange><Frequency dt:dt=""r8"">2825703</Frequency><Timestamp dt:dt=""r8"">4745415471515</Timestamp><Current dt:dt=""r8"">0</Current><DateUtc dt:dt=""string"">2015-06-29T17:51:30Z</DateUtc></FrequencyChange></FrequencyChanges></Clock>\n"	Arrow Flanker 2014-12382-1	60.019	1.0.0.98	1	-522820274	Professional	2.0.10.353	2.0.10.353	06-29-2015	6/29/2015 5:51:30 PM	13:51:30	2.0.10.248	6	1	1	1	NA	NA	NA	NA	NA	NA	NA	NA	NA	NA	NA	NA	NA	NA	NA	NA	NA	NA	NA	NA	NA	NA	NA	NA	BlockProc	BlockList	NA	46	{RIGHTARROW}	NA	-100	1271	incongruent	NA	NA	NA	NA	NA	NA	NA	NA	NA	NA	NA	NA	NA	NA	NA	NA	NA	NA	NA	NA	NA	NA	TrialProc	TrialList	0	15	615676	17	0	17	613427	0	1	{RIGHTARROW}	-999999	0	615076	0	{RIGHTARROW}	585	615661	NA	NA	right	llrll.bmp	354	0	NA	0	0	0	0	NA	0	0	0	NA	0	0	0	0	NA	0	0	4	1	46
Arrow Flanker 2014	12382	1	"<?xml version=""1.0""?>\n<Clock xmlns:dt=""urn:schemas-microsoft-com:datatypes""><Description dt:dt=""string"">E-Prime Primary Realtime Clock</Description><StartTime><Timestamp dt:dt=""int"">0</Timestamp><DateUtc dt:dt=""string"">2015-06-29T17:51:30Z</DateUtc></StartTime><FrequencyChanges><FrequencyChange><Frequency dt:dt=""r8"">2825703</Frequency><Timestamp dt:dt=""r8"">4745415471515</Timestamp><Current dt:dt=""r8"">0</Current><DateUtc dt:dt=""string"">2015-06-29T17:51:30Z</DateUtc></FrequencyChange></FrequencyChanges></Clock>\n"	Arrow Flanker 2014-12382-1	60.019	1.0.0.98	1	-522820274	Professional	2.0.10.353	2.0.10.353	06-29-2015	6/29/2015 5:51:30 PM	13:51:30	2.0.10.248	6	1	1	1	NA	NA	NA	NA	NA	NA	NA	NA	NA	NA	NA	NA	NA	NA	NA	NA	NA	NA	NA	NA	NA	NA	NA	NA	BlockProc	BlockList	NA	47	{LEFTARROW}	NA	-100	1960	congruent	NA	NA	NA	NA	NA	NA	NA	NA	NA	NA	NA	NA	NA	NA	NA	NA	NA	NA	NA	NA	NA	NA	TrialProc	TrialList	0	20	618792	16	0	16	616209	0	1	{LEFTARROW}	-999999	0	617825	0	{LEFTARROW}	947	618772	NA	NA	left	lllll.bmp	354	0	NA	0	0	0	0	NA	0	0	0	NA	0	0	0	0	NA	0	0	1	1	47
Arrow Flanker 2014	12382	1	"<?xml version=""1.0""?>\n<Clock xmlns:dt=""urn:schemas-microsoft-com:datatypes""><Description dt:dt=""string"">E-Prime Primary Realtime Clock</Description><StartTime><Timestamp dt:dt=""int"">0</Timestamp><DateUtc dt:dt=""string"">2015-06-29T17:51:30Z</DateUtc></StartTime><FrequencyChanges><FrequencyChange><Frequency dt:dt=""r8"">2825703</Frequency><Timestamp dt:dt=""r8"">4745415471515</Timestamp><Current dt:dt=""r8"">0</Current><DateUtc dt:dt=""string"">2015-06-29T17:51:30Z</DateUtc></FrequencyChange></FrequencyChanges></Clock>\n"	Arrow Flanker 2014-12382-1	60.019	1.0.0.98	1	-522820274	Professional	2.0.10.353	2.0.10.353	06-29-2015	6/29/2015 5:51:30 PM	13:51:30	2.0.10.248	6	1	1	1	NA	NA	NA	NA	NA	NA	NA	NA	NA	NA	NA	NA	NA	NA	NA	NA	NA	NA	NA	NA	NA	NA	NA	NA	BlockProc	BlockList	NA	48	{LEFTARROW}	NA	-100	1486	incongruent	NA	NA	NA	NA	NA	NA	NA	NA	NA	NA	NA	NA	NA	NA	NA	NA	NA	NA	NA	NA	NA	NA	TrialProc	TrialList	0	7	621691	16	0	17	619325	0	1	{LEFTARROW}	-999999	0	621124	0	{LEFTARROW}	560	621684	NA	NA	left	rrlrr.bmp	354	0	NA	0	0	0	0	NA	0	0	0	NA	0	0	0	0	NA	0	0	3	1	48
Arrow Flanker 2014	12382	1	"<?xml version=""1.0""?>\n<Clock xmlns:dt=""urn:schemas-microsoft-com:datatypes""><Description dt:dt=""string"">E-Prime Primary Realtime Clock</Description><StartTime><Timestamp dt:dt=""int"">0</Timestamp><DateUtc dt:dt=""string"">2015-06-29T17:51:30Z</DateUtc></StartTime><FrequencyChanges><FrequencyChange><Frequency dt:dt=""r8"">2825703</Frequency><Timestamp dt:dt=""r8"">4745415471515</Timestamp><Current dt:dt=""r8"">0</Current><DateUtc dt:dt=""string"">2015-06-29T17:51:30Z</DateUtc></FrequencyChange></FrequencyChanges></Clock>\n"	Arrow Flanker 2014-12382-1	60.019	1.0.0.98	1	-522820274	Professional	2.0.10.353	2.0.10.353	06-29-2015	6/29/2015 5:51:30 PM	13:51:30	2.0.10.248	6	1	1	1	NA	NA	NA	NA	NA	NA	NA	NA	NA	NA	NA	NA	NA	NA	NA	NA	NA	NA	NA	NA	NA	NA	NA	NA	BlockProc	BlockList	NA	49	{LEFTARROW}	NA	-100	1123	congruent	NA	NA	NA	NA	NA	NA	NA	NA	NA	NA	NA	NA	NA	NA	NA	NA	NA	NA	NA	NA	NA	NA	TrialProc	TrialList	0	21	624273	17	0	17	622224	0	1	{LEFTARROW}	-999999	0	623557	0	{LEFTARROW}	695	624252	NA	NA	left	lllll.bmp	354	0	NA	0	0	0	0	NA	0	0	0	NA	0	0	0	0	NA	0	0	1	1	49
Arrow Flanker 2014	12382	1	"<?xml version=""1.0""?>\n<Clock xmlns:dt=""urn:schemas-microsoft-com:datatypes""><Description dt:dt=""string"">E-Prime Primary Realtime Clock</Description><StartTime><Timestamp dt:dt=""int"">0</Timestamp><DateUtc dt:dt=""string"">2015-06-29T17:51:30Z</DateUtc></StartTime><FrequencyChanges><FrequencyChange><Frequency dt:dt=""r8"">2825703</Frequency><Timestamp dt:dt=""r8"">4745415471515</Timestamp><Current dt:dt=""r8"">0</Current><DateUtc dt:dt=""string"">2015-06-29T17:51:30Z</DateUtc></FrequencyChange></FrequencyChanges></Clock>\n"	Arrow Flanker 2014-12382-1	60.019	1.0.0.98	1	-522820274	Professional	2.0.10.353	2.0.10.353	06-29-2015	6/29/2015 5:51:30 PM	13:51:30	2.0.10.248	6	1	1	1	NA	NA	NA	NA	NA	NA	NA	NA	NA	NA	NA	NA	NA	NA	NA	NA	NA	NA	NA	NA	NA	NA	NA	NA	BlockProc	BlockList	NA	50	{RIGHTARROW}	NA	-100	1611	neutral	NA	NA	NA	NA	NA	NA	NA	NA	NA	NA	NA	NA	NA	NA	NA	NA	NA	NA	NA	NA	NA	NA	TrialProc	TrialList	0	5	627073	16	0	16	624806	0	1	{RIGHTARROW}	-999999	16	626539	0	{RIGHTARROW}	529	627068	NA	NA	right	ooroo.bmp	354	0	NA	0	0	0	0	NA	0	0	0	NA	0	0	0	0	NA	0	0	6	1	50
Arrow Flanker 2014	12382	1	"<?xml version=""1.0""?>\n<Clock xmlns:dt=""urn:schemas-microsoft-com:datatypes""><Description dt:dt=""string"">E-Prime Primary Realtime Clock</Description><StartTime><Timestamp dt:dt=""int"">0</Timestamp><DateUtc dt:dt=""string"">2015-06-29T17:51:30Z</DateUtc></StartTime><FrequencyChanges><FrequencyChange><Frequency dt:dt=""r8"">2825703</Frequency><Timestamp dt:dt=""r8"">4745415471515</Timestamp><Current dt:dt=""r8"">0</Current><DateUtc dt:dt=""string"">2015-06-29T17:51:30Z</DateUtc></FrequencyChange></FrequencyChanges></Clock>\n"	Arrow Flanker 2014-12382-1	60.019	1.0.0.98	1	-522820274	Professional	2.0.10.353	2.0.10.353	06-29-2015	6/29/2015 5:51:30 PM	13:51:30	2.0.10.248	6	1	1	1	NA	NA	NA	NA	NA	NA	NA	NA	NA	NA	NA	NA	NA	NA	NA	NA	NA	NA	NA	NA	NA	NA	NA	NA	BlockProc	BlockList	NA	51	{RIGHTARROW}	NA	-100	1623	neutral	NA	NA	NA	NA	NA	NA	NA	NA	NA	NA	NA	NA	NA	NA	NA	NA	NA	NA	NA	NA	NA	NA	TrialProc	TrialList	0	17	629405	17	0	16	627605	0	1	{RIGHTARROW}	-999999	16	628855	0	{RIGHTARROW}	532	629387	NA	NA	right	ooroo.bmp	354	0	NA	0	0	0	0	NA	0	0	0	NA	0	0	0	0	NA	0	0	6	1	51
Arrow Flanker 2014	12382	1	"<?xml version=""1.0""?>\n<Clock xmlns:dt=""urn:schemas-microsoft-com:datatypes""><Description dt:dt=""string"">E-Prime Primary Realtime Clock</Description><StartTime><Timestamp dt:dt=""int"">0</Timestamp><DateUtc dt:dt=""string"">2015-06-29T17:51:30Z</DateUtc></StartTime><FrequencyChanges><FrequencyChange><Frequency dt:dt=""r8"">2825703</Frequency><Timestamp dt:dt=""r8"">4745415471515</Timestamp><Current dt:dt=""r8"">0</Current><DateUtc dt:dt=""string"">2015-06-29T17:51:30Z</DateUtc></FrequencyChange></FrequencyChanges></Clock>\n"	Arrow Flanker 2014-12382-1	60.019	1.0.0.98	1	-522820274	Professional	2.0.10.353	2.0.10.353	06-29-2015	6/29/2015 5:51:30 PM	13:51:30	2.0.10.248	6	1	1	1	NA	NA	NA	NA	NA	NA	NA	NA	NA	NA	NA	NA	NA	NA	NA	NA	NA	NA	NA	NA	NA	NA	NA	NA	BlockProc	BlockList	NA	52	{RIGHTARROW}	NA	-100	1362	congruent	NA	NA	NA	NA	NA	NA	NA	NA	NA	NA	NA	NA	NA	NA	NA	NA	NA	NA	NA	NA	NA	NA	TrialProc	TrialList	0	18	631438	16	0	16	629938	0	1	{RIGHTARROW}	-999999	0	630938	0	{RIGHTARROW}	481	631419	NA	NA	right	rrrrr.bmp	354	0	NA	0	0	0	0	NA	0	0	0	NA	0	0	0	0	NA	0	0	2	1	52
Arrow Flanker 2014	12382	1	"<?xml version=""1.0""?>\n<Clock xmlns:dt=""urn:schemas-microsoft-com:datatypes""><Description dt:dt=""string"">E-Prime Primary Realtime Clock</Description><StartTime><Timestamp dt:dt=""int"">0</Timestamp><DateUtc dt:dt=""string"">2015-06-29T17:51:30Z</DateUtc></StartTime><FrequencyChanges><FrequencyChange><Frequency dt:dt=""r8"">2825703</Frequency><Timestamp dt:dt=""r8"">4745415471515</Timestamp><Current dt:dt=""r8"">0</Current><DateUtc dt:dt=""string"">2015-06-29T17:51:30Z</DateUtc></FrequencyChange></FrequencyChanges></Clock>\n"	Arrow Flanker 2014-12382-1	60.019	1.0.0.98	1	-522820274	Professional	2.0.10.353	2.0.10.353	06-29-2015	6/29/2015 5:51:30 PM	13:51:30	2.0.10.248	6	1	1	1	NA	NA	NA	NA	NA	NA	NA	NA	NA	NA	NA	NA	NA	NA	NA	NA	NA	NA	NA	NA	NA	NA	NA	NA	BlockProc	BlockList	NA	53	{LEFTARROW}	NA	-100	1374	congruent	NA	NA	NA	NA	NA	NA	NA	NA	NA	NA	NA	NA	NA	NA	NA	NA	NA	NA	NA	NA	NA	NA	TrialProc	TrialList	1	15	633570	17	0	17	631971	0	1	{LEFTARROW}	-999999	0	632887	0	{LEFTARROW}	668	633555	NA	NA	left	lllll.bmp	354	0	NA	0	0	0	0	NA	0	0	0	NA	0	0	0	0	NA	0	0	1	1	53
Arrow Flanker 2014	12382	1	"<?xml version=""1.0""?>\n<Clock xmlns:dt=""urn:schemas-microsoft-com:datatypes""><Description dt:dt=""string"">E-Prime Primary Realtime Clock</Description><StartTime><Timestamp dt:dt=""int"">0</Timestamp><DateUtc dt:dt=""string"">2015-06-29T17:51:30Z</DateUtc></StartTime><FrequencyChanges><FrequencyChange><Frequency dt:dt=""r8"">2825703</Frequency><Timestamp dt:dt=""r8"">4745415471515</Timestamp><Current dt:dt=""r8"">0</Current><DateUtc dt:dt=""string"">2015-06-29T17:51:30Z</DateUtc></FrequencyChange></FrequencyChanges></Clock>\n"	Arrow Flanker 2014-12382-1	60.019	1.0.0.98	1	-522820274	Professional	2.0.10.353	2.0.10.353	06-29-2015	6/29/2015 5:51:30 PM	13:51:30	2.0.10.248	6	1	1	1	NA	NA	NA	NA	NA	NA	NA	NA	NA	NA	NA	NA	NA	NA	NA	NA	NA	NA	NA	NA	NA	NA	NA	NA	BlockProc	BlockList	NA	54	{LEFTARROW}	NA	-100	1608	congruent	NA	NA	NA	NA	NA	NA	NA	NA	NA	NA	NA	NA	NA	NA	NA	NA	NA	NA	NA	NA	1	NA	TrialProc	TrialList	0	11	635670	16	0	16	634103	0	1	{LEFTARROW}	-999999	16	635253	0	{LEFTARROW}	406	635659	NA	NA	left	lllll.bmp	354	0	NA	-999999	17	636203	0	1	5444	641647	0	NA	0	0	0	0	NA	0	0	1	1	54
