ExperimentName	Subject	Session	Clock.Information	DataFile.Basename	Display.RefreshRate	ExperimentVersion	Group	RandomSeed	RuntimeCapabilities	RuntimeVersion	RuntimeVersionExpected	SessionDate	SessionStartDateTimeUtc	SessionTime	StudioVersion	Block	BlockList	BlockList.Cycle	BlockList.Sample	Both	CompletelyMW	CongMeanRT	CongTotal	Fragmented	GoodByeList	GoodByeList.Cycle	GoodByeList.Sample	IncongMeanRT	IncongTotal	MapBlockList	MapBlockList.Cycle	MapBlockList.Sample	Mindwandering	MostlyMW	MostlyOT	NeutralMeanRT	NeutralTotal	NumberProbes1	NumberProbes2	OnTask	PracBlockList	PracBlockList.Cycle	PracBlockList.Sample	Procedure[Block]	Running[Block]	Sequential	Trial	CorrectAnswer	CuePositionY	CuePositionY2	DurationOfFixation	FlankerType	MapTrialList	MapTrialList.Cycle	MapTrialList.Sample	PracSlideFixationStart.DurationError	PracSlideFixationStart.OnsetDelay	PracSlideFixationStart.OnsetTime	PracSlideFixationStart.OnsetToOnsetTime	PracSlideTarget.ACC	PracSlideTarget.CRESP	PracSlideTarget.DurationError	PracSlideTarget.OnsetDelay	PracSlideTarget.OnsetTime	PracSlideTarget.OnsetToOnsetTime	PracSlideTarget.RESP	PracSlideTarget.RT	PracSlideTarget.RTTime	PracSlideTarget.Tag	PracTrialList	PracTrialList.Cycle	PracTrialList.Sample	Probe1Resp	Probe2Resp	Procedure[Trial]	Running[Trial]	SlideFixationEnd.DurationError	SlideFixationEnd.OnsetDelay	SlideFixationEnd.OnsetTime	SlideFixationEnd.OnsetToOnsetTime	SlideFixationStart.DurationError	SlideFixationStart.OnsetDelay	SlideFixationStart.OnsetTime	SlideFixationStart.OnsetToOnsetTime	SlideTarget.ACC	SlideTarget.CRESP	SlideTarget.DurationError	SlideTarget.OnsetDelay	SlideTarget.OnsetTime	SlideTarget.OnsetToOnsetTime	SlideTarget.RESP	SlideTarget.RT	SlideTarget.RTTime	SlideTarget.Tag	TargerDirection	TargetDirection	TargetImage	TargetPosition	ThoughtProbe1.ACC	ThoughtProbe1.CRESP	ThoughtProbe1.DurationError	ThoughtProbe1.OnsetDelay	ThoughtProbe1.OnsetTime	ThoughtProbe1.OnsetToOnsetTime	ThoughtProbe1.RESP	ThoughtProbe1.RT	ThoughtProbe1.RTTime	ThoughtProbe2.ACC	ThoughtProbe2.CRESP	ThoughtProbe2.DurationError	ThoughtProbe2.OnsetDelay	ThoughtProbe2.OnsetTime	ThoughtProbe2.OnsetToOnsetTime	ThoughtProbe2.RESP	ThoughtProbe2.RT	ThoughtProbe2.RTTime	TrialList	TrialList.Cycle	TrialList.Sample
Arrow Flanker 2014	12399	1	"<?xml version=""1.0""?>\n<Clock xmlns:dt=""urn:schemas-microsoft-com:datatypes""><Description dt:dt=""string"">E-Prime Primary Realtime Clock</Description><StartTime><Timestamp dt:dt=""int"">0</Timestamp><DateUtc dt:dt=""string"">2015-07-07T16:09:44Z</DateUtc></StartTime><FrequencyChanges><FrequencyChange><Frequency dt:dt=""r8"">2825566</Frequency><Timestamp dt:dt=""r8"">8739497746991</Timestamp><Current dt:dt=""r8"">0</Current><DateUtc dt:dt=""string"">2015-07-07T16:09:44Z</DateUtc></FrequencyChange></FrequencyChanges></Clock>\n"	Arrow Flanker 2014-12399-1	60.016	1.0.0.100	1	-760126595	Professional	2.0.10.353	2.0.10.353	07-07-2015	7/7/2015 4:09:44 PM	12:09:44	2.0.10.248	1	NA	NA	NA	NA	NA	NA	NA	NA	NA	NA	NA	NA	NA	1	1	1	NA	NA	NA	NA	NA	NA	NA	NA	NA	NA	NA	MapBlockProc	MapBlockList	NA	1	{LEFTARROW}	-100	NA	1322	NA	1	1	1	0	23	99905	1332	1	{LEFTARROW}	-999999	0	101737	0	{LEFTARROW}	529	102266	NA	NA	NA	NA	NA	NA	MapTrialProc	MapTrialList	NA	NA	NA	NA	NA	NA	NA	NA	NA	NA	NA	NA	NA	NA	NA	NA	NA	NA	left	NA	L.bmp	354	NA	NA	NA	NA	NA	NA	NA	NA	NA	NA	NA	NA	NA	NA	NA	NA	NA	NA	NA	NA	NA
Arrow Flanker 2014	12399	1	"<?xml version=""1.0""?>\n<Clock xmlns:dt=""urn:schemas-microsoft-com:datatypes""><Description dt:dt=""string"">E-Prime Primary Realtime Clock</Description><StartTime><Timestamp dt:dt=""int"">0</Timestamp><DateUtc dt:dt=""string"">2015-07-07T16:09:44Z</DateUtc></StartTime><FrequencyChanges><FrequencyChange><Frequency dt:dt=""r8"">2825566</Frequency><Timestamp dt:dt=""r8"">8739497746991</Timestamp><Current dt:dt=""r8"">0</Current><DateUtc dt:dt=""string"">2015-07-07T16:09:44Z</DateUtc></FrequencyChange></FrequencyChanges></Clock>\n"	Arrow Flanker 2014-12399-1	60.016	1.0.0.100	1	-760126595	Professional	2.0.10.353	2.0.10.353	07-07-2015	7/7/2015 4:09:44 PM	12:09:44	2.0.10.248	1	NA	NA	NA	NA	NA	NA	NA	NA	NA	NA	NA	NA	NA	1	1	1	NA	NA	NA	NA	NA	NA	NA	NA	NA	NA	NA	MapBlockProc	MapBlockList	NA	2	{LEFTARROW}	-100	NA	830	NA	1	1	2	0	17	103804	833	1	{LEFTARROW}	-999999	0	105137	0	{LEFTARROW}	473	105610	NA	NA	NA	NA	NA	NA	MapTrialProc	MapTrialList	NA	NA	NA	NA	NA	NA	NA	NA	NA	NA	NA	NA	NA	NA	NA	NA	NA	NA	left	NA	L.bmp	354	NA	NA	NA	NA	NA	NA	NA	NA	NA	NA	NA	NA	NA	NA	NA	NA	NA	NA	NA	NA	NA
Arrow Flanker 2014	12399	1	"<?xml version=""1.0""?>\n<Clock xmlns:dt=""urn:schemas-microsoft-com:datatypes""><Description dt:dt=""string"">E-Prime Primary Realtime Clock</Description><StartTime><Timestamp dt:dt=""int"">0</Timestamp><DateUtc dt:dt=""string"">2015-07-07T16:09:44Z</DateUtc></StartTime><FrequencyChanges><FrequencyChange><Frequency dt:dt=""r8"">2825566</Frequency><Timestamp dt:dt=""r8"">8739497746991</Timestamp><Current dt:dt=""r8"">0</Current><DateUtc dt:dt=""string"">2015-07-07T16:09:44Z</DateUtc></FrequencyChange></FrequencyChanges></Clock>\n"	Arrow Flanker 2014-12399-1	60.016	1.0.0.100	1	-760126595	Professional	2.0.10.353	2.0.10.353	07-07-2015	7/7/2015 4:09:44 PM	12:09:44	2.0.10.248	1	NA	NA	NA	NA	NA	NA	NA	NA	NA	NA	NA	NA	NA	1	1	1	NA	NA	NA	NA	NA	NA	NA	NA	NA	NA	NA	MapBlockProc	MapBlockList	NA	3	{RIGHTARROW}	-100	NA	1036	NA	2	1	3	0	17	107153	1049	1	{RIGHTARROW}	-999999	0	108702	0	{RIGHTARROW}	460	109162	NA	NA	NA	NA	NA	NA	MapTrialProc	MapTrialList	NA	NA	NA	NA	NA	NA	NA	NA	NA	NA	NA	NA	NA	NA	NA	NA	NA	NA	right	NA	R.bmp	354	NA	NA	NA	NA	NA	NA	NA	NA	NA	NA	NA	NA	NA	NA	NA	NA	NA	NA	NA	NA	NA
Arrow Flanker 2014	12399	1	"<?xml version=""1.0""?>\n<Clock xmlns:dt=""urn:schemas-microsoft-com:datatypes""><Description dt:dt=""string"">E-Prime Primary Realtime Clock</Description><StartTime><Timestamp dt:dt=""int"">0</Timestamp><DateUtc dt:dt=""string"">2015-07-07T16:09:44Z</DateUtc></StartTime><FrequencyChanges><FrequencyChange><Frequency dt:dt=""r8"">2825566</Frequency><Timestamp dt:dt=""r8"">8739497746991</Timestamp><Current dt:dt=""r8"">0</Current><DateUtc dt:dt=""string"">2015-07-07T16:09:44Z</DateUtc></FrequencyChange></FrequencyChanges></Clock>\n"	Arrow Flanker 2014-12399-1	60.016	1.0.0.100	1	-760126595	Professional	2.0.10.353	2.0.10.353	07-07-2015	7/7/2015 4:09:44 PM	12:09:44	2.0.10.248	1	NA	NA	NA	NA	NA	NA	NA	NA	NA	NA	NA	NA	NA	1	1	1	NA	NA	NA	NA	NA	NA	NA	NA	NA	NA	NA	MapBlockProc	MapBlockList	NA	4	{LEFTARROW}	-100	NA	821	NA	1	1	4	0	17	110702	833	1	{LEFTARROW}	-999999	0	112035	0	{LEFTARROW}	455	112490	NA	NA	NA	NA	NA	NA	MapTrialProc	MapTrialList	NA	NA	NA	NA	NA	NA	NA	NA	NA	NA	NA	NA	NA	NA	NA	NA	NA	NA	left	NA	L.bmp	354	NA	NA	NA	NA	NA	NA	NA	NA	NA	NA	NA	NA	NA	NA	NA	NA	NA	NA	NA	NA	NA
Arrow Flanker 2014	12399	1	"<?xml version=""1.0""?>\n<Clock xmlns:dt=""urn:schemas-microsoft-com:datatypes""><Description dt:dt=""string"">E-Prime Primary Realtime Clock</Description><StartTime><Timestamp dt:dt=""int"">0</Timestamp><DateUtc dt:dt=""string"">2015-07-07T16:09:44Z</DateUtc></StartTime><FrequencyChanges><FrequencyChange><Frequency dt:dt=""r8"">2825566</Frequency><Timestamp dt:dt=""r8"">8739497746991</Timestamp><Current dt:dt=""r8"">0</Current><DateUtc dt:dt=""string"">2015-07-07T16:09:44Z</DateUtc></FrequencyChange></FrequencyChanges></Clock>\n"	Arrow Flanker 2014-12399-1	60.016	1.0.0.100	1	-760126595	Professional	2.0.10.353	2.0.10.353	07-07-2015	7/7/2015 4:09:44 PM	12:09:44	2.0.10.248	1	NA	NA	NA	NA	NA	NA	NA	NA	NA	NA	NA	NA	NA	1	1	1	NA	NA	NA	NA	NA	NA	NA	NA	NA	NA	NA	MapBlockProc	MapBlockList	NA	5	{RIGHTARROW}	-100	NA	1324	NA	2	1	5	0	16	114017	1333	1	{RIGHTARROW}	-999999	0	115850	0	{RIGHTARROW}	368	116218	NA	NA	NA	NA	NA	NA	MapTrialProc	MapTrialList	NA	NA	NA	NA	NA	NA	NA	NA	NA	NA	NA	NA	NA	NA	NA	NA	NA	NA	right	NA	R.bmp	354	NA	NA	NA	NA	NA	NA	NA	NA	NA	NA	NA	NA	NA	NA	NA	NA	NA	NA	NA	NA	NA
Arrow Flanker 2014	12399	1	"<?xml version=""1.0""?>\n<Clock xmlns:dt=""urn:schemas-microsoft-com:datatypes""><Description dt:dt=""string"">E-Prime Primary Realtime Clock</Description><StartTime><Timestamp dt:dt=""int"">0</Timestamp><DateUtc dt:dt=""string"">2015-07-07T16:09:44Z</DateUtc></StartTime><FrequencyChanges><FrequencyChange><Frequency dt:dt=""r8"">2825566</Frequency><Timestamp dt:dt=""r8"">8739497746991</Timestamp><Current dt:dt=""r8"">0</Current><DateUtc dt:dt=""string"">2015-07-07T16:09:44Z</DateUtc></FrequencyChange></FrequencyChanges></Clock>\n"	Arrow Flanker 2014-12399-1	60.016	1.0.0.100	1	-760126595	Professional	2.0.10.353	2.0.10.353	07-07-2015	7/7/2015 4:09:44 PM	12:09:44	2.0.10.248	1	NA	NA	NA	NA	NA	NA	NA	NA	NA	NA	NA	NA	NA	1	1	1	NA	NA	NA	NA	NA	NA	NA	NA	NA	NA	NA	MapBlockProc	MapBlockList	NA	6	{RIGHTARROW}	-100	NA	920	NA	2	1	6	0	16	117750	933	1	{RIGHTARROW}	-999999	0	119183	0	{RIGHTARROW}	411	119594	NA	NA	NA	NA	NA	NA	MapTrialProc	MapTrialList	NA	NA	NA	NA	NA	NA	NA	NA	NA	NA	NA	NA	NA	NA	NA	NA	NA	NA	right	NA	R.bmp	354	NA	NA	NA	NA	NA	NA	NA	NA	NA	NA	NA	NA	NA	NA	NA	NA	NA	NA	NA	NA	NA
Arrow Flanker 2014	12399	1	"<?xml version=""1.0""?>\n<Clock xmlns:dt=""urn:schemas-microsoft-com:datatypes""><Description dt:dt=""string"">E-Prime Primary Realtime Clock</Description><StartTime><Timestamp dt:dt=""int"">0</Timestamp><DateUtc dt:dt=""string"">2015-07-07T16:09:44Z</DateUtc></StartTime><FrequencyChanges><FrequencyChange><Frequency dt:dt=""r8"">2825566</Frequency><Timestamp dt:dt=""r8"">8739497746991</Timestamp><Current dt:dt=""r8"">0</Current><DateUtc dt:dt=""string"">2015-07-07T16:09:44Z</DateUtc></FrequencyChange></FrequencyChanges></Clock>\n"	Arrow Flanker 2014-12399-1	60.016	1.0.0.100	1	-760126595	Professional	2.0.10.353	2.0.10.353	07-07-2015	7/7/2015 4:09:44 PM	12:09:44	2.0.10.248	1	NA	NA	NA	NA	NA	NA	NA	NA	NA	NA	NA	NA	NA	1	1	1	NA	NA	NA	NA	NA	NA	NA	NA	NA	NA	NA	MapBlockProc	MapBlockList	NA	7	{RIGHTARROW}	-100	NA	1154	NA	2	1	7	0	16	121132	1167	1	{RIGHTARROW}	-999999	16	122815	0	{RIGHTARROW}	299	123114	NA	NA	NA	NA	NA	NA	MapTrialProc	MapTrialList	NA	NA	NA	NA	NA	NA	NA	NA	NA	NA	NA	NA	NA	NA	NA	NA	NA	NA	right	NA	R.bmp	354	NA	NA	NA	NA	NA	NA	NA	NA	NA	NA	NA	NA	NA	NA	NA	NA	NA	NA	NA	NA	NA
Arrow Flanker 2014	12399	1	"<?xml version=""1.0""?>\n<Clock xmlns:dt=""urn:schemas-microsoft-com:datatypes""><Description dt:dt=""string"">E-Prime Primary Realtime Clock</Description><StartTime><Timestamp dt:dt=""int"">0</Timestamp><DateUtc dt:dt=""string"">2015-07-07T16:09:44Z</DateUtc></StartTime><FrequencyChanges><FrequencyChange><Frequency dt:dt=""r8"">2825566</Frequency><Timestamp dt:dt=""r8"">8739497746991</Timestamp><Current dt:dt=""r8"">0</Current><DateUtc dt:dt=""string"">2015-07-07T16:09:44Z</DateUtc></FrequencyChange></FrequencyChanges></Clock>\n"	Arrow Flanker 2014-12399-1	60.016	1.0.0.100	1	-760126595	Professional	2.0.10.353	2.0.10.353	07-07-2015	7/7/2015 4:09:44 PM	12:09:44	2.0.10.248	1	NA	NA	NA	NA	NA	NA	NA	NA	NA	NA	NA	NA	NA	1	1	1	NA	NA	NA	NA	NA	NA	NA	NA	NA	NA	NA	MapBlockProc	MapBlockList	NA	8	{LEFTARROW}	-100	NA	522	NA	1	1	8	0	16	124648	533	1	{LEFTARROW}	-999999	0	125681	0	{LEFTARROW}	553	126234	NA	NA	NA	NA	NA	NA	MapTrialProc	MapTrialList	NA	NA	NA	NA	NA	NA	NA	NA	NA	NA	NA	NA	NA	NA	NA	NA	NA	NA	left	NA	L.bmp	354	NA	NA	NA	NA	NA	NA	NA	NA	NA	NA	NA	NA	NA	NA	NA	NA	NA	NA	NA	NA	NA
Arrow Flanker 2014	12399	1	"<?xml version=""1.0""?>\n<Clock xmlns:dt=""urn:schemas-microsoft-com:datatypes""><Description dt:dt=""string"">E-Prime Primary Realtime Clock</Description><StartTime><Timestamp dt:dt=""int"">0</Timestamp><DateUtc dt:dt=""string"">2015-07-07T16:09:44Z</DateUtc></StartTime><FrequencyChanges><FrequencyChange><Frequency dt:dt=""r8"">2825566</Frequency><Timestamp dt:dt=""r8"">8739497746991</Timestamp><Current dt:dt=""r8"">0</Current><DateUtc dt:dt=""string"">2015-07-07T16:09:44Z</DateUtc></FrequencyChange></FrequencyChanges></Clock>\n"	Arrow Flanker 2014-12399-1	60.016	1.0.0.100	1	-760126595	Professional	2.0.10.353	2.0.10.353	07-07-2015	7/7/2015 4:09:44 PM	12:09:44	2.0.10.248	1	NA	NA	NA	NA	NA	NA	NA	NA	NA	NA	NA	NA	NA	1	1	1	NA	NA	NA	NA	NA	NA	NA	NA	NA	NA	NA	MapBlockProc	MapBlockList	NA	9	{RIGHTARROW}	-100	NA	797	NA	2	1	9	0	16	127764	800	1	{RIGHTARROW}	-999999	0	129064	0	{RIGHTARROW}	337	129401	NA	NA	NA	NA	NA	NA	MapTrialProc	MapTrialList	NA	NA	NA	NA	NA	NA	NA	NA	NA	NA	NA	NA	NA	NA	NA	NA	NA	NA	right	NA	R.bmp	354	NA	NA	NA	NA	NA	NA	NA	NA	NA	NA	NA	NA	NA	NA	NA	NA	NA	NA	NA	NA	NA
Arrow Flanker 2014	12399	1	"<?xml version=""1.0""?>\n<Clock xmlns:dt=""urn:schemas-microsoft-com:datatypes""><Description dt:dt=""string"">E-Prime Primary Realtime Clock</Description><StartTime><Timestamp dt:dt=""int"">0</Timestamp><DateUtc dt:dt=""string"">2015-07-07T16:09:44Z</DateUtc></StartTime><FrequencyChanges><FrequencyChange><Frequency dt:dt=""r8"">2825566</Frequency><Timestamp dt:dt=""r8"">8739497746991</Timestamp><Current dt:dt=""r8"">0</Current><DateUtc dt:dt=""string"">2015-07-07T16:09:44Z</DateUtc></FrequencyChange></FrequencyChanges></Clock>\n"	Arrow Flanker 2014-12399-1	60.016	1.0.0.100	1	-760126595	Professional	2.0.10.353	2.0.10.353	07-07-2015	7/7/2015 4:09:44 PM	12:09:44	2.0.10.248	1	NA	NA	NA	NA	NA	NA	NA	NA	NA	NA	NA	NA	NA	1	1	1	NA	NA	NA	NA	NA	NA	NA	NA	NA	NA	NA	MapBlockProc	MapBlockList	NA	10	{LEFTARROW}	-100	NA	412	NA	1	1	10	0	17	130930	416	1	{LEFTARROW}	-999999	0	131846	0	{LEFTARROW}	291	132137	NA	NA	NA	NA	NA	NA	MapTrialProc	MapTrialList	NA	NA	NA	NA	NA	NA	NA	NA	NA	NA	NA	NA	NA	NA	NA	NA	NA	NA	left	NA	L.bmp	354	NA	NA	NA	NA	NA	NA	NA	NA	NA	NA	NA	NA	NA	NA	NA	NA	NA	NA	NA	NA	NA
Arrow Flanker 2014	12399	1	"<?xml version=""1.0""?>\n<Clock xmlns:dt=""urn:schemas-microsoft-com:datatypes""><Description dt:dt=""string"">E-Prime Primary Realtime Clock</Description><StartTime><Timestamp dt:dt=""int"">0</Timestamp><DateUtc dt:dt=""string"">2015-07-07T16:09:44Z</DateUtc></StartTime><FrequencyChanges><FrequencyChange><Frequency dt:dt=""r8"">2825566</Frequency><Timestamp dt:dt=""r8"">8739497746991</Timestamp><Current dt:dt=""r8"">0</Current><DateUtc dt:dt=""string"">2015-07-07T16:09:44Z</DateUtc></FrequencyChange></FrequencyChanges></Clock>\n"	Arrow Flanker 2014-12399-1	60.016	1.0.0.100	1	-760126595	Professional	2.0.10.353	2.0.10.353	07-07-2015	7/7/2015 4:09:44 PM	12:09:44	2.0.10.248	2	NA	NA	NA	NA	NA	NA	NA	NA	NA	NA	NA	NA	NA	NA	NA	NA	NA	NA	NA	NA	NA	NA	NA	NA	1	1	1	PracBlockProc	PracBlockList	NA	1	{LEFTARROW}	-100	NA	855	incongruent	NA	NA	NA	0	15	150424	867	1	{LEFTARROW}	-999999	0	151791	0	{LEFTARROW}	1018	152809	NA	2	1	1	NA	NA	PracTrialProc	PracTrialList	NA	NA	NA	NA	NA	NA	NA	NA	NA	NA	NA	NA	NA	NA	NA	NA	NA	NA	left	NA	rrlrr.bmp	354	NA	NA	NA	NA	NA	NA	NA	NA	NA	NA	NA	NA	NA	NA	NA	NA	NA	NA	NA	NA	NA
Arrow Flanker 2014	12399	1	"<?xml version=""1.0""?>\n<Clock xmlns:dt=""urn:schemas-microsoft-com:datatypes""><Description dt:dt=""string"">E-Prime Primary Realtime Clock</Description><StartTime><Timestamp dt:dt=""int"">0</Timestamp><DateUtc dt:dt=""string"">2015-07-07T16:09:44Z</DateUtc></StartTime><FrequencyChanges><FrequencyChange><Frequency dt:dt=""r8"">2825566</Frequency><Timestamp dt:dt=""r8"">8739497746991</Timestamp><Current dt:dt=""r8"">0</Current><DateUtc dt:dt=""string"">2015-07-07T16:09:44Z</DateUtc></FrequencyChange></FrequencyChanges></Clock>\n"	Arrow Flanker 2014-12399-1	60.016	1.0.0.100	1	-760126595	Professional	2.0.10.353	2.0.10.353	07-07-2015	7/7/2015 4:09:44 PM	12:09:44	2.0.10.248	2	NA	NA	NA	NA	NA	NA	NA	NA	NA	NA	NA	NA	NA	NA	NA	NA	NA	NA	NA	NA	NA	NA	NA	NA	1	1	1	PracBlockProc	PracBlockList	NA	2	{LEFTARROW}	-100	NA	619	congruent	NA	NA	NA	0	16	154340	633	1	{LEFTARROW}	-999999	0	155473	0	{LEFTARROW}	776	156249	NA	1	1	2	NA	NA	PracTrialProc	PracTrialList	NA	NA	NA	NA	NA	NA	NA	NA	NA	NA	NA	NA	NA	NA	NA	NA	NA	NA	left	NA	lllll.bmp	354	NA	NA	NA	NA	NA	NA	NA	NA	NA	NA	NA	NA	NA	NA	NA	NA	NA	NA	NA	NA	NA
Arrow Flanker 2014	12399	1	"<?xml version=""1.0""?>\n<Clock xmlns:dt=""urn:schemas-microsoft-com:datatypes""><Description dt:dt=""string"">E-Prime Primary Realtime Clock</Description><StartTime><Timestamp dt:dt=""int"">0</Timestamp><DateUtc dt:dt=""string"">2015-07-07T16:09:44Z</DateUtc></StartTime><FrequencyChanges><FrequencyChange><Frequency dt:dt=""r8"">2825566</Frequency><Timestamp dt:dt=""r8"">8739497746991</Timestamp><Current dt:dt=""r8"">0</Current><DateUtc dt:dt=""string"">2015-07-07T16:09:44Z</DateUtc></FrequencyChange></FrequencyChanges></Clock>\n"	Arrow Flanker 2014-12399-1	60.016	1.0.0.100	1	-760126595	Professional	2.0.10.353	2.0.10.353	07-07-2015	7/7/2015 4:09:44 PM	12:09:44	2.0.10.248	2	NA	NA	NA	NA	NA	NA	NA	NA	NA	NA	NA	NA	NA	NA	NA	NA	NA	NA	NA	NA	NA	NA	NA	NA	1	1	1	PracBlockProc	PracBlockList	NA	3	{LEFTARROW}	-100	NA	1486	neutral	NA	NA	NA	0	16	157789	1500	1	{LEFTARROW}	-999999	0	159789	0	{LEFTARROW}	1036	160825	NA	3	1	3	NA	NA	PracTrialProc	PracTrialList	NA	NA	NA	NA	NA	NA	NA	NA	NA	NA	NA	NA	NA	NA	NA	NA	NA	NA	left	NA	ooloo.bmp	354	NA	NA	NA	NA	NA	NA	NA	NA	NA	NA	NA	NA	NA	NA	NA	NA	NA	NA	NA	NA	NA
Arrow Flanker 2014	12399	1	"<?xml version=""1.0""?>\n<Clock xmlns:dt=""urn:schemas-microsoft-com:datatypes""><Description dt:dt=""string"">E-Prime Primary Realtime Clock</Description><StartTime><Timestamp dt:dt=""int"">0</Timestamp><DateUtc dt:dt=""string"">2015-07-07T16:09:44Z</DateUtc></StartTime><FrequencyChanges><FrequencyChange><Frequency dt:dt=""r8"">2825566</Frequency><Timestamp dt:dt=""r8"">8739497746991</Timestamp><Current dt:dt=""r8"">0</Current><DateUtc dt:dt=""string"">2015-07-07T16:09:44Z</DateUtc></FrequencyChange></FrequencyChanges></Clock>\n"	Arrow Flanker 2014-12399-1	60.016	1.0.0.100	1	-760126595	Professional	2.0.10.353	2.0.10.353	07-07-2015	7/7/2015 4:09:44 PM	12:09:44	2.0.10.248	2	NA	NA	NA	NA	NA	NA	NA	NA	NA	NA	NA	NA	NA	NA	NA	NA	NA	NA	NA	NA	NA	NA	NA	NA	1	1	1	PracBlockProc	PracBlockList	NA	4	{RIGHTARROW}	-100	NA	530	incongruent	NA	NA	NA	0	17	162355	533	1	{RIGHTARROW}	-999999	0	163388	0	{RIGHTARROW}	573	163961	NA	5	1	4	NA	NA	PracTrialProc	PracTrialList	NA	NA	NA	NA	NA	NA	NA	NA	NA	NA	NA	NA	NA	NA	NA	NA	NA	NA	right	NA	llrll.bmp	354	NA	NA	NA	NA	NA	NA	NA	NA	NA	NA	NA	NA	NA	NA	NA	NA	NA	NA	NA	NA	NA
Arrow Flanker 2014	12399	1	"<?xml version=""1.0""?>\n<Clock xmlns:dt=""urn:schemas-microsoft-com:datatypes""><Description dt:dt=""string"">E-Prime Primary Realtime Clock</Description><StartTime><Timestamp dt:dt=""int"">0</Timestamp><DateUtc dt:dt=""string"">2015-07-07T16:09:44Z</DateUtc></StartTime><FrequencyChanges><FrequencyChange><Frequency dt:dt=""r8"">2825566</Frequency><Timestamp dt:dt=""r8"">8739497746991</Timestamp><Current dt:dt=""r8"">0</Current><DateUtc dt:dt=""string"">2015-07-07T16:09:44Z</DateUtc></FrequencyChange></FrequencyChanges></Clock>\n"	Arrow Flanker 2014-12399-1	60.016	1.0.0.100	1	-760126595	Professional	2.0.10.353	2.0.10.353	07-07-2015	7/7/2015 4:09:44 PM	12:09:44	2.0.10.248	2	NA	NA	NA	NA	NA	NA	NA	NA	NA	NA	NA	NA	NA	NA	NA	NA	NA	NA	NA	NA	NA	NA	NA	NA	1	1	1	PracBlockProc	PracBlockList	NA	5	{RIGHTARROW}	-100	NA	1319	congruent	NA	NA	NA	0	16	165487	1333	1	{RIGHTARROW}	-999999	0	167320	0	{RIGHTARROW}	593	167913	NA	4	1	5	NA	NA	PracTrialProc	PracTrialList	NA	NA	NA	NA	NA	NA	NA	NA	NA	NA	NA	NA	NA	NA	NA	NA	NA	NA	right	NA	rrrrr.bmp	354	NA	NA	NA	NA	NA	NA	NA	NA	NA	NA	NA	NA	NA	NA	NA	NA	NA	NA	NA	NA	NA
Arrow Flanker 2014	12399	1	"<?xml version=""1.0""?>\n<Clock xmlns:dt=""urn:schemas-microsoft-com:datatypes""><Description dt:dt=""string"">E-Prime Primary Realtime Clock</Description><StartTime><Timestamp dt:dt=""int"">0</Timestamp><DateUtc dt:dt=""string"">2015-07-07T16:09:44Z</DateUtc></StartTime><FrequencyChanges><FrequencyChange><Frequency dt:dt=""r8"">2825566</Frequency><Timestamp dt:dt=""r8"">8739497746991</Timestamp><Current dt:dt=""r8"">0</Current><DateUtc dt:dt=""string"">2015-07-07T16:09:44Z</DateUtc></FrequencyChange></FrequencyChanges></Clock>\n"	Arrow Flanker 2014-12399-1	60.016	1.0.0.100	1	-760126595	Professional	2.0.10.353	2.0.10.353	07-07-2015	7/7/2015 4:09:44 PM	12:09:44	2.0.10.248	2	NA	NA	NA	NA	NA	NA	NA	NA	NA	NA	NA	NA	NA	NA	NA	NA	NA	NA	NA	NA	NA	NA	NA	NA	1	1	1	PracBlockProc	PracBlockList	NA	6	{RIGHTARROW}	-100	NA	606	neutral	NA	NA	NA	0	16	169453	616	1	{RIGHTARROW}	-999999	0	170569	0	{RIGHTARROW}	447	171016	NA	6	1	6	NA	NA	PracTrialProc	PracTrialList	NA	NA	NA	NA	NA	NA	NA	NA	NA	NA	NA	NA	NA	NA	NA	NA	NA	NA	right	NA	ooroo.bmp	354	NA	NA	NA	NA	NA	NA	NA	NA	NA	NA	NA	NA	NA	NA	NA	NA	NA	NA	NA	NA	NA
Arrow Flanker 2014	12399	1	"<?xml version=""1.0""?>\n<Clock xmlns:dt=""urn:schemas-microsoft-com:datatypes""><Description dt:dt=""string"">E-Prime Primary Realtime Clock</Description><StartTime><Timestamp dt:dt=""int"">0</Timestamp><DateUtc dt:dt=""string"">2015-07-07T16:09:44Z</DateUtc></StartTime><FrequencyChanges><FrequencyChange><Frequency dt:dt=""r8"">2825566</Frequency><Timestamp dt:dt=""r8"">8739497746991</Timestamp><Current dt:dt=""r8"">0</Current><DateUtc dt:dt=""string"">2015-07-07T16:09:44Z</DateUtc></FrequencyChange></FrequencyChanges></Clock>\n"	Arrow Flanker 2014-12399-1	60.016	1.0.0.100	1	-760126595	Professional	2.0.10.353	2.0.10.353	07-07-2015	7/7/2015 4:09:44 PM	12:09:44	2.0.10.248	3	1	1	1	NA	NA	NA	NA	NA	NA	NA	NA	NA	NA	NA	NA	NA	NA	NA	NA	NA	NA	NA	NA	NA	NA	NA	NA	BlockProc	BlockList	NA	1	{RIGHTARROW}	NA	-100	1571	congruent	NA	NA	NA	NA	NA	NA	NA	NA	NA	NA	NA	NA	NA	NA	NA	NA	NA	NA	NA	NA	NA	NA	TrialProc	TrialList	0	7	180367	16	0	16	178400	867	1	{RIGHTARROW}	-999999	0	179767	0	{RIGHTARROW}	593	180360	NA	NA	right	rrrrr.bmp	354	0	NA	0	0	0	0	NA	0	0	0	NA	0	0	0	0	NA	0	0	2	1	1
Arrow Flanker 2014	12399	1	"<?xml version=""1.0""?>\n<Clock xmlns:dt=""urn:schemas-microsoft-com:datatypes""><Description dt:dt=""string"">E-Prime Primary Realtime Clock</Description><StartTime><Timestamp dt:dt=""int"">0</Timestamp><DateUtc dt:dt=""string"">2015-07-07T16:09:44Z</DateUtc></StartTime><FrequencyChanges><FrequencyChange><Frequency dt:dt=""r8"">2825566</Frequency><Timestamp dt:dt=""r8"">8739497746991</Timestamp><Current dt:dt=""r8"">0</Current><DateUtc dt:dt=""string"">2015-07-07T16:09:44Z</DateUtc></FrequencyChange></FrequencyChanges></Clock>\n"	Arrow Flanker 2014-12399-1	60.016	1.0.0.100	1	-760126595	Professional	2.0.10.353	2.0.10.353	07-07-2015	7/7/2015 4:09:44 PM	12:09:44	2.0.10.248	3	1	1	1	NA	NA	NA	NA	NA	NA	NA	NA	NA	NA	NA	NA	NA	NA	NA	NA	NA	NA	NA	NA	NA	NA	NA	NA	BlockProc	BlockList	NA	2	{LEFTARROW}	NA	-100	1759	incongruent	NA	NA	NA	NA	NA	NA	NA	NA	NA	NA	NA	NA	NA	NA	NA	NA	NA	NA	NA	NA	NA	NA	TrialProc	TrialList	1	18	183082	17	0	17	180900	1116	1	{LEFTARROW}	-999999	0	182516	0	{LEFTARROW}	548	183064	NA	NA	left	rrlrr.bmp	354	0	NA	0	0	0	0	NA	0	0	0	NA	0	0	0	0	NA	0	0	3	1	2
Arrow Flanker 2014	12399	1	"<?xml version=""1.0""?>\n<Clock xmlns:dt=""urn:schemas-microsoft-com:datatypes""><Description dt:dt=""string"">E-Prime Primary Realtime Clock</Description><StartTime><Timestamp dt:dt=""int"">0</Timestamp><DateUtc dt:dt=""string"">2015-07-07T16:09:44Z</DateUtc></StartTime><FrequencyChanges><FrequencyChange><Frequency dt:dt=""r8"">2825566</Frequency><Timestamp dt:dt=""r8"">8739497746991</Timestamp><Current dt:dt=""r8"">0</Current><DateUtc dt:dt=""string"">2015-07-07T16:09:44Z</DateUtc></FrequencyChange></FrequencyChanges></Clock>\n"	Arrow Flanker 2014-12399-1	60.016	1.0.0.100	1	-760126595	Professional	2.0.10.353	2.0.10.353	07-07-2015	7/7/2015 4:09:44 PM	12:09:44	2.0.10.248	3	1	1	1	NA	NA	NA	NA	NA	NA	NA	NA	NA	NA	NA	NA	NA	NA	NA	NA	NA	NA	NA	NA	NA	NA	NA	NA	BlockProc	BlockList	NA	3	{RIGHTARROW}	NA	-100	2145	incongruent	NA	NA	NA	NA	NA	NA	NA	NA	NA	NA	NA	NA	NA	NA	NA	NA	NA	NA	NA	NA	NA	NA	TrialProc	TrialList	0	12	185732	16	0	17	183616	1049	1	{RIGHTARROW}	-999999	0	185165	0	{RIGHTARROW}	555	185720	NA	NA	right	llrll.bmp	354	0	NA	0	0	0	0	NA	0	0	0	NA	0	0	0	0	NA	0	0	4	1	3
Arrow Flanker 2014	12399	1	"<?xml version=""1.0""?>\n<Clock xmlns:dt=""urn:schemas-microsoft-com:datatypes""><Description dt:dt=""string"">E-Prime Primary Realtime Clock</Description><StartTime><Timestamp dt:dt=""int"">0</Timestamp><DateUtc dt:dt=""string"">2015-07-07T16:09:44Z</DateUtc></StartTime><FrequencyChanges><FrequencyChange><Frequency dt:dt=""r8"">2825566</Frequency><Timestamp dt:dt=""r8"">8739497746991</Timestamp><Current dt:dt=""r8"">0</Current><DateUtc dt:dt=""string"">2015-07-07T16:09:44Z</DateUtc></FrequencyChange></FrequencyChanges></Clock>\n"	Arrow Flanker 2014-12399-1	60.016	1.0.0.100	1	-760126595	Professional	2.0.10.353	2.0.10.353	07-07-2015	7/7/2015 4:09:44 PM	12:09:44	2.0.10.248	3	1	1	1	NA	NA	NA	NA	NA	NA	NA	NA	NA	NA	NA	NA	NA	NA	NA	NA	NA	NA	NA	NA	NA	NA	NA	NA	BlockProc	BlockList	NA	4	{LEFTARROW}	NA	-100	1560	incongruent	NA	NA	NA	NA	NA	NA	NA	NA	NA	NA	NA	NA	NA	NA	NA	NA	NA	NA	NA	NA	NA	NA	TrialProc	TrialList	0	21	187965	16	0	17	186265	600	1	{LEFTARROW}	-999999	0	187365	0	{LEFTARROW}	579	187944	NA	NA	left	rrlrr.bmp	354	0	NA	0	0	0	0	NA	0	0	0	NA	0	0	0	0	NA	0	0	3	1	4
Arrow Flanker 2014	12399	1	"<?xml version=""1.0""?>\n<Clock xmlns:dt=""urn:schemas-microsoft-com:datatypes""><Description dt:dt=""string"">E-Prime Primary Realtime Clock</Description><StartTime><Timestamp dt:dt=""int"">0</Timestamp><DateUtc dt:dt=""string"">2015-07-07T16:09:44Z</DateUtc></StartTime><FrequencyChanges><FrequencyChange><Frequency dt:dt=""r8"">2825566</Frequency><Timestamp dt:dt=""r8"">8739497746991</Timestamp><Current dt:dt=""r8"">0</Current><DateUtc dt:dt=""string"">2015-07-07T16:09:44Z</DateUtc></FrequencyChange></FrequencyChanges></Clock>\n"	Arrow Flanker 2014-12399-1	60.016	1.0.0.100	1	-760126595	Professional	2.0.10.353	2.0.10.353	07-07-2015	7/7/2015 4:09:44 PM	12:09:44	2.0.10.248	3	1	1	1	NA	NA	NA	NA	NA	NA	NA	NA	NA	NA	NA	NA	NA	NA	NA	NA	NA	NA	NA	NA	NA	NA	NA	NA	BlockProc	BlockList	NA	5	{RIGHTARROW}	NA	-100	1397	congruent	NA	NA	NA	NA	NA	NA	NA	NA	NA	NA	NA	NA	NA	NA	NA	NA	NA	NA	NA	NA	NA	NA	TrialProc	TrialList	0	18	190714	16	0	17	188498	1216	1	{RIGHTARROW}	-999999	0	190214	0	{RIGHTARROW}	482	190696	NA	NA	right	rrrrr.bmp	354	0	NA	0	0	0	0	NA	0	0	0	NA	0	0	0	0	NA	0	0	2	1	5
Arrow Flanker 2014	12399	1	"<?xml version=""1.0""?>\n<Clock xmlns:dt=""urn:schemas-microsoft-com:datatypes""><Description dt:dt=""string"">E-Prime Primary Realtime Clock</Description><StartTime><Timestamp dt:dt=""int"">0</Timestamp><DateUtc dt:dt=""string"">2015-07-07T16:09:44Z</DateUtc></StartTime><FrequencyChanges><FrequencyChange><Frequency dt:dt=""r8"">2825566</Frequency><Timestamp dt:dt=""r8"">8739497746991</Timestamp><Current dt:dt=""r8"">0</Current><DateUtc dt:dt=""string"">2015-07-07T16:09:44Z</DateUtc></FrequencyChange></FrequencyChanges></Clock>\n"	Arrow Flanker 2014-12399-1	60.016	1.0.0.100	1	-760126595	Professional	2.0.10.353	2.0.10.353	07-07-2015	7/7/2015 4:09:44 PM	12:09:44	2.0.10.248	3	1	1	1	NA	NA	NA	NA	NA	NA	NA	NA	NA	NA	NA	NA	NA	NA	NA	NA	NA	NA	NA	NA	NA	NA	NA	NA	BlockProc	BlockList	NA	6	{LEFTARROW}	NA	-100	1202	congruent	NA	NA	NA	NA	NA	NA	NA	NA	NA	NA	NA	NA	NA	NA	NA	NA	NA	NA	NA	NA	NA	NA	TrialProc	TrialList	0	17	193097	16	0	17	191247	883	1	{LEFTARROW}	-999999	0	192630	0	{LEFTARROW}	450	193080	NA	NA	left	lllll.bmp	354	0	NA	0	0	0	0	NA	0	0	0	NA	0	0	0	0	NA	0	0	1	1	6
Arrow Flanker 2014	12399	1	"<?xml version=""1.0""?>\n<Clock xmlns:dt=""urn:schemas-microsoft-com:datatypes""><Description dt:dt=""string"">E-Prime Primary Realtime Clock</Description><StartTime><Timestamp dt:dt=""int"">0</Timestamp><DateUtc dt:dt=""string"">2015-07-07T16:09:44Z</DateUtc></StartTime><FrequencyChanges><FrequencyChange><Frequency dt:dt=""r8"">2825566</Frequency><Timestamp dt:dt=""r8"">8739497746991</Timestamp><Current dt:dt=""r8"">0</Current><DateUtc dt:dt=""string"">2015-07-07T16:09:44Z</DateUtc></FrequencyChange></FrequencyChanges></Clock>\n"	Arrow Flanker 2014-12399-1	60.016	1.0.0.100	1	-760126595	Professional	2.0.10.353	2.0.10.353	07-07-2015	7/7/2015 4:09:44 PM	12:09:44	2.0.10.248	3	1	1	1	NA	NA	NA	NA	NA	NA	NA	NA	NA	NA	NA	NA	NA	NA	NA	NA	NA	NA	NA	NA	NA	NA	NA	NA	BlockProc	BlockList	NA	7	{RIGHTARROW}	NA	-100	1477	congruent	NA	NA	NA	NA	NA	NA	NA	NA	NA	NA	NA	NA	NA	NA	NA	NA	NA	NA	NA	NA	NA	NA	TrialProc	TrialList	1	19	195179	17	0	17	193630	516	1	{RIGHTARROW}	-999999	0	194646	0	{RIGHTARROW}	514	195160	NA	NA	right	rrrrr.bmp	354	0	NA	0	0	0	0	NA	0	0	0	NA	0	0	0	0	NA	0	0	2	1	7
Arrow Flanker 2014	12399	1	"<?xml version=""1.0""?>\n<Clock xmlns:dt=""urn:schemas-microsoft-com:datatypes""><Description dt:dt=""string"">E-Prime Primary Realtime Clock</Description><StartTime><Timestamp dt:dt=""int"">0</Timestamp><DateUtc dt:dt=""string"">2015-07-07T16:09:44Z</DateUtc></StartTime><FrequencyChanges><FrequencyChange><Frequency dt:dt=""r8"">2825566</Frequency><Timestamp dt:dt=""r8"">8739497746991</Timestamp><Current dt:dt=""r8"">0</Current><DateUtc dt:dt=""string"">2015-07-07T16:09:44Z</DateUtc></FrequencyChange></FrequencyChanges></Clock>\n"	Arrow Flanker 2014-12399-1	60.016	1.0.0.100	1	-760126595	Professional	2.0.10.353	2.0.10.353	07-07-2015	7/7/2015 4:09:44 PM	12:09:44	2.0.10.248	3	1	1	1	NA	NA	NA	NA	NA	NA	NA	NA	NA	NA	NA	NA	NA	NA	NA	NA	NA	NA	NA	NA	NA	NA	NA	NA	BlockProc	BlockList	NA	8	{RIGHTARROW}	NA	-100	1352	neutral	NA	NA	NA	NA	NA	NA	NA	NA	NA	NA	NA	NA	NA	NA	NA	NA	NA	NA	NA	NA	NA	NA	TrialProc	TrialList	1	17	197945	17	0	16	195712	1150	1	{RIGHTARROW}	-999999	0	197362	0	{RIGHTARROW}	566	197928	NA	NA	right	ooroo.bmp	354	0	NA	0	0	0	0	NA	0	0	0	NA	0	0	0	0	NA	0	0	6	1	8
Arrow Flanker 2014	12399	1	"<?xml version=""1.0""?>\n<Clock xmlns:dt=""urn:schemas-microsoft-com:datatypes""><Description dt:dt=""string"">E-Prime Primary Realtime Clock</Description><StartTime><Timestamp dt:dt=""int"">0</Timestamp><DateUtc dt:dt=""string"">2015-07-07T16:09:44Z</DateUtc></StartTime><FrequencyChanges><FrequencyChange><Frequency dt:dt=""r8"">2825566</Frequency><Timestamp dt:dt=""r8"">8739497746991</Timestamp><Current dt:dt=""r8"">0</Current><DateUtc dt:dt=""string"">2015-07-07T16:09:44Z</DateUtc></FrequencyChange></FrequencyChanges></Clock>\n"	Arrow Flanker 2014-12399-1	60.016	1.0.0.100	1	-760126595	Professional	2.0.10.353	2.0.10.353	07-07-2015	7/7/2015 4:09:44 PM	12:09:44	2.0.10.248	3	1	1	1	NA	NA	NA	NA	NA	NA	NA	NA	NA	NA	NA	NA	NA	NA	NA	NA	NA	NA	NA	NA	NA	NA	NA	NA	BlockProc	BlockList	NA	9	{RIGHTARROW}	NA	-100	1591	neutral	NA	NA	NA	NA	NA	NA	NA	NA	NA	NA	NA	NA	NA	NA	NA	NA	NA	NA	NA	NA	NA	NA	TrialProc	TrialList	1	20	200844	17	0	16	198478	1350	1	{RIGHTARROW}	-999999	0	200328	0	{RIGHTARROW}	496	200824	NA	NA	right	ooroo.bmp	354	0	NA	0	0	0	0	NA	0	0	0	NA	0	0	0	0	NA	0	0	6	1	9
Arrow Flanker 2014	12399	1	"<?xml version=""1.0""?>\n<Clock xmlns:dt=""urn:schemas-microsoft-com:datatypes""><Description dt:dt=""string"">E-Prime Primary Realtime Clock</Description><StartTime><Timestamp dt:dt=""int"">0</Timestamp><DateUtc dt:dt=""string"">2015-07-07T16:09:44Z</DateUtc></StartTime><FrequencyChanges><FrequencyChange><Frequency dt:dt=""r8"">2825566</Frequency><Timestamp dt:dt=""r8"">8739497746991</Timestamp><Current dt:dt=""r8"">0</Current><DateUtc dt:dt=""string"">2015-07-07T16:09:44Z</DateUtc></FrequencyChange></FrequencyChanges></Clock>\n"	Arrow Flanker 2014-12399-1	60.016	1.0.0.100	1	-760126595	Professional	2.0.10.353	2.0.10.353	07-07-2015	7/7/2015 4:09:44 PM	12:09:44	2.0.10.248	3	1	1	1	NA	NA	NA	NA	NA	NA	NA	NA	NA	NA	NA	NA	NA	NA	NA	NA	NA	NA	NA	NA	NA	NA	NA	NA	BlockProc	BlockList	NA	10	{LEFTARROW}	NA	-100	1722	neutral	NA	NA	NA	NA	NA	NA	NA	NA	NA	NA	NA	NA	NA	NA	NA	NA	NA	NA	NA	NA	NA	NA	TrialProc	TrialList	0	5	203261	16	0	17	201378	883	1	{LEFTARROW}	-999999	0	202761	0	{LEFTARROW}	495	203256	NA	NA	left	ooloo.bmp	354	0	NA	0	0	0	0	NA	0	0	0	NA	0	0	0	0	NA	0	0	5	1	10
Arrow Flanker 2014	12399	1	"<?xml version=""1.0""?>\n<Clock xmlns:dt=""urn:schemas-microsoft-com:datatypes""><Description dt:dt=""string"">E-Prime Primary Realtime Clock</Description><StartTime><Timestamp dt:dt=""int"">0</Timestamp><DateUtc dt:dt=""string"">2015-07-07T16:09:44Z</DateUtc></StartTime><FrequencyChanges><FrequencyChange><Frequency dt:dt=""r8"">2825566</Frequency><Timestamp dt:dt=""r8"">8739497746991</Timestamp><Current dt:dt=""r8"">0</Current><DateUtc dt:dt=""string"">2015-07-07T16:09:44Z</DateUtc></FrequencyChange></FrequencyChanges></Clock>\n"	Arrow Flanker 2014-12399-1	60.016	1.0.0.100	1	-760126595	Professional	2.0.10.353	2.0.10.353	07-07-2015	7/7/2015 4:09:44 PM	12:09:44	2.0.10.248	3	1	1	1	NA	NA	NA	NA	NA	NA	NA	NA	NA	NA	NA	NA	NA	NA	NA	NA	NA	NA	NA	NA	NA	NA	NA	NA	BlockProc	BlockList	NA	11	{LEFTARROW}	NA	-100	1272	neutral	NA	NA	NA	NA	NA	NA	NA	NA	NA	NA	NA	NA	NA	NA	NA	NA	NA	NA	NA	NA	NA	NA	TrialProc	TrialList	0	11	205427	16	0	17	203794	633	1	{LEFTARROW}	-999999	0	204927	0	{LEFTARROW}	489	205416	NA	NA	left	ooloo.bmp	354	0	NA	0	0	0	0	NA	0	0	0	NA	0	0	0	0	NA	0	0	5	1	11
Arrow Flanker 2014	12399	1	"<?xml version=""1.0""?>\n<Clock xmlns:dt=""urn:schemas-microsoft-com:datatypes""><Description dt:dt=""string"">E-Prime Primary Realtime Clock</Description><StartTime><Timestamp dt:dt=""int"">0</Timestamp><DateUtc dt:dt=""string"">2015-07-07T16:09:44Z</DateUtc></StartTime><FrequencyChanges><FrequencyChange><Frequency dt:dt=""r8"">2825566</Frequency><Timestamp dt:dt=""r8"">8739497746991</Timestamp><Current dt:dt=""r8"">0</Current><DateUtc dt:dt=""string"">2015-07-07T16:09:44Z</DateUtc></FrequencyChange></FrequencyChanges></Clock>\n"	Arrow Flanker 2014-12399-1	60.016	1.0.0.100	1	-760126595	Professional	2.0.10.353	2.0.10.353	07-07-2015	7/7/2015 4:09:44 PM	12:09:44	2.0.10.248	3	1	1	1	NA	NA	NA	NA	NA	NA	NA	NA	NA	NA	NA	NA	NA	NA	NA	NA	NA	NA	NA	NA	NA	NA	NA	NA	BlockProc	BlockList	NA	12	{RIGHTARROW}	NA	-100	1950	incongruent	NA	NA	NA	NA	NA	NA	NA	NA	NA	NA	NA	NA	NA	NA	NA	NA	NA	NA	NA	NA	NA	NA	TrialProc	TrialList	1	5	208109	17	0	17	205960	1133	1	{RIGHTARROW}	-999999	0	207593	0	{RIGHTARROW}	510	208103	NA	NA	right	llrll.bmp	354	0	NA	0	0	0	0	NA	0	0	0	NA	0	0	0	0	NA	0	0	4	1	12
Arrow Flanker 2014	12399	1	"<?xml version=""1.0""?>\n<Clock xmlns:dt=""urn:schemas-microsoft-com:datatypes""><Description dt:dt=""string"">E-Prime Primary Realtime Clock</Description><StartTime><Timestamp dt:dt=""int"">0</Timestamp><DateUtc dt:dt=""string"">2015-07-07T16:09:44Z</DateUtc></StartTime><FrequencyChanges><FrequencyChange><Frequency dt:dt=""r8"">2825566</Frequency><Timestamp dt:dt=""r8"">8739497746991</Timestamp><Current dt:dt=""r8"">0</Current><DateUtc dt:dt=""string"">2015-07-07T16:09:44Z</DateUtc></FrequencyChange></FrequencyChanges></Clock>\n"	Arrow Flanker 2014-12399-1	60.016	1.0.0.100	1	-760126595	Professional	2.0.10.353	2.0.10.353	07-07-2015	7/7/2015 4:09:44 PM	12:09:44	2.0.10.248	3	1	1	1	NA	NA	NA	NA	NA	NA	NA	NA	NA	NA	NA	NA	NA	NA	NA	NA	NA	NA	NA	NA	NA	NA	NA	NA	BlockProc	BlockList	NA	13	{LEFTARROW}	NA	-100	1053	incongruent	NA	NA	NA	NA	NA	NA	NA	NA	NA	NA	NA	NA	NA	NA	NA	NA	NA	NA	NA	NA	NA	NA	TrialProc	TrialList	1	6	210525	17	0	16	208642	850	1	{LEFTARROW}	-999999	0	209992	0	{LEFTARROW}	527	210519	NA	NA	left	rrlrr.bmp	354	0	NA	0	0	0	0	NA	0	0	0	NA	0	0	0	0	NA	0	0	3	1	13
Arrow Flanker 2014	12399	1	"<?xml version=""1.0""?>\n<Clock xmlns:dt=""urn:schemas-microsoft-com:datatypes""><Description dt:dt=""string"">E-Prime Primary Realtime Clock</Description><StartTime><Timestamp dt:dt=""int"">0</Timestamp><DateUtc dt:dt=""string"">2015-07-07T16:09:44Z</DateUtc></StartTime><FrequencyChanges><FrequencyChange><Frequency dt:dt=""r8"">2825566</Frequency><Timestamp dt:dt=""r8"">8739497746991</Timestamp><Current dt:dt=""r8"">0</Current><DateUtc dt:dt=""string"">2015-07-07T16:09:44Z</DateUtc></FrequencyChange></FrequencyChanges></Clock>\n"	Arrow Flanker 2014-12399-1	60.016	1.0.0.100	1	-760126595	Professional	2.0.10.353	2.0.10.353	07-07-2015	7/7/2015 4:09:44 PM	12:09:44	2.0.10.248	3	1	1	1	NA	NA	NA	NA	NA	NA	NA	NA	NA	NA	NA	NA	NA	NA	NA	NA	NA	NA	NA	NA	NA	NA	NA	NA	BlockProc	BlockList	NA	14	{RIGHTARROW}	NA	-100	1708	congruent	NA	NA	NA	NA	NA	NA	NA	NA	NA	NA	NA	NA	NA	NA	NA	NA	NA	NA	NA	NA	NA	NA	TrialProc	TrialList	0	6	212525	16	0	16	211058	550	1	{RIGHTARROW}	-999999	0	212108	0	{RIGHTARROW}	411	212519	NA	NA	right	rrrrr.bmp	354	0	NA	0	0	0	0	NA	0	0	0	NA	0	0	0	0	NA	0	0	2	1	14
Arrow Flanker 2014	12399	1	"<?xml version=""1.0""?>\n<Clock xmlns:dt=""urn:schemas-microsoft-com:datatypes""><Description dt:dt=""string"">E-Prime Primary Realtime Clock</Description><StartTime><Timestamp dt:dt=""int"">0</Timestamp><DateUtc dt:dt=""string"">2015-07-07T16:09:44Z</DateUtc></StartTime><FrequencyChanges><FrequencyChange><Frequency dt:dt=""r8"">2825566</Frequency><Timestamp dt:dt=""r8"">8739497746991</Timestamp><Current dt:dt=""r8"">0</Current><DateUtc dt:dt=""string"">2015-07-07T16:09:44Z</DateUtc></FrequencyChange></FrequencyChanges></Clock>\n"	Arrow Flanker 2014-12399-1	60.016	1.0.0.100	1	-760126595	Professional	2.0.10.353	2.0.10.353	07-07-2015	7/7/2015 4:09:44 PM	12:09:44	2.0.10.248	3	1	1	1	NA	NA	NA	NA	NA	NA	NA	NA	NA	NA	NA	NA	NA	NA	NA	NA	NA	NA	NA	NA	NA	NA	NA	NA	BlockProc	BlockList	NA	15	{RIGHTARROW}	NA	-100	1269	congruent	NA	NA	NA	NA	NA	NA	NA	NA	NA	NA	NA	NA	NA	NA	NA	NA	NA	NA	NA	NA	NA	NA	TrialProc	TrialList	0	18	215241	16	0	17	213058	1166	1	{RIGHTARROW}	-999999	0	214724	0	{RIGHTARROW}	499	215223	NA	NA	right	rrrrr.bmp	354	0	NA	0	0	0	0	NA	0	0	0	NA	0	0	0	0	NA	0	0	2	1	15
Arrow Flanker 2014	12399	1	"<?xml version=""1.0""?>\n<Clock xmlns:dt=""urn:schemas-microsoft-com:datatypes""><Description dt:dt=""string"">E-Prime Primary Realtime Clock</Description><StartTime><Timestamp dt:dt=""int"">0</Timestamp><DateUtc dt:dt=""string"">2015-07-07T16:09:44Z</DateUtc></StartTime><FrequencyChanges><FrequencyChange><Frequency dt:dt=""r8"">2825566</Frequency><Timestamp dt:dt=""r8"">8739497746991</Timestamp><Current dt:dt=""r8"">0</Current><DateUtc dt:dt=""string"">2015-07-07T16:09:44Z</DateUtc></FrequencyChange></FrequencyChanges></Clock>\n"	Arrow Flanker 2014-12399-1	60.016	1.0.0.100	1	-760126595	Professional	2.0.10.353	2.0.10.353	07-07-2015	7/7/2015 4:09:44 PM	12:09:44	2.0.10.248	3	1	1	1	NA	NA	NA	NA	NA	NA	NA	NA	NA	NA	NA	NA	NA	NA	NA	NA	NA	NA	NA	NA	NA	NA	NA	NA	BlockProc	BlockList	NA	16	{RIGHTARROW}	NA	-100	914	congruent	NA	NA	NA	NA	NA	NA	NA	NA	NA	NA	NA	NA	NA	NA	NA	NA	NA	NA	NA	NA	NA	NA	TrialProc	TrialList	0	9	217440	17	0	17	215774	633	1	{RIGHTARROW}	-999999	0	216907	0	{RIGHTARROW}	524	217431	NA	NA	right	rrrrr.bmp	354	0	NA	0	0	0	0	NA	0	0	0	NA	0	0	0	0	NA	0	0	2	1	16
Arrow Flanker 2014	12399	1	"<?xml version=""1.0""?>\n<Clock xmlns:dt=""urn:schemas-microsoft-com:datatypes""><Description dt:dt=""string"">E-Prime Primary Realtime Clock</Description><StartTime><Timestamp dt:dt=""int"">0</Timestamp><DateUtc dt:dt=""string"">2015-07-07T16:09:44Z</DateUtc></StartTime><FrequencyChanges><FrequencyChange><Frequency dt:dt=""r8"">2825566</Frequency><Timestamp dt:dt=""r8"">8739497746991</Timestamp><Current dt:dt=""r8"">0</Current><DateUtc dt:dt=""string"">2015-07-07T16:09:44Z</DateUtc></FrequencyChange></FrequencyChanges></Clock>\n"	Arrow Flanker 2014-12399-1	60.016	1.0.0.100	1	-760126595	Professional	2.0.10.353	2.0.10.353	07-07-2015	7/7/2015 4:09:44 PM	12:09:44	2.0.10.248	3	1	1	1	NA	NA	NA	NA	NA	NA	NA	NA	NA	NA	NA	NA	NA	NA	NA	NA	NA	NA	NA	NA	NA	NA	NA	NA	BlockProc	BlockList	NA	17	{RIGHTARROW}	NA	-100	2070	neutral	NA	NA	NA	NA	NA	NA	NA	NA	NA	NA	NA	NA	NA	NA	NA	NA	NA	NA	NA	NA	NA	NA	TrialProc	TrialList	1	14	220389	17	0	16	217973	1383	1	{RIGHTARROW}	-999999	0	219856	0	{RIGHTARROW}	519	220375	NA	NA	right	ooroo.bmp	354	0	NA	0	0	0	0	NA	0	0	0	NA	0	0	0	0	NA	0	0	6	1	17
Arrow Flanker 2014	12399	1	"<?xml version=""1.0""?>\n<Clock xmlns:dt=""urn:schemas-microsoft-com:datatypes""><Description dt:dt=""string"">E-Prime Primary Realtime Clock</Description><StartTime><Timestamp dt:dt=""int"">0</Timestamp><DateUtc dt:dt=""string"">2015-07-07T16:09:44Z</DateUtc></StartTime><FrequencyChanges><FrequencyChange><Frequency dt:dt=""r8"">2825566</Frequency><Timestamp dt:dt=""r8"">8739497746991</Timestamp><Current dt:dt=""r8"">0</Current><DateUtc dt:dt=""string"">2015-07-07T16:09:44Z</DateUtc></FrequencyChange></FrequencyChanges></Clock>\n"	Arrow Flanker 2014-12399-1	60.016	1.0.0.100	1	-760126595	Professional	2.0.10.353	2.0.10.353	07-07-2015	7/7/2015 4:09:44 PM	12:09:44	2.0.10.248	3	1	1	1	NA	NA	NA	NA	NA	NA	NA	NA	NA	NA	NA	NA	NA	NA	NA	NA	NA	NA	NA	NA	NA	NA	NA	NA	BlockProc	BlockList	NA	18	{RIGHTARROW}	NA	-100	1181	incongruent	NA	NA	NA	NA	NA	NA	NA	NA	NA	NA	NA	NA	NA	NA	NA	NA	NA	NA	NA	NA	NA	NA	TrialProc	TrialList	0	6	222989	16	0	17	220923	933	1	{RIGHTARROW}	-999999	0	222356	0	{RIGHTARROW}	627	222983	NA	NA	right	llrll.bmp	354	0	NA	0	0	0	0	NA	0	0	0	NA	0	0	0	0	NA	0	0	4	1	18
Arrow Flanker 2014	12399	1	"<?xml version=""1.0""?>\n<Clock xmlns:dt=""urn:schemas-microsoft-com:datatypes""><Description dt:dt=""string"">E-Prime Primary Realtime Clock</Description><StartTime><Timestamp dt:dt=""int"">0</Timestamp><DateUtc dt:dt=""string"">2015-07-07T16:09:44Z</DateUtc></StartTime><FrequencyChanges><FrequencyChange><Frequency dt:dt=""r8"">2825566</Frequency><Timestamp dt:dt=""r8"">8739497746991</Timestamp><Current dt:dt=""r8"">0</Current><DateUtc dt:dt=""string"">2015-07-07T16:09:44Z</DateUtc></FrequencyChange></FrequencyChanges></Clock>\n"	Arrow Flanker 2014-12399-1	60.016	1.0.0.100	1	-760126595	Professional	2.0.10.353	2.0.10.353	07-07-2015	7/7/2015 4:09:44 PM	12:09:44	2.0.10.248	3	1	1	1	NA	NA	NA	NA	NA	NA	NA	NA	NA	NA	NA	NA	NA	NA	NA	NA	NA	NA	NA	NA	NA	NA	NA	NA	BlockProc	BlockList	NA	19	{RIGHTARROW}	NA	-100	2053	congruent	NA	NA	NA	NA	NA	NA	NA	NA	NA	NA	NA	NA	NA	NA	NA	NA	NA	NA	NA	NA	NA	NA	TrialProc	TrialList	1	20	225371	17	0	17	223522	866	1	{RIGHTARROW}	-999999	0	224888	0	{RIGHTARROW}	463	225351	NA	NA	right	rrrrr.bmp	354	0	NA	0	0	0	0	NA	0	0	0	NA	0	0	0	0	NA	0	0	2	1	19
Arrow Flanker 2014	12399	1	"<?xml version=""1.0""?>\n<Clock xmlns:dt=""urn:schemas-microsoft-com:datatypes""><Description dt:dt=""string"">E-Prime Primary Realtime Clock</Description><StartTime><Timestamp dt:dt=""int"">0</Timestamp><DateUtc dt:dt=""string"">2015-07-07T16:09:44Z</DateUtc></StartTime><FrequencyChanges><FrequencyChange><Frequency dt:dt=""r8"">2825566</Frequency><Timestamp dt:dt=""r8"">8739497746991</Timestamp><Current dt:dt=""r8"">0</Current><DateUtc dt:dt=""string"">2015-07-07T16:09:44Z</DateUtc></FrequencyChange></FrequencyChanges></Clock>\n"	Arrow Flanker 2014-12399-1	60.016	1.0.0.100	1	-760126595	Professional	2.0.10.353	2.0.10.353	07-07-2015	7/7/2015 4:09:44 PM	12:09:44	2.0.10.248	3	1	1	1	NA	NA	NA	NA	NA	NA	NA	NA	NA	NA	NA	NA	NA	NA	NA	NA	NA	NA	NA	NA	NA	NA	NA	NA	BlockProc	BlockList	NA	20	{LEFTARROW}	NA	-100	1764	incongruent	NA	NA	NA	NA	NA	NA	NA	NA	NA	NA	NA	NA	NA	NA	NA	NA	NA	NA	NA	NA	NA	NA	TrialProc	TrialList	1	14	227637	17	0	17	225905	683	1	{LEFTARROW}	-999999	0	227088	0	{LEFTARROW}	535	227623	NA	NA	left	rrlrr.bmp	354	0	NA	0	0	0	0	NA	0	0	0	NA	0	0	0	0	NA	0	0	3	1	20
Arrow Flanker 2014	12399	1	"<?xml version=""1.0""?>\n<Clock xmlns:dt=""urn:schemas-microsoft-com:datatypes""><Description dt:dt=""string"">E-Prime Primary Realtime Clock</Description><StartTime><Timestamp dt:dt=""int"">0</Timestamp><DateUtc dt:dt=""string"">2015-07-07T16:09:44Z</DateUtc></StartTime><FrequencyChanges><FrequencyChange><Frequency dt:dt=""r8"">2825566</Frequency><Timestamp dt:dt=""r8"">8739497746991</Timestamp><Current dt:dt=""r8"">0</Current><DateUtc dt:dt=""string"">2015-07-07T16:09:44Z</DateUtc></FrequencyChange></FrequencyChanges></Clock>\n"	Arrow Flanker 2014-12399-1	60.016	1.0.0.100	1	-760126595	Professional	2.0.10.353	2.0.10.353	07-07-2015	7/7/2015 4:09:44 PM	12:09:44	2.0.10.248	3	1	1	1	NA	NA	NA	NA	NA	NA	NA	NA	NA	NA	NA	NA	NA	NA	NA	NA	NA	NA	NA	NA	NA	NA	NA	NA	BlockProc	BlockList	NA	21	{RIGHTARROW}	NA	-100	1600	incongruent	NA	NA	NA	NA	NA	NA	NA	NA	NA	NA	NA	NA	NA	NA	NA	NA	NA	NA	NA	NA	NA	NA	TrialProc	TrialList	0	18	230537	16	0	17	228171	1349	1	{RIGHTARROW}	-999999	0	230020	0	{RIGHTARROW}	499	230519	NA	NA	right	llrll.bmp	354	0	NA	0	0	0	0	NA	0	0	0	NA	0	0	0	0	NA	0	0	4	1	21
Arrow Flanker 2014	12399	1	"<?xml version=""1.0""?>\n<Clock xmlns:dt=""urn:schemas-microsoft-com:datatypes""><Description dt:dt=""string"">E-Prime Primary Realtime Clock</Description><StartTime><Timestamp dt:dt=""int"">0</Timestamp><DateUtc dt:dt=""string"">2015-07-07T16:09:44Z</DateUtc></StartTime><FrequencyChanges><FrequencyChange><Frequency dt:dt=""r8"">2825566</Frequency><Timestamp dt:dt=""r8"">8739497746991</Timestamp><Current dt:dt=""r8"">0</Current><DateUtc dt:dt=""string"">2015-07-07T16:09:44Z</DateUtc></FrequencyChange></FrequencyChanges></Clock>\n"	Arrow Flanker 2014-12399-1	60.016	1.0.0.100	1	-760126595	Professional	2.0.10.353	2.0.10.353	07-07-2015	7/7/2015 4:09:44 PM	12:09:44	2.0.10.248	3	1	1	1	NA	NA	NA	NA	NA	NA	NA	NA	NA	NA	NA	NA	NA	NA	NA	NA	NA	NA	NA	NA	NA	NA	NA	NA	BlockProc	BlockList	NA	22	{RIGHTARROW}	NA	-100	673	incongruent	NA	NA	NA	NA	NA	NA	NA	NA	NA	NA	NA	NA	NA	NA	NA	NA	NA	NA	NA	NA	1	NA	TrialProc	TrialList	0	7	232686	17	0	17	231070	616	1	{RIGHTARROW}	-999999	0	232186	0	{RIGHTARROW}	493	232679	NA	NA	right	llrll.bmp	354	0	NA	-999999	16	233219	0	1	5804	239023	0	NA	0	0	0	0	NA	0	0	4	1	22
Arrow Flanker 2014	12399	1	"<?xml version=""1.0""?>\n<Clock xmlns:dt=""urn:schemas-microsoft-com:datatypes""><Description dt:dt=""string"">E-Prime Primary Realtime Clock</Description><StartTime><Timestamp dt:dt=""int"">0</Timestamp><DateUtc dt:dt=""string"">2015-07-07T16:09:44Z</DateUtc></StartTime><FrequencyChanges><FrequencyChange><Frequency dt:dt=""r8"">2825566</Frequency><Timestamp dt:dt=""r8"">8739497746991</Timestamp><Current dt:dt=""r8"">0</Current><DateUtc dt:dt=""string"">2015-07-07T16:09:44Z</DateUtc></FrequencyChange></FrequencyChanges></Clock>\n"	Arrow Flanker 2014-12399-1	60.016	1.0.0.100	1	-760126595	Professional	2.0.10.353	2.0.10.353	07-07-2015	7/7/2015 4:09:44 PM	12:09:44	2.0.10.248	3	1	1	1	NA	NA	NA	NA	NA	NA	NA	NA	NA	NA	NA	NA	NA	NA	NA	NA	NA	NA	NA	NA	NA	NA	NA	NA	BlockProc	BlockList	NA	23	{LEFTARROW}	NA	-100	1861	congruent	NA	NA	NA	NA	NA	NA	NA	NA	NA	NA	NA	NA	NA	NA	NA	NA	NA	NA	NA	NA	NA	NA	TrialProc	TrialList	0	15	242534	16	0	24	240351	899	1	{LEFTARROW}	-999999	0	241750	0	{LEFTARROW}	768	242518	NA	NA	left	lllll.bmp	354	0	NA	0	0	0	0	NA	0	0	0	NA	0	0	0	0	NA	0	0	1	1	23
Arrow Flanker 2014	12399	1	"<?xml version=""1.0""?>\n<Clock xmlns:dt=""urn:schemas-microsoft-com:datatypes""><Description dt:dt=""string"">E-Prime Primary Realtime Clock</Description><StartTime><Timestamp dt:dt=""int"">0</Timestamp><DateUtc dt:dt=""string"">2015-07-07T16:09:44Z</DateUtc></StartTime><FrequencyChanges><FrequencyChange><Frequency dt:dt=""r8"">2825566</Frequency><Timestamp dt:dt=""r8"">8739497746991</Timestamp><Current dt:dt=""r8"">0</Current><DateUtc dt:dt=""string"">2015-07-07T16:09:44Z</DateUtc></FrequencyChange></FrequencyChanges></Clock>\n"	Arrow Flanker 2014-12399-1	60.016	1.0.0.100	1	-760126595	Professional	2.0.10.353	2.0.10.353	07-07-2015	7/7/2015 4:09:44 PM	12:09:44	2.0.10.248	3	1	1	1	NA	NA	NA	NA	NA	NA	NA	NA	NA	NA	NA	NA	NA	NA	NA	NA	NA	NA	NA	NA	NA	NA	NA	NA	BlockProc	BlockList	NA	24	{LEFTARROW}	NA	-100	2083	neutral	NA	NA	NA	NA	NA	NA	NA	NA	NA	NA	NA	NA	NA	NA	NA	NA	NA	NA	NA	NA	NA	NA	TrialProc	TrialList	0	20	245483	16	0	17	243067	1366	1	{LEFTARROW}	-999999	0	244933	0	{LEFTARROW}	529	245462	NA	NA	left	ooloo.bmp	354	0	NA	0	0	0	0	NA	0	0	0	NA	0	0	0	0	NA	0	0	5	1	24
Arrow Flanker 2014	12399	1	"<?xml version=""1.0""?>\n<Clock xmlns:dt=""urn:schemas-microsoft-com:datatypes""><Description dt:dt=""string"">E-Prime Primary Realtime Clock</Description><StartTime><Timestamp dt:dt=""int"">0</Timestamp><DateUtc dt:dt=""string"">2015-07-07T16:09:44Z</DateUtc></StartTime><FrequencyChanges><FrequencyChange><Frequency dt:dt=""r8"">2825566</Frequency><Timestamp dt:dt=""r8"">8739497746991</Timestamp><Current dt:dt=""r8"">0</Current><DateUtc dt:dt=""string"">2015-07-07T16:09:44Z</DateUtc></FrequencyChange></FrequencyChanges></Clock>\n"	Arrow Flanker 2014-12399-1	60.016	1.0.0.100	1	-760126595	Professional	2.0.10.353	2.0.10.353	07-07-2015	7/7/2015 4:09:44 PM	12:09:44	2.0.10.248	3	1	1	1	NA	NA	NA	NA	NA	NA	NA	NA	NA	NA	NA	NA	NA	NA	NA	NA	NA	NA	NA	NA	NA	NA	NA	NA	BlockProc	BlockList	NA	25	{RIGHTARROW}	NA	-100	838	congruent	NA	NA	NA	NA	NA	NA	NA	NA	NA	NA	NA	NA	NA	NA	NA	NA	NA	NA	NA	NA	NA	NA	TrialProc	TrialList	0	5	247516	16	0	17	246016	550	1	{RIGHTARROW}	-999999	0	247066	0	{RIGHTARROW}	444	247510	NA	NA	right	rrrrr.bmp	354	0	NA	0	0	0	0	NA	0	0	0	NA	0	0	0	0	NA	0	0	2	1	25
Arrow Flanker 2014	12399	1	"<?xml version=""1.0""?>\n<Clock xmlns:dt=""urn:schemas-microsoft-com:datatypes""><Description dt:dt=""string"">E-Prime Primary Realtime Clock</Description><StartTime><Timestamp dt:dt=""int"">0</Timestamp><DateUtc dt:dt=""string"">2015-07-07T16:09:44Z</DateUtc></StartTime><FrequencyChanges><FrequencyChange><Frequency dt:dt=""r8"">2825566</Frequency><Timestamp dt:dt=""r8"">8739497746991</Timestamp><Current dt:dt=""r8"">0</Current><DateUtc dt:dt=""string"">2015-07-07T16:09:44Z</DateUtc></FrequencyChange></FrequencyChanges></Clock>\n"	Arrow Flanker 2014-12399-1	60.016	1.0.0.100	1	-760126595	Professional	2.0.10.353	2.0.10.353	07-07-2015	7/7/2015 4:09:44 PM	12:09:44	2.0.10.248	3	1	1	1	NA	NA	NA	NA	NA	NA	NA	NA	NA	NA	NA	NA	NA	NA	NA	NA	NA	NA	NA	NA	NA	NA	NA	NA	BlockProc	BlockList	NA	26	{LEFTARROW}	NA	-100	1366	incongruent	NA	NA	NA	NA	NA	NA	NA	NA	NA	NA	NA	NA	NA	NA	NA	NA	NA	NA	NA	NA	NA	NA	TrialProc	TrialList	0	17	250215	16	0	17	248049	0	1	{LEFTARROW}	-999999	0	249632	0	{LEFTARROW}	566	250198	NA	NA	left	rrlrr.bmp	354	0	NA	0	0	0	0	NA	0	0	0	NA	0	0	0	0	NA	0	0	3	1	26
Arrow Flanker 2014	12399	1	"<?xml version=""1.0""?>\n<Clock xmlns:dt=""urn:schemas-microsoft-com:datatypes""><Description dt:dt=""string"">E-Prime Primary Realtime Clock</Description><StartTime><Timestamp dt:dt=""int"">0</Timestamp><DateUtc dt:dt=""string"">2015-07-07T16:09:44Z</DateUtc></StartTime><FrequencyChanges><FrequencyChange><Frequency dt:dt=""r8"">2825566</Frequency><Timestamp dt:dt=""r8"">8739497746991</Timestamp><Current dt:dt=""r8"">0</Current><DateUtc dt:dt=""string"">2015-07-07T16:09:44Z</DateUtc></FrequencyChange></FrequencyChanges></Clock>\n"	Arrow Flanker 2014-12399-1	60.016	1.0.0.100	1	-760126595	Professional	2.0.10.353	2.0.10.353	07-07-2015	7/7/2015 4:09:44 PM	12:09:44	2.0.10.248	3	1	1	1	NA	NA	NA	NA	NA	NA	NA	NA	NA	NA	NA	NA	NA	NA	NA	NA	NA	NA	NA	NA	NA	NA	NA	NA	BlockProc	BlockList	NA	27	{LEFTARROW}	NA	-100	1392	neutral	NA	NA	NA	NA	NA	NA	NA	NA	NA	NA	NA	NA	NA	NA	NA	NA	NA	NA	NA	NA	NA	NA	TrialProc	TrialList	1	9	252447	17	0	17	250748	0	1	{LEFTARROW}	-999999	0	251981	0	{LEFTARROW}	457	252438	NA	NA	left	ooloo.bmp	354	0	NA	0	0	0	0	NA	0	0	0	NA	0	0	0	0	NA	0	0	5	1	27
Arrow Flanker 2014	12399	1	"<?xml version=""1.0""?>\n<Clock xmlns:dt=""urn:schemas-microsoft-com:datatypes""><Description dt:dt=""string"">E-Prime Primary Realtime Clock</Description><StartTime><Timestamp dt:dt=""int"">0</Timestamp><DateUtc dt:dt=""string"">2015-07-07T16:09:44Z</DateUtc></StartTime><FrequencyChanges><FrequencyChange><Frequency dt:dt=""r8"">2825566</Frequency><Timestamp dt:dt=""r8"">8739497746991</Timestamp><Current dt:dt=""r8"">0</Current><DateUtc dt:dt=""string"">2015-07-07T16:09:44Z</DateUtc></FrequencyChange></FrequencyChanges></Clock>\n"	Arrow Flanker 2014-12399-1	60.016	1.0.0.100	1	-760126595	Professional	2.0.10.353	2.0.10.353	07-07-2015	7/7/2015 4:09:44 PM	12:09:44	2.0.10.248	3	1	1	1	NA	NA	NA	NA	NA	NA	NA	NA	NA	NA	NA	NA	NA	NA	NA	NA	NA	NA	NA	NA	NA	NA	NA	NA	BlockProc	BlockList	NA	28	{LEFTARROW}	NA	-100	1945	incongruent	NA	NA	NA	NA	NA	NA	NA	NA	NA	NA	NA	NA	NA	NA	NA	NA	NA	NA	NA	NA	NA	NA	TrialProc	TrialList	0	15	254997	17	0	17	252981	0	1	{LEFTARROW}	-999999	0	254480	0	{LEFTARROW}	502	254982	NA	NA	left	rrlrr.bmp	354	0	NA	0	0	0	0	NA	0	0	0	NA	0	0	0	0	NA	0	0	3	1	28
Arrow Flanker 2014	12399	1	"<?xml version=""1.0""?>\n<Clock xmlns:dt=""urn:schemas-microsoft-com:datatypes""><Description dt:dt=""string"">E-Prime Primary Realtime Clock</Description><StartTime><Timestamp dt:dt=""int"">0</Timestamp><DateUtc dt:dt=""string"">2015-07-07T16:09:44Z</DateUtc></StartTime><FrequencyChanges><FrequencyChange><Frequency dt:dt=""r8"">2825566</Frequency><Timestamp dt:dt=""r8"">8739497746991</Timestamp><Current dt:dt=""r8"">0</Current><DateUtc dt:dt=""string"">2015-07-07T16:09:44Z</DateUtc></FrequencyChange></FrequencyChanges></Clock>\n"	Arrow Flanker 2014-12399-1	60.016	1.0.0.100	1	-760126595	Professional	2.0.10.353	2.0.10.353	07-07-2015	7/7/2015 4:09:44 PM	12:09:44	2.0.10.248	3	1	1	1	NA	NA	NA	NA	NA	NA	NA	NA	NA	NA	NA	NA	NA	NA	NA	NA	NA	NA	NA	NA	NA	NA	NA	NA	BlockProc	BlockList	NA	29	{LEFTARROW}	NA	-100	1649	neutral	NA	NA	NA	NA	NA	NA	NA	NA	NA	NA	NA	NA	NA	NA	NA	NA	NA	NA	NA	NA	NA	NA	TrialProc	TrialList	0	17	257463	16	0	16	255530	0	1	{LEFTARROW}	-999999	0	256996	0	{LEFTARROW}	450	257446	NA	NA	left	ooloo.bmp	354	0	NA	0	0	0	0	NA	0	0	0	NA	0	0	0	0	NA	0	0	5	1	29
Arrow Flanker 2014	12399	1	"<?xml version=""1.0""?>\n<Clock xmlns:dt=""urn:schemas-microsoft-com:datatypes""><Description dt:dt=""string"">E-Prime Primary Realtime Clock</Description><StartTime><Timestamp dt:dt=""int"">0</Timestamp><DateUtc dt:dt=""string"">2015-07-07T16:09:44Z</DateUtc></StartTime><FrequencyChanges><FrequencyChange><Frequency dt:dt=""r8"">2825566</Frequency><Timestamp dt:dt=""r8"">8739497746991</Timestamp><Current dt:dt=""r8"">0</Current><DateUtc dt:dt=""string"">2015-07-07T16:09:44Z</DateUtc></FrequencyChange></FrequencyChanges></Clock>\n"	Arrow Flanker 2014-12399-1	60.016	1.0.0.100	1	-760126595	Professional	2.0.10.353	2.0.10.353	07-07-2015	7/7/2015 4:09:44 PM	12:09:44	2.0.10.248	3	1	1	1	NA	NA	NA	NA	NA	NA	NA	NA	NA	NA	NA	NA	NA	NA	NA	NA	NA	NA	NA	NA	NA	NA	NA	NA	BlockProc	BlockList	NA	30	{RIGHTARROW}	NA	-100	1640	neutral	NA	NA	NA	NA	NA	NA	NA	NA	NA	NA	NA	NA	NA	NA	NA	NA	NA	NA	NA	NA	NA	NA	TrialProc	TrialList	0	18	259912	17	0	17	257996	0	1	{RIGHTARROW}	-999999	0	259479	0	{RIGHTARROW}	415	259894	NA	NA	right	ooroo.bmp	354	0	NA	0	0	0	0	NA	0	0	0	NA	0	0	0	0	NA	0	0	6	1	30
Arrow Flanker 2014	12399	1	"<?xml version=""1.0""?>\n<Clock xmlns:dt=""urn:schemas-microsoft-com:datatypes""><Description dt:dt=""string"">E-Prime Primary Realtime Clock</Description><StartTime><Timestamp dt:dt=""int"">0</Timestamp><DateUtc dt:dt=""string"">2015-07-07T16:09:44Z</DateUtc></StartTime><FrequencyChanges><FrequencyChange><Frequency dt:dt=""r8"">2825566</Frequency><Timestamp dt:dt=""r8"">8739497746991</Timestamp><Current dt:dt=""r8"">0</Current><DateUtc dt:dt=""string"">2015-07-07T16:09:44Z</DateUtc></FrequencyChange></FrequencyChanges></Clock>\n"	Arrow Flanker 2014-12399-1	60.016	1.0.0.100	1	-760126595	Professional	2.0.10.353	2.0.10.353	07-07-2015	7/7/2015 4:09:44 PM	12:09:44	2.0.10.248	3	1	1	1	NA	NA	NA	NA	NA	NA	NA	NA	NA	NA	NA	NA	NA	NA	NA	NA	NA	NA	NA	NA	NA	NA	NA	NA	BlockProc	BlockList	NA	31	{RIGHTARROW}	NA	-100	1184	congruent	NA	NA	NA	NA	NA	NA	NA	NA	NA	NA	NA	NA	NA	NA	NA	NA	NA	NA	NA	NA	NA	NA	TrialProc	TrialList	1	6	262428	17	0	16	260445	0	1	{RIGHTARROW}	-999999	0	261945	0	{RIGHTARROW}	477	262422	NA	NA	right	rrrrr.bmp	354	0	NA	0	0	0	0	NA	0	0	0	NA	0	0	0	0	NA	0	0	2	1	31
Arrow Flanker 2014	12399	1	"<?xml version=""1.0""?>\n<Clock xmlns:dt=""urn:schemas-microsoft-com:datatypes""><Description dt:dt=""string"">E-Prime Primary Realtime Clock</Description><StartTime><Timestamp dt:dt=""int"">0</Timestamp><DateUtc dt:dt=""string"">2015-07-07T16:09:44Z</DateUtc></StartTime><FrequencyChanges><FrequencyChange><Frequency dt:dt=""r8"">2825566</Frequency><Timestamp dt:dt=""r8"">8739497746991</Timestamp><Current dt:dt=""r8"">0</Current><DateUtc dt:dt=""string"">2015-07-07T16:09:44Z</DateUtc></FrequencyChange></FrequencyChanges></Clock>\n"	Arrow Flanker 2014-12399-1	60.016	1.0.0.100	1	-760126595	Professional	2.0.10.353	2.0.10.353	07-07-2015	7/7/2015 4:09:44 PM	12:09:44	2.0.10.248	3	1	1	1	NA	NA	NA	NA	NA	NA	NA	NA	NA	NA	NA	NA	NA	NA	NA	NA	NA	NA	NA	NA	NA	NA	NA	NA	BlockProc	BlockList	NA	32	{RIGHTARROW}	NA	-100	1674	neutral	NA	NA	NA	NA	NA	NA	NA	NA	NA	NA	NA	NA	NA	NA	NA	NA	NA	NA	NA	NA	NA	NA	TrialProc	TrialList	1	5	264811	17	0	16	262961	0	1	{RIGHTARROW}	-999999	0	264361	0	{RIGHTARROW}	445	264806	NA	NA	right	ooroo.bmp	354	0	NA	0	0	0	0	NA	0	0	0	NA	0	0	0	0	NA	0	0	6	1	32
Arrow Flanker 2014	12399	1	"<?xml version=""1.0""?>\n<Clock xmlns:dt=""urn:schemas-microsoft-com:datatypes""><Description dt:dt=""string"">E-Prime Primary Realtime Clock</Description><StartTime><Timestamp dt:dt=""int"">0</Timestamp><DateUtc dt:dt=""string"">2015-07-07T16:09:44Z</DateUtc></StartTime><FrequencyChanges><FrequencyChange><Frequency dt:dt=""r8"">2825566</Frequency><Timestamp dt:dt=""r8"">8739497746991</Timestamp><Current dt:dt=""r8"">0</Current><DateUtc dt:dt=""string"">2015-07-07T16:09:44Z</DateUtc></FrequencyChange></FrequencyChanges></Clock>\n"	Arrow Flanker 2014-12399-1	60.016	1.0.0.100	1	-760126595	Professional	2.0.10.353	2.0.10.353	07-07-2015	7/7/2015 4:09:44 PM	12:09:44	2.0.10.248	3	1	1	1	NA	NA	NA	NA	NA	NA	NA	NA	NA	NA	NA	NA	NA	NA	NA	NA	NA	NA	NA	NA	NA	NA	NA	NA	BlockProc	BlockList	NA	33	{RIGHTARROW}	NA	-100	2069	incongruent	NA	NA	NA	NA	NA	NA	NA	NA	NA	NA	NA	NA	NA	NA	NA	NA	NA	NA	NA	NA	NA	NA	TrialProc	TrialList	0	14	267444	16	0	16	265344	0	1	{RIGHTARROW}	-999999	0	266977	0	{RIGHTARROW}	453	267430	NA	NA	right	llrll.bmp	354	0	NA	0	0	0	0	NA	0	0	0	NA	0	0	0	0	NA	0	0	4	1	33
Arrow Flanker 2014	12399	1	"<?xml version=""1.0""?>\n<Clock xmlns:dt=""urn:schemas-microsoft-com:datatypes""><Description dt:dt=""string"">E-Prime Primary Realtime Clock</Description><StartTime><Timestamp dt:dt=""int"">0</Timestamp><DateUtc dt:dt=""string"">2015-07-07T16:09:44Z</DateUtc></StartTime><FrequencyChanges><FrequencyChange><Frequency dt:dt=""r8"">2825566</Frequency><Timestamp dt:dt=""r8"">8739497746991</Timestamp><Current dt:dt=""r8"">0</Current><DateUtc dt:dt=""string"">2015-07-07T16:09:44Z</DateUtc></FrequencyChange></FrequencyChanges></Clock>\n"	Arrow Flanker 2014-12399-1	60.016	1.0.0.100	1	-760126595	Professional	2.0.10.353	2.0.10.353	07-07-2015	7/7/2015 4:09:44 PM	12:09:44	2.0.10.248	3	1	1	1	NA	NA	NA	NA	NA	NA	NA	NA	NA	NA	NA	NA	NA	NA	NA	NA	NA	NA	NA	NA	NA	NA	NA	NA	BlockProc	BlockList	NA	34	{LEFTARROW}	NA	-100	1957	neutral	NA	NA	NA	NA	NA	NA	NA	NA	NA	NA	NA	NA	NA	NA	NA	NA	NA	NA	NA	NA	NA	NA	TrialProc	TrialList	0	17	269943	17	0	17	267977	0	1	{LEFTARROW}	-999999	0	269460	0	{LEFTARROW}	466	269926	NA	NA	left	ooloo.bmp	354	0	NA	0	0	0	0	NA	0	0	0	NA	0	0	0	0	NA	0	0	5	1	34
Arrow Flanker 2014	12399	1	"<?xml version=""1.0""?>\n<Clock xmlns:dt=""urn:schemas-microsoft-com:datatypes""><Description dt:dt=""string"">E-Prime Primary Realtime Clock</Description><StartTime><Timestamp dt:dt=""int"">0</Timestamp><DateUtc dt:dt=""string"">2015-07-07T16:09:44Z</DateUtc></StartTime><FrequencyChanges><FrequencyChange><Frequency dt:dt=""r8"">2825566</Frequency><Timestamp dt:dt=""r8"">8739497746991</Timestamp><Current dt:dt=""r8"">0</Current><DateUtc dt:dt=""string"">2015-07-07T16:09:44Z</DateUtc></FrequencyChange></FrequencyChanges></Clock>\n"	Arrow Flanker 2014-12399-1	60.016	1.0.0.100	1	-760126595	Professional	2.0.10.353	2.0.10.353	07-07-2015	7/7/2015 4:09:44 PM	12:09:44	2.0.10.248	3	1	1	1	NA	NA	NA	NA	NA	NA	NA	NA	NA	NA	NA	NA	NA	NA	NA	NA	NA	NA	NA	NA	NA	NA	NA	NA	BlockProc	BlockList	NA	35	{LEFTARROW}	NA	-100	1789	neutral	NA	NA	NA	NA	NA	NA	NA	NA	NA	NA	NA	NA	NA	NA	NA	NA	NA	NA	NA	NA	NA	NA	TrialProc	TrialList	1	11	273025	17	0	16	270476	0	1	{LEFTARROW}	-999999	0	272542	0	{LEFTARROW}	472	273014	NA	NA	left	ooloo.bmp	354	0	NA	0	0	0	0	NA	0	0	0	NA	0	0	0	0	NA	0	0	5	1	35
Arrow Flanker 2014	12399	1	"<?xml version=""1.0""?>\n<Clock xmlns:dt=""urn:schemas-microsoft-com:datatypes""><Description dt:dt=""string"">E-Prime Primary Realtime Clock</Description><StartTime><Timestamp dt:dt=""int"">0</Timestamp><DateUtc dt:dt=""string"">2015-07-07T16:09:44Z</DateUtc></StartTime><FrequencyChanges><FrequencyChange><Frequency dt:dt=""r8"">2825566</Frequency><Timestamp dt:dt=""r8"">8739497746991</Timestamp><Current dt:dt=""r8"">0</Current><DateUtc dt:dt=""string"">2015-07-07T16:09:44Z</DateUtc></FrequencyChange></FrequencyChanges></Clock>\n"	Arrow Flanker 2014-12399-1	60.016	1.0.0.100	1	-760126595	Professional	2.0.10.353	2.0.10.353	07-07-2015	7/7/2015 4:09:44 PM	12:09:44	2.0.10.248	3	1	1	1	NA	NA	NA	NA	NA	NA	NA	NA	NA	NA	NA	NA	NA	NA	NA	NA	NA	NA	NA	NA	NA	NA	NA	NA	BlockProc	BlockList	NA	36	{LEFTARROW}	NA	-100	1781	congruent	NA	NA	NA	NA	NA	NA	NA	NA	NA	NA	NA	NA	NA	NA	NA	NA	NA	NA	NA	NA	NA	NA	TrialProc	TrialList	0	21	275675	16	0	17	273559	0	1	{LEFTARROW}	-999999	0	275175	0	{LEFTARROW}	479	275654	NA	NA	left	lllll.bmp	354	0	NA	0	0	0	0	NA	0	0	0	NA	0	0	0	0	NA	0	0	1	1	36
Arrow Flanker 2014	12399	1	"<?xml version=""1.0""?>\n<Clock xmlns:dt=""urn:schemas-microsoft-com:datatypes""><Description dt:dt=""string"">E-Prime Primary Realtime Clock</Description><StartTime><Timestamp dt:dt=""int"">0</Timestamp><DateUtc dt:dt=""string"">2015-07-07T16:09:44Z</DateUtc></StartTime><FrequencyChanges><FrequencyChange><Frequency dt:dt=""r8"">2825566</Frequency><Timestamp dt:dt=""r8"">8739497746991</Timestamp><Current dt:dt=""r8"">0</Current><DateUtc dt:dt=""string"">2015-07-07T16:09:44Z</DateUtc></FrequencyChange></FrequencyChanges></Clock>\n"	Arrow Flanker 2014-12399-1	60.016	1.0.0.100	1	-760126595	Professional	2.0.10.353	2.0.10.353	07-07-2015	7/7/2015 4:09:44 PM	12:09:44	2.0.10.248	3	1	1	1	NA	NA	NA	NA	NA	NA	NA	NA	NA	NA	NA	NA	NA	NA	NA	NA	NA	NA	NA	NA	NA	NA	NA	NA	BlockProc	BlockList	NA	37	{RIGHTARROW}	NA	-100	2601	neutral	NA	NA	NA	NA	NA	NA	NA	NA	NA	NA	NA	NA	NA	NA	NA	NA	NA	NA	NA	NA	1	NA	TrialProc	TrialList	1	11	278657	17	0	17	276208	0	1	{RIGHTARROW}	-999999	0	278207	0	{RIGHTARROW}	439	278646	NA	NA	right	ooroo.bmp	354	0	NA	-999999	16	279190	0	1	1704	280894	0	NA	0	0	0	0	NA	0	0	6	1	37
Arrow Flanker 2014	12399	1	"<?xml version=""1.0""?>\n<Clock xmlns:dt=""urn:schemas-microsoft-com:datatypes""><Description dt:dt=""string"">E-Prime Primary Realtime Clock</Description><StartTime><Timestamp dt:dt=""int"">0</Timestamp><DateUtc dt:dt=""string"">2015-07-07T16:09:44Z</DateUtc></StartTime><FrequencyChanges><FrequencyChange><Frequency dt:dt=""r8"">2825566</Frequency><Timestamp dt:dt=""r8"">8739497746991</Timestamp><Current dt:dt=""r8"">0</Current><DateUtc dt:dt=""string"">2015-07-07T16:09:44Z</DateUtc></FrequencyChange></FrequencyChanges></Clock>\n"	Arrow Flanker 2014-12399-1	60.016	1.0.0.100	1	-760126595	Professional	2.0.10.353	2.0.10.353	07-07-2015	7/7/2015 4:09:44 PM	12:09:44	2.0.10.248	3	1	1	1	NA	NA	NA	NA	NA	NA	NA	NA	NA	NA	NA	NA	NA	NA	NA	NA	NA	NA	NA	NA	NA	NA	NA	NA	BlockProc	BlockList	NA	38	{LEFTARROW}	NA	-100	899	congruent	NA	NA	NA	NA	NA	NA	NA	NA	NA	NA	NA	NA	NA	NA	NA	NA	NA	NA	NA	NA	NA	NA	TrialProc	TrialList	0	16	284406	16	0	28	282306	0	1	{LEFTARROW}	-999999	0	283689	0	{LEFTARROW}	700	284389	NA	NA	left	lllll.bmp	354	0	NA	0	0	0	0	NA	0	0	0	NA	0	0	0	0	NA	0	0	1	1	38
Arrow Flanker 2014	12399	1	"<?xml version=""1.0""?>\n<Clock xmlns:dt=""urn:schemas-microsoft-com:datatypes""><Description dt:dt=""string"">E-Prime Primary Realtime Clock</Description><StartTime><Timestamp dt:dt=""int"">0</Timestamp><DateUtc dt:dt=""string"">2015-07-07T16:09:44Z</DateUtc></StartTime><FrequencyChanges><FrequencyChange><Frequency dt:dt=""r8"">2825566</Frequency><Timestamp dt:dt=""r8"">8739497746991</Timestamp><Current dt:dt=""r8"">0</Current><DateUtc dt:dt=""string"">2015-07-07T16:09:44Z</DateUtc></FrequencyChange></FrequencyChanges></Clock>\n"	Arrow Flanker 2014-12399-1	60.016	1.0.0.100	1	-760126595	Professional	2.0.10.353	2.0.10.353	07-07-2015	7/7/2015 4:09:44 PM	12:09:44	2.0.10.248	3	1	1	1	NA	NA	NA	NA	NA	NA	NA	NA	NA	NA	NA	NA	NA	NA	NA	NA	NA	NA	NA	NA	NA	NA	NA	NA	BlockProc	BlockList	NA	39	{RIGHTARROW}	NA	-100	954	congruent	NA	NA	NA	NA	NA	NA	NA	NA	NA	NA	NA	NA	NA	NA	NA	NA	NA	NA	NA	NA	NA	NA	TrialProc	TrialList	1	5	286522	17	0	17	284939	0	1	{RIGHTARROW}	-999999	0	286022	0	{RIGHTARROW}	495	286517	NA	NA	right	rrrrr.bmp	354	0	NA	0	0	0	0	NA	0	0	0	NA	0	0	0	0	NA	0	0	2	1	39
Arrow Flanker 2014	12399	1	"<?xml version=""1.0""?>\n<Clock xmlns:dt=""urn:schemas-microsoft-com:datatypes""><Description dt:dt=""string"">E-Prime Primary Realtime Clock</Description><StartTime><Timestamp dt:dt=""int"">0</Timestamp><DateUtc dt:dt=""string"">2015-07-07T16:09:44Z</DateUtc></StartTime><FrequencyChanges><FrequencyChange><Frequency dt:dt=""r8"">2825566</Frequency><Timestamp dt:dt=""r8"">8739497746991</Timestamp><Current dt:dt=""r8"">0</Current><DateUtc dt:dt=""string"">2015-07-07T16:09:44Z</DateUtc></FrequencyChange></FrequencyChanges></Clock>\n"	Arrow Flanker 2014-12399-1	60.016	1.0.0.100	1	-760126595	Professional	2.0.10.353	2.0.10.353	07-07-2015	7/7/2015 4:09:44 PM	12:09:44	2.0.10.248	3	1	1	1	NA	NA	NA	NA	NA	NA	NA	NA	NA	NA	NA	NA	NA	NA	NA	NA	NA	NA	NA	NA	NA	NA	NA	NA	BlockProc	BlockList	NA	40	{LEFTARROW}	NA	-100	2361	incongruent	NA	NA	NA	NA	NA	NA	NA	NA	NA	NA	NA	NA	NA	NA	NA	NA	NA	NA	NA	NA	NA	NA	TrialProc	TrialList	0	15	289588	16	0	16	287055	0	1	{LEFTARROW}	-999999	0	289038	0	{LEFTARROW}	535	289573	NA	NA	left	rrlrr.bmp	354	0	NA	0	0	0	0	NA	0	0	0	NA	0	0	0	0	NA	0	0	3	1	40
Arrow Flanker 2014	12399	1	"<?xml version=""1.0""?>\n<Clock xmlns:dt=""urn:schemas-microsoft-com:datatypes""><Description dt:dt=""string"">E-Prime Primary Realtime Clock</Description><StartTime><Timestamp dt:dt=""int"">0</Timestamp><DateUtc dt:dt=""string"">2015-07-07T16:09:44Z</DateUtc></StartTime><FrequencyChanges><FrequencyChange><Frequency dt:dt=""r8"">2825566</Frequency><Timestamp dt:dt=""r8"">8739497746991</Timestamp><Current dt:dt=""r8"">0</Current><DateUtc dt:dt=""string"">2015-07-07T16:09:44Z</DateUtc></FrequencyChange></FrequencyChanges></Clock>\n"	Arrow Flanker 2014-12399-1	60.016	1.0.0.100	1	-760126595	Professional	2.0.10.353	2.0.10.353	07-07-2015	7/7/2015 4:09:44 PM	12:09:44	2.0.10.248	3	1	1	1	NA	NA	NA	NA	NA	NA	NA	NA	NA	NA	NA	NA	NA	NA	NA	NA	NA	NA	NA	NA	NA	NA	NA	NA	BlockProc	BlockList	NA	41	{RIGHTARROW}	NA	-100	582	congruent	NA	NA	NA	NA	NA	NA	NA	NA	NA	NA	NA	NA	NA	NA	NA	NA	NA	NA	NA	NA	NA	NA	TrialProc	TrialList	0	14	291587	17	0	17	290121	0	1	{RIGHTARROW}	-999999	0	291121	0	{RIGHTARROW}	452	291573	NA	NA	right	rrrrr.bmp	354	0	NA	0	0	0	0	NA	0	0	0	NA	0	0	0	0	NA	0	0	2	1	41
Arrow Flanker 2014	12399	1	"<?xml version=""1.0""?>\n<Clock xmlns:dt=""urn:schemas-microsoft-com:datatypes""><Description dt:dt=""string"">E-Prime Primary Realtime Clock</Description><StartTime><Timestamp dt:dt=""int"">0</Timestamp><DateUtc dt:dt=""string"">2015-07-07T16:09:44Z</DateUtc></StartTime><FrequencyChanges><FrequencyChange><Frequency dt:dt=""r8"">2825566</Frequency><Timestamp dt:dt=""r8"">8739497746991</Timestamp><Current dt:dt=""r8"">0</Current><DateUtc dt:dt=""string"">2015-07-07T16:09:44Z</DateUtc></FrequencyChange></FrequencyChanges></Clock>\n"	Arrow Flanker 2014-12399-1	60.016	1.0.0.100	1	-760126595	Professional	2.0.10.353	2.0.10.353	07-07-2015	7/7/2015 4:09:44 PM	12:09:44	2.0.10.248	3	1	1	1	NA	NA	NA	NA	NA	NA	NA	NA	NA	NA	NA	NA	NA	NA	NA	NA	NA	NA	NA	NA	NA	NA	NA	NA	BlockProc	BlockList	NA	42	{LEFTARROW}	NA	-100	1787	congruent	NA	NA	NA	NA	NA	NA	NA	NA	NA	NA	NA	NA	NA	NA	NA	NA	NA	NA	NA	NA	NA	NA	TrialProc	TrialList	0	11	294720	16	0	16	292120	0	1	{LEFTARROW}	-999999	16	294203	0	{LEFTARROW}	506	294709	NA	NA	left	lllll.bmp	354	0	NA	0	0	0	0	NA	0	0	0	NA	0	0	0	0	NA	0	0	1	1	42
Arrow Flanker 2014	12399	1	"<?xml version=""1.0""?>\n<Clock xmlns:dt=""urn:schemas-microsoft-com:datatypes""><Description dt:dt=""string"">E-Prime Primary Realtime Clock</Description><StartTime><Timestamp dt:dt=""int"">0</Timestamp><DateUtc dt:dt=""string"">2015-07-07T16:09:44Z</DateUtc></StartTime><FrequencyChanges><FrequencyChange><Frequency dt:dt=""r8"">2825566</Frequency><Timestamp dt:dt=""r8"">8739497746991</Timestamp><Current dt:dt=""r8"">0</Current><DateUtc dt:dt=""string"">2015-07-07T16:09:44Z</DateUtc></FrequencyChange></FrequencyChanges></Clock>\n"	Arrow Flanker 2014-12399-1	60.016	1.0.0.100	1	-760126595	Professional	2.0.10.353	2.0.10.353	07-07-2015	7/7/2015 4:09:44 PM	12:09:44	2.0.10.248	3	1	1	1	NA	NA	NA	NA	NA	NA	NA	NA	NA	NA	NA	NA	NA	NA	NA	NA	NA	NA	NA	NA	NA	NA	NA	NA	BlockProc	BlockList	NA	43	{LEFTARROW}	NA	-100	1760	incongruent	NA	NA	NA	NA	NA	NA	NA	NA	NA	NA	NA	NA	NA	NA	NA	NA	NA	NA	NA	NA	NA	NA	TrialProc	TrialList	1	5	297802	17	0	17	295253	0	1	{LEFTARROW}	-999999	0	297252	0	{LEFTARROW}	545	297797	NA	NA	left	rrlrr.bmp	354	0	NA	0	0	0	0	NA	0	0	0	NA	0	0	0	0	NA	0	0	3	1	43
Arrow Flanker 2014	12399	1	"<?xml version=""1.0""?>\n<Clock xmlns:dt=""urn:schemas-microsoft-com:datatypes""><Description dt:dt=""string"">E-Prime Primary Realtime Clock</Description><StartTime><Timestamp dt:dt=""int"">0</Timestamp><DateUtc dt:dt=""string"">2015-07-07T16:09:44Z</DateUtc></StartTime><FrequencyChanges><FrequencyChange><Frequency dt:dt=""r8"">2825566</Frequency><Timestamp dt:dt=""r8"">8739497746991</Timestamp><Current dt:dt=""r8"">0</Current><DateUtc dt:dt=""string"">2015-07-07T16:09:44Z</DateUtc></FrequencyChange></FrequencyChanges></Clock>\n"	Arrow Flanker 2014-12399-1	60.016	1.0.0.100	1	-760126595	Professional	2.0.10.353	2.0.10.353	07-07-2015	7/7/2015 4:09:44 PM	12:09:44	2.0.10.248	3	1	1	1	NA	NA	NA	NA	NA	NA	NA	NA	NA	NA	NA	NA	NA	NA	NA	NA	NA	NA	NA	NA	NA	NA	NA	NA	BlockProc	BlockList	NA	44	{RIGHTARROW}	NA	-100	788	incongruent	NA	NA	NA	NA	NA	NA	NA	NA	NA	NA	NA	NA	NA	NA	NA	NA	NA	NA	NA	NA	NA	NA	TrialProc	TrialList	1	17	300118	17	0	16	298335	0	1	{RIGHTARROW}	-999999	0	299535	0	{RIGHTARROW}	566	300101	NA	NA	right	llrll.bmp	354	0	NA	0	0	0	0	NA	0	0	0	NA	0	0	0	0	NA	0	0	4	1	44
Arrow Flanker 2014	12399	1	"<?xml version=""1.0""?>\n<Clock xmlns:dt=""urn:schemas-microsoft-com:datatypes""><Description dt:dt=""string"">E-Prime Primary Realtime Clock</Description><StartTime><Timestamp dt:dt=""int"">0</Timestamp><DateUtc dt:dt=""string"">2015-07-07T16:09:44Z</DateUtc></StartTime><FrequencyChanges><FrequencyChange><Frequency dt:dt=""r8"">2825566</Frequency><Timestamp dt:dt=""r8"">8739497746991</Timestamp><Current dt:dt=""r8"">0</Current><DateUtc dt:dt=""string"">2015-07-07T16:09:44Z</DateUtc></FrequencyChange></FrequencyChanges></Clock>\n"	Arrow Flanker 2014-12399-1	60.016	1.0.0.100	1	-760126595	Professional	2.0.10.353	2.0.10.353	07-07-2015	7/7/2015 4:09:44 PM	12:09:44	2.0.10.248	3	1	1	1	NA	NA	NA	NA	NA	NA	NA	NA	NA	NA	NA	NA	NA	NA	NA	NA	NA	NA	NA	NA	NA	NA	NA	NA	BlockProc	BlockList	NA	45	{LEFTARROW}	NA	-100	1316	neutral	NA	NA	NA	NA	NA	NA	NA	NA	NA	NA	NA	NA	NA	NA	NA	NA	NA	NA	NA	NA	NA	NA	TrialProc	TrialList	0	20	302601	17	0	17	300652	0	1	{LEFTARROW}	-999999	0	302101	0	{LEFTARROW}	480	302581	NA	NA	left	ooloo.bmp	354	0	NA	0	0	0	0	NA	0	0	0	NA	0	0	0	0	NA	0	0	5	1	45
Arrow Flanker 2014	12399	1	"<?xml version=""1.0""?>\n<Clock xmlns:dt=""urn:schemas-microsoft-com:datatypes""><Description dt:dt=""string"">E-Prime Primary Realtime Clock</Description><StartTime><Timestamp dt:dt=""int"">0</Timestamp><DateUtc dt:dt=""string"">2015-07-07T16:09:44Z</DateUtc></StartTime><FrequencyChanges><FrequencyChange><Frequency dt:dt=""r8"">2825566</Frequency><Timestamp dt:dt=""r8"">8739497746991</Timestamp><Current dt:dt=""r8"">0</Current><DateUtc dt:dt=""string"">2015-07-07T16:09:44Z</DateUtc></FrequencyChange></FrequencyChanges></Clock>\n"	Arrow Flanker 2014-12399-1	60.016	1.0.0.100	1	-760126595	Professional	2.0.10.353	2.0.10.353	07-07-2015	7/7/2015 4:09:44 PM	12:09:44	2.0.10.248	3	1	1	1	NA	NA	NA	NA	NA	NA	NA	NA	NA	NA	NA	NA	NA	NA	NA	NA	NA	NA	NA	NA	NA	NA	NA	NA	BlockProc	BlockList	NA	46	{RIGHTARROW}	NA	-100	2458	neutral	NA	NA	NA	NA	NA	NA	NA	NA	NA	NA	NA	NA	NA	NA	NA	NA	NA	NA	NA	NA	NA	NA	TrialProc	TrialList	0	5	305434	16	0	16	303134	0	1	{RIGHTARROW}	-999999	0	304984	0	{RIGHTARROW}	445	305429	NA	NA	right	ooroo.bmp	354	0	NA	0	0	0	0	NA	0	0	0	NA	0	0	0	0	NA	0	0	6	1	46
Arrow Flanker 2014	12399	1	"<?xml version=""1.0""?>\n<Clock xmlns:dt=""urn:schemas-microsoft-com:datatypes""><Description dt:dt=""string"">E-Prime Primary Realtime Clock</Description><StartTime><Timestamp dt:dt=""int"">0</Timestamp><DateUtc dt:dt=""string"">2015-07-07T16:09:44Z</DateUtc></StartTime><FrequencyChanges><FrequencyChange><Frequency dt:dt=""r8"">2825566</Frequency><Timestamp dt:dt=""r8"">8739497746991</Timestamp><Current dt:dt=""r8"">0</Current><DateUtc dt:dt=""string"">2015-07-07T16:09:44Z</DateUtc></FrequencyChange></FrequencyChanges></Clock>\n"	Arrow Flanker 2014-12399-1	60.016	1.0.0.100	1	-760126595	Professional	2.0.10.353	2.0.10.353	07-07-2015	7/7/2015 4:09:44 PM	12:09:44	2.0.10.248	3	1	1	1	NA	NA	NA	NA	NA	NA	NA	NA	NA	NA	NA	NA	NA	NA	NA	NA	NA	NA	NA	NA	NA	NA	NA	NA	BlockProc	BlockList	NA	47	{RIGHTARROW}	NA	-100	1218	incongruent	NA	NA	NA	NA	NA	NA	NA	NA	NA	NA	NA	NA	NA	NA	NA	NA	NA	NA	NA	NA	NA	NA	TrialProc	TrialList	0	6	307883	16	0	17	305967	0	1	{RIGHTARROW}	-999999	0	307300	0	{RIGHTARROW}	577	307877	NA	NA	right	llrll.bmp	354	0	NA	0	0	0	0	NA	0	0	0	NA	0	0	0	0	NA	0	0	4	1	47
Arrow Flanker 2014	12399	1	"<?xml version=""1.0""?>\n<Clock xmlns:dt=""urn:schemas-microsoft-com:datatypes""><Description dt:dt=""string"">E-Prime Primary Realtime Clock</Description><StartTime><Timestamp dt:dt=""int"">0</Timestamp><DateUtc dt:dt=""string"">2015-07-07T16:09:44Z</DateUtc></StartTime><FrequencyChanges><FrequencyChange><Frequency dt:dt=""r8"">2825566</Frequency><Timestamp dt:dt=""r8"">8739497746991</Timestamp><Current dt:dt=""r8"">0</Current><DateUtc dt:dt=""string"">2015-07-07T16:09:44Z</DateUtc></FrequencyChange></FrequencyChanges></Clock>\n"	Arrow Flanker 2014-12399-1	60.016	1.0.0.100	1	-760126595	Professional	2.0.10.353	2.0.10.353	07-07-2015	7/7/2015 4:09:44 PM	12:09:44	2.0.10.248	3	1	1	1	NA	NA	NA	NA	NA	NA	NA	NA	NA	NA	NA	NA	NA	NA	NA	NA	NA	NA	NA	NA	NA	NA	NA	NA	BlockProc	BlockList	NA	48	{RIGHTARROW}	NA	-100	1685	congruent	NA	NA	NA	NA	NA	NA	NA	NA	NA	NA	NA	NA	NA	NA	NA	NA	NA	NA	NA	NA	NA	NA	TrialProc	TrialList	0	5	310266	16	0	17	308416	0	1	{RIGHTARROW}	-999999	0	309699	0	{RIGHTARROW}	562	310261	NA	NA	right	rrrrr.bmp	354	0	NA	0	0	0	0	NA	0	0	0	NA	0	0	0	0	NA	0	0	2	1	48
Arrow Flanker 2014	12399	1	"<?xml version=""1.0""?>\n<Clock xmlns:dt=""urn:schemas-microsoft-com:datatypes""><Description dt:dt=""string"">E-Prime Primary Realtime Clock</Description><StartTime><Timestamp dt:dt=""int"">0</Timestamp><DateUtc dt:dt=""string"">2015-07-07T16:09:44Z</DateUtc></StartTime><FrequencyChanges><FrequencyChange><Frequency dt:dt=""r8"">2825566</Frequency><Timestamp dt:dt=""r8"">8739497746991</Timestamp><Current dt:dt=""r8"">0</Current><DateUtc dt:dt=""string"">2015-07-07T16:09:44Z</DateUtc></FrequencyChange></FrequencyChanges></Clock>\n"	Arrow Flanker 2014-12399-1	60.016	1.0.0.100	1	-760126595	Professional	2.0.10.353	2.0.10.353	07-07-2015	7/7/2015 4:09:44 PM	12:09:44	2.0.10.248	3	1	1	1	NA	NA	NA	NA	NA	NA	NA	NA	NA	NA	NA	NA	NA	NA	NA	NA	NA	NA	NA	NA	NA	NA	NA	NA	BlockProc	BlockList	NA	49	{LEFTARROW}	NA	-100	1196	incongruent	NA	NA	NA	NA	NA	NA	NA	NA	NA	NA	NA	NA	NA	NA	NA	NA	NA	NA	NA	NA	NA	NA	TrialProc	TrialList	0	17	312998	17	0	17	310799	0	1	{LEFTARROW}	-999999	0	312382	0	{LEFTARROW}	599	312981	NA	NA	left	rrlrr.bmp	354	0	NA	0	0	0	0	NA	0	0	0	NA	0	0	0	0	NA	0	0	3	1	49
Arrow Flanker 2014	12399	1	"<?xml version=""1.0""?>\n<Clock xmlns:dt=""urn:schemas-microsoft-com:datatypes""><Description dt:dt=""string"">E-Prime Primary Realtime Clock</Description><StartTime><Timestamp dt:dt=""int"">0</Timestamp><DateUtc dt:dt=""string"">2015-07-07T16:09:44Z</DateUtc></StartTime><FrequencyChanges><FrequencyChange><Frequency dt:dt=""r8"">2825566</Frequency><Timestamp dt:dt=""r8"">8739497746991</Timestamp><Current dt:dt=""r8"">0</Current><DateUtc dt:dt=""string"">2015-07-07T16:09:44Z</DateUtc></FrequencyChange></FrequencyChanges></Clock>\n"	Arrow Flanker 2014-12399-1	60.016	1.0.0.100	1	-760126595	Professional	2.0.10.353	2.0.10.353	07-07-2015	7/7/2015 4:09:44 PM	12:09:44	2.0.10.248	3	1	1	1	NA	NA	NA	NA	NA	NA	NA	NA	NA	NA	NA	NA	NA	NA	NA	NA	NA	NA	NA	NA	NA	NA	NA	NA	BlockProc	BlockList	NA	50	{RIGHTARROW}	NA	-100	1207	incongruent	NA	NA	NA	NA	NA	NA	NA	NA	NA	NA	NA	NA	NA	NA	NA	NA	NA	NA	NA	NA	NA	NA	TrialProc	TrialList	0	16	315381	17	0	16	313531	0	1	{RIGHTARROW}	-999999	0	314764	0	{RIGHTARROW}	601	315365	NA	NA	right	llrll.bmp	354	0	NA	0	0	0	0	NA	0	0	0	NA	0	0	0	0	NA	0	0	4	1	50
Arrow Flanker 2014	12399	1	"<?xml version=""1.0""?>\n<Clock xmlns:dt=""urn:schemas-microsoft-com:datatypes""><Description dt:dt=""string"">E-Prime Primary Realtime Clock</Description><StartTime><Timestamp dt:dt=""int"">0</Timestamp><DateUtc dt:dt=""string"">2015-07-07T16:09:44Z</DateUtc></StartTime><FrequencyChanges><FrequencyChange><Frequency dt:dt=""r8"">2825566</Frequency><Timestamp dt:dt=""r8"">8739497746991</Timestamp><Current dt:dt=""r8"">0</Current><DateUtc dt:dt=""string"">2015-07-07T16:09:44Z</DateUtc></FrequencyChange></FrequencyChanges></Clock>\n"	Arrow Flanker 2014-12399-1	60.016	1.0.0.100	1	-760126595	Professional	2.0.10.353	2.0.10.353	07-07-2015	7/7/2015 4:09:44 PM	12:09:44	2.0.10.248	3	1	1	1	NA	NA	NA	NA	NA	NA	NA	NA	NA	NA	NA	NA	NA	NA	NA	NA	NA	NA	NA	NA	NA	NA	NA	NA	BlockProc	BlockList	NA	51	{LEFTARROW}	NA	-100	1027	neutral	NA	NA	NA	NA	NA	NA	NA	NA	NA	NA	NA	NA	NA	NA	NA	NA	NA	NA	NA	NA	NA	NA	TrialProc	TrialList	1	17	317830	17	0	16	315914	0	1	{LEFTARROW}	-999999	0	317380	0	{LEFTARROW}	433	317813	NA	NA	left	ooloo.bmp	354	0	NA	0	0	0	0	NA	0	0	0	NA	0	0	0	0	NA	0	0	5	1	51
Arrow Flanker 2014	12399	1	"<?xml version=""1.0""?>\n<Clock xmlns:dt=""urn:schemas-microsoft-com:datatypes""><Description dt:dt=""string"">E-Prime Primary Realtime Clock</Description><StartTime><Timestamp dt:dt=""int"">0</Timestamp><DateUtc dt:dt=""string"">2015-07-07T16:09:44Z</DateUtc></StartTime><FrequencyChanges><FrequencyChange><Frequency dt:dt=""r8"">2825566</Frequency><Timestamp dt:dt=""r8"">8739497746991</Timestamp><Current dt:dt=""r8"">0</Current><DateUtc dt:dt=""string"">2015-07-07T16:09:44Z</DateUtc></FrequencyChange></FrequencyChanges></Clock>\n"	Arrow Flanker 2014-12399-1	60.016	1.0.0.100	1	-760126595	Professional	2.0.10.353	2.0.10.353	07-07-2015	7/7/2015 4:09:44 PM	12:09:44	2.0.10.248	3	1	1	1	NA	NA	NA	NA	NA	NA	NA	NA	NA	NA	NA	NA	NA	NA	NA	NA	NA	NA	NA	NA	NA	NA	NA	NA	BlockProc	BlockList	NA	52	{RIGHTARROW}	NA	-100	2572	incongruent	NA	NA	NA	NA	NA	NA	NA	NA	NA	NA	NA	NA	NA	NA	NA	NA	NA	NA	NA	NA	NA	NA	TrialProc	TrialList	0	8	320813	17	0	16	318363	0	1	{RIGHTARROW}	-999999	0	320296	0	{RIGHTARROW}	508	320804	NA	NA	right	llrll.bmp	354	0	NA	0	0	0	0	NA	0	0	0	NA	0	0	0	0	NA	0	0	4	1	52
Arrow Flanker 2014	12399	1	"<?xml version=""1.0""?>\n<Clock xmlns:dt=""urn:schemas-microsoft-com:datatypes""><Description dt:dt=""string"">E-Prime Primary Realtime Clock</Description><StartTime><Timestamp dt:dt=""int"">0</Timestamp><DateUtc dt:dt=""string"">2015-07-07T16:09:44Z</DateUtc></StartTime><FrequencyChanges><FrequencyChange><Frequency dt:dt=""r8"">2825566</Frequency><Timestamp dt:dt=""r8"">8739497746991</Timestamp><Current dt:dt=""r8"">0</Current><DateUtc dt:dt=""string"">2015-07-07T16:09:44Z</DateUtc></FrequencyChange></FrequencyChanges></Clock>\n"	Arrow Flanker 2014-12399-1	60.016	1.0.0.100	1	-760126595	Professional	2.0.10.353	2.0.10.353	07-07-2015	7/7/2015 4:09:44 PM	12:09:44	2.0.10.248	3	1	1	1	NA	NA	NA	NA	NA	NA	NA	NA	NA	NA	NA	NA	NA	NA	NA	NA	NA	NA	NA	NA	NA	NA	NA	NA	BlockProc	BlockList	NA	53	{RIGHTARROW}	NA	-100	1965	congruent	NA	NA	NA	NA	NA	NA	NA	NA	NA	NA	NA	NA	NA	NA	NA	NA	NA	NA	NA	NA	NA	NA	TrialProc	TrialList	0	18	323879	16	0	16	321346	0	1	{RIGHTARROW}	-999999	0	323362	0	{RIGHTARROW}	498	323860	NA	NA	right	rrrrr.bmp	354	0	NA	0	0	0	0	NA	0	0	0	NA	0	0	0	0	NA	0	0	2	1	53
Arrow Flanker 2014	12399	1	"<?xml version=""1.0""?>\n<Clock xmlns:dt=""urn:schemas-microsoft-com:datatypes""><Description dt:dt=""string"">E-Prime Primary Realtime Clock</Description><StartTime><Timestamp dt:dt=""int"">0</Timestamp><DateUtc dt:dt=""string"">2015-07-07T16:09:44Z</DateUtc></StartTime><FrequencyChanges><FrequencyChange><Frequency dt:dt=""r8"">2825566</Frequency><Timestamp dt:dt=""r8"">8739497746991</Timestamp><Current dt:dt=""r8"">0</Current><DateUtc dt:dt=""string"">2015-07-07T16:09:44Z</DateUtc></FrequencyChange></FrequencyChanges></Clock>\n"	Arrow Flanker 2014-12399-1	60.016	1.0.0.100	1	-760126595	Professional	2.0.10.353	2.0.10.353	07-07-2015	7/7/2015 4:09:44 PM	12:09:44	2.0.10.248	3	1	1	1	NA	NA	NA	NA	NA	NA	NA	NA	NA	NA	NA	NA	NA	NA	NA	NA	NA	NA	NA	NA	NA	NA	NA	NA	BlockProc	BlockList	NA	54	{RIGHTARROW}	NA	-100	1677	incongruent	NA	NA	NA	NA	NA	NA	NA	NA	NA	NA	NA	NA	NA	NA	NA	NA	NA	NA	NA	NA	1	NA	TrialProc	TrialList	0	18	326278	17	0	17	324412	0	1	{RIGHTARROW}	-999999	0	325728	0	{RIGHTARROW}	532	326260	NA	NA	right	llrll.bmp	354	0	NA	-999999	16	326811	0	1	1626	328437	0	NA	0	0	0	0	NA	0	0	4	1	54
Arrow Flanker 2014	12399	1	"<?xml version=""1.0""?>\n<Clock xmlns:dt=""urn:schemas-microsoft-com:datatypes""><Description dt:dt=""string"">E-Prime Primary Realtime Clock</Description><StartTime><Timestamp dt:dt=""int"">0</Timestamp><DateUtc dt:dt=""string"">2015-07-07T16:09:44Z</DateUtc></StartTime><FrequencyChanges><FrequencyChange><Frequency dt:dt=""r8"">2825566</Frequency><Timestamp dt:dt=""r8"">8739497746991</Timestamp><Current dt:dt=""r8"">0</Current><DateUtc dt:dt=""string"">2015-07-07T16:09:44Z</DateUtc></FrequencyChange></FrequencyChanges></Clock>\n"	Arrow Flanker 2014-12399-1	60.016	1.0.0.100	1	-760126595	Professional	2.0.10.353	2.0.10.353	07-07-2015	7/7/2015 4:09:44 PM	12:09:44	2.0.10.248	3	1	1	1	NA	NA	NA	NA	NA	NA	NA	NA	NA	NA	NA	NA	NA	NA	NA	NA	NA	NA	NA	NA	NA	NA	NA	NA	BlockProc	BlockList	NA	55	{RIGHTARROW}	NA	-100	776	neutral	NA	NA	NA	NA	NA	NA	NA	NA	NA	NA	NA	NA	NA	NA	NA	NA	NA	NA	NA	NA	NA	NA	TrialProc	TrialList	1	19	331543	17	0	24	329660	0	1	{RIGHTARROW}	-999999	0	330727	0	{RIGHTARROW}	797	331524	NA	NA	right	ooroo.bmp	354	0	NA	0	0	0	0	NA	0	0	0	NA	0	0	0	0	NA	0	0	6	1	55
Arrow Flanker 2014	12399	1	"<?xml version=""1.0""?>\n<Clock xmlns:dt=""urn:schemas-microsoft-com:datatypes""><Description dt:dt=""string"">E-Prime Primary Realtime Clock</Description><StartTime><Timestamp dt:dt=""int"">0</Timestamp><DateUtc dt:dt=""string"">2015-07-07T16:09:44Z</DateUtc></StartTime><FrequencyChanges><FrequencyChange><Frequency dt:dt=""r8"">2825566</Frequency><Timestamp dt:dt=""r8"">8739497746991</Timestamp><Current dt:dt=""r8"">0</Current><DateUtc dt:dt=""string"">2015-07-07T16:09:44Z</DateUtc></FrequencyChange></FrequencyChanges></Clock>\n"	Arrow Flanker 2014-12399-1	60.016	1.0.0.100	1	-760126595	Professional	2.0.10.353	2.0.10.353	07-07-2015	7/7/2015 4:09:44 PM	12:09:44	2.0.10.248	3	1	1	1	NA	NA	NA	NA	NA	NA	NA	NA	NA	NA	NA	NA	NA	NA	NA	NA	NA	NA	NA	NA	NA	NA	NA	NA	BlockProc	BlockList	NA	56	{LEFTARROW}	NA	-100	2246	incongruent	NA	NA	NA	NA	NA	NA	NA	NA	NA	NA	NA	NA	NA	NA	NA	NA	NA	NA	NA	NA	NA	NA	TrialProc	TrialList	0	19	334343	16	0	17	332077	0	1	{LEFTARROW}	-999999	0	333759	0	{LEFTARROW}	565	334324	NA	NA	left	rrlrr.bmp	354	0	NA	0	0	0	0	NA	0	0	0	NA	0	0	0	0	NA	0	0	3	1	56
Arrow Flanker 2014	12399	1	"<?xml version=""1.0""?>\n<Clock xmlns:dt=""urn:schemas-microsoft-com:datatypes""><Description dt:dt=""string"">E-Prime Primary Realtime Clock</Description><StartTime><Timestamp dt:dt=""int"">0</Timestamp><DateUtc dt:dt=""string"">2015-07-07T16:09:44Z</DateUtc></StartTime><FrequencyChanges><FrequencyChange><Frequency dt:dt=""r8"">2825566</Frequency><Timestamp dt:dt=""r8"">8739497746991</Timestamp><Current dt:dt=""r8"">0</Current><DateUtc dt:dt=""string"">2015-07-07T16:09:44Z</DateUtc></FrequencyChange></FrequencyChanges></Clock>\n"	Arrow Flanker 2014-12399-1	60.016	1.0.0.100	1	-760126595	Professional	2.0.10.353	2.0.10.353	07-07-2015	7/7/2015 4:09:44 PM	12:09:44	2.0.10.248	3	1	1	1	NA	NA	NA	NA	NA	NA	NA	NA	NA	NA	NA	NA	NA	NA	NA	NA	NA	NA	NA	NA	NA	NA	NA	NA	BlockProc	BlockList	NA	57	{RIGHTARROW}	NA	-100	1425	incongruent	NA	NA	NA	NA	NA	NA	NA	NA	NA	NA	NA	NA	NA	NA	NA	NA	NA	NA	NA	NA	NA	NA	TrialProc	TrialList	0	9	336509	16	0	17	334876	0	1	{RIGHTARROW}	-999999	0	335992	0	{RIGHTARROW}	508	336500	NA	NA	right	llrll.bmp	354	0	NA	0	0	0	0	NA	0	0	0	NA	0	0	0	0	NA	0	0	4	1	57
Arrow Flanker 2014	12399	1	"<?xml version=""1.0""?>\n<Clock xmlns:dt=""urn:schemas-microsoft-com:datatypes""><Description dt:dt=""string"">E-Prime Primary Realtime Clock</Description><StartTime><Timestamp dt:dt=""int"">0</Timestamp><DateUtc dt:dt=""string"">2015-07-07T16:09:44Z</DateUtc></StartTime><FrequencyChanges><FrequencyChange><Frequency dt:dt=""r8"">2825566</Frequency><Timestamp dt:dt=""r8"">8739497746991</Timestamp><Current dt:dt=""r8"">0</Current><DateUtc dt:dt=""string"">2015-07-07T16:09:44Z</DateUtc></FrequencyChange></FrequencyChanges></Clock>\n"	Arrow Flanker 2014-12399-1	60.016	1.0.0.100	1	-760126595	Professional	2.0.10.353	2.0.10.353	07-07-2015	7/7/2015 4:09:44 PM	12:09:44	2.0.10.248	3	1	1	1	NA	NA	NA	NA	NA	NA	NA	NA	NA	NA	NA	NA	NA	NA	NA	NA	NA	NA	NA	NA	NA	NA	NA	NA	BlockProc	BlockList	NA	58	{LEFTARROW}	NA	-100	2160	neutral	NA	NA	NA	NA	NA	NA	NA	NA	NA	NA	NA	NA	NA	NA	NA	NA	NA	NA	NA	NA	NA	NA	TrialProc	TrialList	0	17	339125	16	0	17	337042	0	1	{LEFTARROW}	-999999	0	338675	0	{LEFTARROW}	433	339108	NA	NA	left	ooloo.bmp	354	0	NA	0	0	0	0	NA	0	0	0	NA	0	0	0	0	NA	0	0	5	1	58
Arrow Flanker 2014	12399	1	"<?xml version=""1.0""?>\n<Clock xmlns:dt=""urn:schemas-microsoft-com:datatypes""><Description dt:dt=""string"">E-Prime Primary Realtime Clock</Description><StartTime><Timestamp dt:dt=""int"">0</Timestamp><DateUtc dt:dt=""string"">2015-07-07T16:09:44Z</DateUtc></StartTime><FrequencyChanges><FrequencyChange><Frequency dt:dt=""r8"">2825566</Frequency><Timestamp dt:dt=""r8"">8739497746991</Timestamp><Current dt:dt=""r8"">0</Current><DateUtc dt:dt=""string"">2015-07-07T16:09:44Z</DateUtc></FrequencyChange></FrequencyChanges></Clock>\n"	Arrow Flanker 2014-12399-1	60.016	1.0.0.100	1	-760126595	Professional	2.0.10.353	2.0.10.353	07-07-2015	7/7/2015 4:09:44 PM	12:09:44	2.0.10.248	3	1	1	1	NA	NA	NA	NA	NA	NA	NA	NA	NA	NA	NA	NA	NA	NA	NA	NA	NA	NA	NA	NA	NA	NA	NA	NA	BlockProc	BlockList	NA	59	{RIGHTARROW}	NA	-100	1205	incongruent	NA	NA	NA	NA	NA	NA	NA	NA	NA	NA	NA	NA	NA	NA	NA	NA	NA	NA	NA	NA	NA	NA	TrialProc	TrialList	1	11	341407	17	0	17	339658	0	1	{RIGHTARROW}	-999999	0	340824	0	{RIGHTARROW}	572	341396	NA	NA	right	llrll.bmp	354	0	NA	0	0	0	0	NA	0	0	0	NA	0	0	0	0	NA	0	0	4	1	59
Arrow Flanker 2014	12399	1	"<?xml version=""1.0""?>\n<Clock xmlns:dt=""urn:schemas-microsoft-com:datatypes""><Description dt:dt=""string"">E-Prime Primary Realtime Clock</Description><StartTime><Timestamp dt:dt=""int"">0</Timestamp><DateUtc dt:dt=""string"">2015-07-07T16:09:44Z</DateUtc></StartTime><FrequencyChanges><FrequencyChange><Frequency dt:dt=""r8"">2825566</Frequency><Timestamp dt:dt=""r8"">8739497746991</Timestamp><Current dt:dt=""r8"">0</Current><DateUtc dt:dt=""string"">2015-07-07T16:09:44Z</DateUtc></FrequencyChange></FrequencyChanges></Clock>\n"	Arrow Flanker 2014-12399-1	60.016	1.0.0.100	1	-760126595	Professional	2.0.10.353	2.0.10.353	07-07-2015	7/7/2015 4:09:44 PM	12:09:44	2.0.10.248	3	1	1	1	NA	NA	NA	NA	NA	NA	NA	NA	NA	NA	NA	NA	NA	NA	NA	NA	NA	NA	NA	NA	NA	NA	NA	NA	BlockProc	BlockList	NA	60	{RIGHTARROW}	NA	-100	1787	incongruent	NA	NA	NA	NA	NA	NA	NA	NA	NA	NA	NA	NA	NA	NA	NA	NA	NA	NA	NA	NA	NA	NA	TrialProc	TrialList	0	17	343557	16	0	17	341941	0	1	{RIGHTARROW}	-999999	0	343057	0	{RIGHTARROW}	483	343540	NA	NA	right	llrll.bmp	354	0	NA	0	0	0	0	NA	0	0	0	NA	0	0	0	0	NA	0	0	4	1	60
Arrow Flanker 2014	12399	1	"<?xml version=""1.0""?>\n<Clock xmlns:dt=""urn:schemas-microsoft-com:datatypes""><Description dt:dt=""string"">E-Prime Primary Realtime Clock</Description><StartTime><Timestamp dt:dt=""int"">0</Timestamp><DateUtc dt:dt=""string"">2015-07-07T16:09:44Z</DateUtc></StartTime><FrequencyChanges><FrequencyChange><Frequency dt:dt=""r8"">2825566</Frequency><Timestamp dt:dt=""r8"">8739497746991</Timestamp><Current dt:dt=""r8"">0</Current><DateUtc dt:dt=""string"">2015-07-07T16:09:44Z</DateUtc></FrequencyChange></FrequencyChanges></Clock>\n"	Arrow Flanker 2014-12399-1	60.016	1.0.0.100	1	-760126595	Professional	2.0.10.353	2.0.10.353	07-07-2015	7/7/2015 4:09:44 PM	12:09:44	2.0.10.248	3	1	1	1	NA	NA	NA	NA	NA	NA	NA	NA	NA	NA	NA	NA	NA	NA	NA	NA	NA	NA	NA	NA	NA	NA	NA	NA	BlockProc	BlockList	NA	61	{LEFTARROW}	NA	-100	996	neutral	NA	NA	NA	NA	NA	NA	NA	NA	NA	NA	NA	NA	NA	NA	NA	NA	NA	NA	NA	NA	NA	NA	TrialProc	TrialList	0	13	345873	16	0	17	344090	0	1	{LEFTARROW}	-999999	0	345390	0	{LEFTARROW}	470	345860	NA	NA	left	ooloo.bmp	354	0	NA	0	0	0	0	NA	0	0	0	NA	0	0	0	0	NA	0	0	5	1	61
Arrow Flanker 2014	12399	1	"<?xml version=""1.0""?>\n<Clock xmlns:dt=""urn:schemas-microsoft-com:datatypes""><Description dt:dt=""string"">E-Prime Primary Realtime Clock</Description><StartTime><Timestamp dt:dt=""int"">0</Timestamp><DateUtc dt:dt=""string"">2015-07-07T16:09:44Z</DateUtc></StartTime><FrequencyChanges><FrequencyChange><Frequency dt:dt=""r8"">2825566</Frequency><Timestamp dt:dt=""r8"">8739497746991</Timestamp><Current dt:dt=""r8"">0</Current><DateUtc dt:dt=""string"">2015-07-07T16:09:44Z</DateUtc></FrequencyChange></FrequencyChanges></Clock>\n"	Arrow Flanker 2014-12399-1	60.016	1.0.0.100	1	-760126595	Professional	2.0.10.353	2.0.10.353	07-07-2015	7/7/2015 4:09:44 PM	12:09:44	2.0.10.248	3	1	1	1	NA	NA	NA	NA	NA	NA	NA	NA	NA	NA	NA	NA	NA	NA	NA	NA	NA	NA	NA	NA	NA	NA	NA	NA	BlockProc	BlockList	NA	62	{LEFTARROW}	NA	-100	1756	incongruent	NA	NA	NA	NA	NA	NA	NA	NA	NA	NA	NA	NA	NA	NA	NA	NA	NA	NA	NA	NA	NA	NA	TrialProc	TrialList	1	11	348655	17	0	17	346406	0	1	{LEFTARROW}	-999999	0	348056	0	{LEFTARROW}	588	348644	NA	NA	left	rrlrr.bmp	354	0	NA	0	0	0	0	NA	0	0	0	NA	0	0	0	0	NA	0	0	3	1	62
Arrow Flanker 2014	12399	1	"<?xml version=""1.0""?>\n<Clock xmlns:dt=""urn:schemas-microsoft-com:datatypes""><Description dt:dt=""string"">E-Prime Primary Realtime Clock</Description><StartTime><Timestamp dt:dt=""int"">0</Timestamp><DateUtc dt:dt=""string"">2015-07-07T16:09:44Z</DateUtc></StartTime><FrequencyChanges><FrequencyChange><Frequency dt:dt=""r8"">2825566</Frequency><Timestamp dt:dt=""r8"">8739497746991</Timestamp><Current dt:dt=""r8"">0</Current><DateUtc dt:dt=""string"">2015-07-07T16:09:44Z</DateUtc></FrequencyChange></FrequencyChanges></Clock>\n"	Arrow Flanker 2014-12399-1	60.016	1.0.0.100	1	-760126595	Professional	2.0.10.353	2.0.10.353	07-07-2015	7/7/2015 4:09:44 PM	12:09:44	2.0.10.248	3	1	1	1	NA	NA	NA	NA	NA	NA	NA	NA	NA	NA	NA	NA	NA	NA	NA	NA	NA	NA	NA	NA	NA	NA	NA	NA	BlockProc	BlockList	NA	63	{RIGHTARROW}	NA	-100	1195	neutral	NA	NA	NA	NA	NA	NA	NA	NA	NA	NA	NA	NA	NA	NA	NA	NA	NA	NA	NA	NA	NA	NA	TrialProc	TrialList	0	12	351072	16	0	17	349189	0	1	{RIGHTARROW}	-999999	0	350588	0	{RIGHTARROW}	472	351060	NA	NA	right	ooroo.bmp	354	0	NA	0	0	0	0	NA	0	0	0	NA	0	0	0	0	NA	0	0	6	1	63
Arrow Flanker 2014	12399	1	"<?xml version=""1.0""?>\n<Clock xmlns:dt=""urn:schemas-microsoft-com:datatypes""><Description dt:dt=""string"">E-Prime Primary Realtime Clock</Description><StartTime><Timestamp dt:dt=""int"">0</Timestamp><DateUtc dt:dt=""string"">2015-07-07T16:09:44Z</DateUtc></StartTime><FrequencyChanges><FrequencyChange><Frequency dt:dt=""r8"">2825566</Frequency><Timestamp dt:dt=""r8"">8739497746991</Timestamp><Current dt:dt=""r8"">0</Current><DateUtc dt:dt=""string"">2015-07-07T16:09:44Z</DateUtc></FrequencyChange></FrequencyChanges></Clock>\n"	Arrow Flanker 2014-12399-1	60.016	1.0.0.100	1	-760126595	Professional	2.0.10.353	2.0.10.353	07-07-2015	7/7/2015 4:09:44 PM	12:09:44	2.0.10.248	3	1	1	1	NA	NA	NA	NA	NA	NA	NA	NA	NA	NA	NA	NA	NA	NA	NA	NA	NA	NA	NA	NA	NA	NA	NA	NA	BlockProc	BlockList	NA	64	{LEFTARROW}	NA	-100	2709	neutral	NA	NA	NA	NA	NA	NA	NA	NA	NA	NA	NA	NA	NA	NA	NA	NA	NA	NA	NA	NA	NA	NA	TrialProc	TrialList	0	5	354121	16	0	17	351605	0	1	{LEFTARROW}	-999999	0	353671	0	{LEFTARROW}	444	354115	NA	NA	left	ooloo.bmp	354	0	NA	0	0	0	0	NA	0	0	0	NA	0	0	0	0	NA	0	0	5	1	64
Arrow Flanker 2014	12399	1	"<?xml version=""1.0""?>\n<Clock xmlns:dt=""urn:schemas-microsoft-com:datatypes""><Description dt:dt=""string"">E-Prime Primary Realtime Clock</Description><StartTime><Timestamp dt:dt=""int"">0</Timestamp><DateUtc dt:dt=""string"">2015-07-07T16:09:44Z</DateUtc></StartTime><FrequencyChanges><FrequencyChange><Frequency dt:dt=""r8"">2825566</Frequency><Timestamp dt:dt=""r8"">8739497746991</Timestamp><Current dt:dt=""r8"">0</Current><DateUtc dt:dt=""string"">2015-07-07T16:09:44Z</DateUtc></FrequencyChange></FrequencyChanges></Clock>\n"	Arrow Flanker 2014-12399-1	60.016	1.0.0.100	1	-760126595	Professional	2.0.10.353	2.0.10.353	07-07-2015	7/7/2015 4:09:44 PM	12:09:44	2.0.10.248	3	1	1	1	NA	NA	NA	NA	NA	NA	NA	NA	NA	NA	NA	NA	NA	NA	NA	NA	NA	NA	NA	NA	NA	NA	NA	NA	BlockProc	BlockList	NA	65	{LEFTARROW}	NA	-100	2144	neutral	NA	NA	NA	NA	NA	NA	NA	NA	NA	NA	NA	NA	NA	NA	NA	NA	NA	NA	NA	NA	NA	NA	TrialProc	TrialList	0	8	356620	17	0	17	354654	0	1	{LEFTARROW}	-999999	0	356153	0	{LEFTARROW}	459	356612	NA	NA	left	ooloo.bmp	354	0	NA	0	0	0	0	NA	0	0	0	NA	0	0	0	0	NA	0	0	5	1	65
Arrow Flanker 2014	12399	1	"<?xml version=""1.0""?>\n<Clock xmlns:dt=""urn:schemas-microsoft-com:datatypes""><Description dt:dt=""string"">E-Prime Primary Realtime Clock</Description><StartTime><Timestamp dt:dt=""int"">0</Timestamp><DateUtc dt:dt=""string"">2015-07-07T16:09:44Z</DateUtc></StartTime><FrequencyChanges><FrequencyChange><Frequency dt:dt=""r8"">2825566</Frequency><Timestamp dt:dt=""r8"">8739497746991</Timestamp><Current dt:dt=""r8"">0</Current><DateUtc dt:dt=""string"">2015-07-07T16:09:44Z</DateUtc></FrequencyChange></FrequencyChanges></Clock>\n"	Arrow Flanker 2014-12399-1	60.016	1.0.0.100	1	-760126595	Professional	2.0.10.353	2.0.10.353	07-07-2015	7/7/2015 4:09:44 PM	12:09:44	2.0.10.248	3	1	1	1	NA	NA	NA	NA	NA	NA	NA	NA	NA	NA	NA	NA	NA	NA	NA	NA	NA	NA	NA	NA	NA	NA	NA	NA	BlockProc	BlockList	NA	66	{LEFTARROW}	NA	-100	832	congruent	NA	NA	NA	NA	NA	NA	NA	NA	NA	NA	NA	NA	NA	NA	NA	NA	NA	NA	NA	NA	NA	NA	TrialProc	TrialList	1	15	358819	17	0	16	357153	0	1	{LEFTARROW}	-999999	0	358220	0	{LEFTARROW}	583	358803	NA	NA	left	lllll.bmp	354	0	NA	0	0	0	0	NA	0	0	0	NA	0	0	0	0	NA	0	0	1	1	66
Arrow Flanker 2014	12399	1	"<?xml version=""1.0""?>\n<Clock xmlns:dt=""urn:schemas-microsoft-com:datatypes""><Description dt:dt=""string"">E-Prime Primary Realtime Clock</Description><StartTime><Timestamp dt:dt=""int"">0</Timestamp><DateUtc dt:dt=""string"">2015-07-07T16:09:44Z</DateUtc></StartTime><FrequencyChanges><FrequencyChange><Frequency dt:dt=""r8"">2825566</Frequency><Timestamp dt:dt=""r8"">8739497746991</Timestamp><Current dt:dt=""r8"">0</Current><DateUtc dt:dt=""string"">2015-07-07T16:09:44Z</DateUtc></FrequencyChange></FrequencyChanges></Clock>\n"	Arrow Flanker 2014-12399-1	60.016	1.0.0.100	1	-760126595	Professional	2.0.10.353	2.0.10.353	07-07-2015	7/7/2015 4:09:44 PM	12:09:44	2.0.10.248	3	1	1	1	NA	NA	NA	NA	NA	NA	NA	NA	NA	NA	NA	NA	NA	NA	NA	NA	NA	NA	NA	NA	NA	NA	NA	NA	BlockProc	BlockList	NA	67	{RIGHTARROW}	NA	-100	1506	neutral	NA	NA	NA	NA	NA	NA	NA	NA	NA	NA	NA	NA	NA	NA	NA	NA	NA	NA	NA	NA	NA	NA	TrialProc	TrialList	0	14	361202	17	0	17	359353	0	1	{RIGHTARROW}	-999999	0	360652	0	{RIGHTARROW}	535	361187	NA	NA	right	ooroo.bmp	354	0	NA	0	0	0	0	NA	0	0	0	NA	0	0	0	0	NA	0	0	6	1	67
Arrow Flanker 2014	12399	1	"<?xml version=""1.0""?>\n<Clock xmlns:dt=""urn:schemas-microsoft-com:datatypes""><Description dt:dt=""string"">E-Prime Primary Realtime Clock</Description><StartTime><Timestamp dt:dt=""int"">0</Timestamp><DateUtc dt:dt=""string"">2015-07-07T16:09:44Z</DateUtc></StartTime><FrequencyChanges><FrequencyChange><Frequency dt:dt=""r8"">2825566</Frequency><Timestamp dt:dt=""r8"">8739497746991</Timestamp><Current dt:dt=""r8"">0</Current><DateUtc dt:dt=""string"">2015-07-07T16:09:44Z</DateUtc></FrequencyChange></FrequencyChanges></Clock>\n"	Arrow Flanker 2014-12399-1	60.016	1.0.0.100	1	-760126595	Professional	2.0.10.353	2.0.10.353	07-07-2015	7/7/2015 4:09:44 PM	12:09:44	2.0.10.248	3	1	1	1	NA	NA	NA	NA	NA	NA	NA	NA	NA	NA	NA	NA	NA	NA	NA	NA	NA	NA	NA	NA	NA	NA	NA	NA	BlockProc	BlockList	NA	68	{LEFTARROW}	NA	-100	1219	congruent	NA	NA	NA	NA	NA	NA	NA	NA	NA	NA	NA	NA	NA	NA	NA	NA	NA	NA	NA	NA	NA	NA	TrialProc	TrialList	1	9	363901	17	0	16	361735	0	1	{LEFTARROW}	-999999	0	363435	0	{LEFTARROW}	456	363891	NA	NA	left	lllll.bmp	354	0	NA	0	0	0	0	NA	0	0	0	NA	0	0	0	0	NA	0	0	1	1	68
Arrow Flanker 2014	12399	1	"<?xml version=""1.0""?>\n<Clock xmlns:dt=""urn:schemas-microsoft-com:datatypes""><Description dt:dt=""string"">E-Prime Primary Realtime Clock</Description><StartTime><Timestamp dt:dt=""int"">0</Timestamp><DateUtc dt:dt=""string"">2015-07-07T16:09:44Z</DateUtc></StartTime><FrequencyChanges><FrequencyChange><Frequency dt:dt=""r8"">2825566</Frequency><Timestamp dt:dt=""r8"">8739497746991</Timestamp><Current dt:dt=""r8"">0</Current><DateUtc dt:dt=""string"">2015-07-07T16:09:44Z</DateUtc></FrequencyChange></FrequencyChanges></Clock>\n"	Arrow Flanker 2014-12399-1	60.016	1.0.0.100	1	-760126595	Professional	2.0.10.353	2.0.10.353	07-07-2015	7/7/2015 4:09:44 PM	12:09:44	2.0.10.248	3	1	1	1	NA	NA	NA	NA	NA	NA	NA	NA	NA	NA	NA	NA	NA	NA	NA	NA	NA	NA	NA	NA	NA	NA	NA	NA	BlockProc	BlockList	NA	69	{LEFTARROW}	NA	-100	1369	incongruent	NA	NA	NA	NA	NA	NA	NA	NA	NA	NA	NA	NA	NA	NA	NA	NA	NA	NA	NA	NA	NA	NA	TrialProc	TrialList	0	17	366084	17	0	17	364435	0	1	{LEFTARROW}	-999999	0	365551	0	{LEFTARROW}	516	366067	NA	NA	left	rrlrr.bmp	354	0	NA	0	0	0	0	NA	0	0	0	NA	0	0	0	0	NA	0	0	3	1	69
Arrow Flanker 2014	12399	1	"<?xml version=""1.0""?>\n<Clock xmlns:dt=""urn:schemas-microsoft-com:datatypes""><Description dt:dt=""string"">E-Prime Primary Realtime Clock</Description><StartTime><Timestamp dt:dt=""int"">0</Timestamp><DateUtc dt:dt=""string"">2015-07-07T16:09:44Z</DateUtc></StartTime><FrequencyChanges><FrequencyChange><Frequency dt:dt=""r8"">2825566</Frequency><Timestamp dt:dt=""r8"">8739497746991</Timestamp><Current dt:dt=""r8"">0</Current><DateUtc dt:dt=""string"">2015-07-07T16:09:44Z</DateUtc></FrequencyChange></FrequencyChanges></Clock>\n"	Arrow Flanker 2014-12399-1	60.016	1.0.0.100	1	-760126595	Professional	2.0.10.353	2.0.10.353	07-07-2015	7/7/2015 4:09:44 PM	12:09:44	2.0.10.248	3	1	1	1	NA	NA	NA	NA	NA	NA	NA	NA	NA	NA	NA	NA	NA	NA	NA	NA	NA	NA	NA	NA	NA	NA	NA	NA	BlockProc	BlockList	NA	70	{LEFTARROW}	NA	-100	1323	congruent	NA	NA	NA	NA	NA	NA	NA	NA	NA	NA	NA	NA	NA	NA	NA	NA	NA	NA	NA	NA	1	NA	TrialProc	TrialList	0	15	368434	16	0	16	366617	0	1	{LEFTARROW}	-999999	0	367917	0	{LEFTARROW}	502	368419	NA	NA	left	lllll.bmp	354	0	NA	-999999	17	368967	0	1	1565	370532	0	NA	0	0	0	0	NA	0	0	1	1	70
Arrow Flanker 2014	12399	1	"<?xml version=""1.0""?>\n<Clock xmlns:dt=""urn:schemas-microsoft-com:datatypes""><Description dt:dt=""string"">E-Prime Primary Realtime Clock</Description><StartTime><Timestamp dt:dt=""int"">0</Timestamp><DateUtc dt:dt=""string"">2015-07-07T16:09:44Z</DateUtc></StartTime><FrequencyChanges><FrequencyChange><Frequency dt:dt=""r8"">2825566</Frequency><Timestamp dt:dt=""r8"">8739497746991</Timestamp><Current dt:dt=""r8"">0</Current><DateUtc dt:dt=""string"">2015-07-07T16:09:44Z</DateUtc></FrequencyChange></FrequencyChanges></Clock>\n"	Arrow Flanker 2014-12399-1	60.016	1.0.0.100	1	-760126595	Professional	2.0.10.353	2.0.10.353	07-07-2015	7/7/2015 4:09:44 PM	12:09:44	2.0.10.248	3	1	1	1	NA	NA	NA	NA	NA	NA	NA	NA	NA	NA	NA	NA	NA	NA	NA	NA	NA	NA	NA	NA	NA	NA	NA	NA	BlockProc	BlockList	NA	71	{LEFTARROW}	NA	-100	2012	neutral	NA	NA	NA	NA	NA	NA	NA	NA	NA	NA	NA	NA	NA	NA	NA	NA	NA	NA	NA	NA	NA	NA	TrialProc	TrialList	0	19	374182	17	0	16	371699	1350	1	{LEFTARROW}	-999999	0	373549	0	{LEFTARROW}	614	374163	NA	NA	left	ooloo.bmp	354	0	NA	0	0	0	0	NA	0	0	0	NA	0	0	0	0	NA	0	0	5	1	71
Arrow Flanker 2014	12399	1	"<?xml version=""1.0""?>\n<Clock xmlns:dt=""urn:schemas-microsoft-com:datatypes""><Description dt:dt=""string"">E-Prime Primary Realtime Clock</Description><StartTime><Timestamp dt:dt=""int"">0</Timestamp><DateUtc dt:dt=""string"">2015-07-07T16:09:44Z</DateUtc></StartTime><FrequencyChanges><FrequencyChange><Frequency dt:dt=""r8"">2825566</Frequency><Timestamp dt:dt=""r8"">8739497746991</Timestamp><Current dt:dt=""r8"">0</Current><DateUtc dt:dt=""string"">2015-07-07T16:09:44Z</DateUtc></FrequencyChange></FrequencyChanges></Clock>\n"	Arrow Flanker 2014-12399-1	60.016	1.0.0.100	1	-760126595	Professional	2.0.10.353	2.0.10.353	07-07-2015	7/7/2015 4:09:44 PM	12:09:44	2.0.10.248	3	1	1	1	NA	NA	NA	NA	NA	NA	NA	NA	NA	NA	NA	NA	NA	NA	NA	NA	NA	NA	NA	NA	NA	NA	NA	NA	BlockProc	BlockList	NA	72	{RIGHTARROW}	NA	-100	1271	incongruent	NA	NA	NA	NA	NA	NA	NA	NA	NA	NA	NA	NA	NA	NA	NA	NA	NA	NA	NA	NA	NA	NA	TrialProc	TrialList	0	20	376215	16	0	16	374715	0	1	{RIGHTARROW}	-999999	0	375632	0	{RIGHTARROW}	563	376195	NA	NA	right	llrll.bmp	354	0	NA	0	0	0	0	NA	0	0	0	NA	0	0	0	0	NA	0	0	4	1	72
Arrow Flanker 2014	12399	1	"<?xml version=""1.0""?>\n<Clock xmlns:dt=""urn:schemas-microsoft-com:datatypes""><Description dt:dt=""string"">E-Prime Primary Realtime Clock</Description><StartTime><Timestamp dt:dt=""int"">0</Timestamp><DateUtc dt:dt=""string"">2015-07-07T16:09:44Z</DateUtc></StartTime><FrequencyChanges><FrequencyChange><Frequency dt:dt=""r8"">2825566</Frequency><Timestamp dt:dt=""r8"">8739497746991</Timestamp><Current dt:dt=""r8"">0</Current><DateUtc dt:dt=""string"">2015-07-07T16:09:44Z</DateUtc></FrequencyChange></FrequencyChanges></Clock>\n"	Arrow Flanker 2014-12399-1	60.016	1.0.0.100	1	-760126595	Professional	2.0.10.353	2.0.10.353	07-07-2015	7/7/2015 4:09:44 PM	12:09:44	2.0.10.248	3	1	1	1	NA	NA	NA	NA	NA	NA	NA	NA	NA	NA	NA	NA	NA	NA	NA	NA	NA	NA	NA	NA	NA	NA	NA	NA	BlockProc	BlockList	NA	73	{LEFTARROW}	NA	-100	2202	congruent	NA	NA	NA	NA	NA	NA	NA	NA	NA	NA	NA	NA	NA	NA	NA	NA	NA	NA	NA	NA	NA	NA	TrialProc	TrialList	0	12	379231	16	0	17	376748	0	1	{LEFTARROW}	-999999	16	378714	0	{LEFTARROW}	505	379219	NA	NA	left	lllll.bmp	354	0	NA	0	0	0	0	NA	0	0	0	NA	0	0	0	0	NA	0	0	1	1	73
