ExperimentName	Subject	Session	Clock.Information	DataFile.Basename	Display.RefreshRate	ExperimentVersion	Group	RandomSeed	RuntimeCapabilities	RuntimeVersion	RuntimeVersionExpected	SessionDate	SessionStartDateTimeUtc	SessionTime	StudioVersion	Block	BlockList	BlockList.Cycle	BlockList.Sample	Both	CompletelyMW	CongMeanRT	CongTotal	Fragmented	GoodByeList	GoodByeList.Cycle	GoodByeList.Sample	IncongMeanRT	IncongTotal	MapBlockList	MapBlockList.Cycle	MapBlockList.Sample	Mindwandering	MostlyMW	MostlyOT	NeutralMeanRT	NeutralTotal	NumberProbes1	NumberProbes2	OnTask	PracBlockList	PracBlockList.Cycle	PracBlockList.Sample	Procedure[Block]	Running[Block]	Sequential	Trial	CorrectAnswer	CuePositionY	CuePositionY2	DurationOfFixation	FlankerType	MapTrialList	MapTrialList.Cycle	MapTrialList.Sample	PracSlideFixationStart.DurationError	PracSlideFixationStart.OnsetDelay	PracSlideFixationStart.OnsetTime	PracSlideFixationStart.OnsetToOnsetTime	PracSlideTarget.ACC	PracSlideTarget.CRESP	PracSlideTarget.DurationError	PracSlideTarget.OnsetDelay	PracSlideTarget.OnsetTime	PracSlideTarget.OnsetToOnsetTime	PracSlideTarget.RESP	PracSlideTarget.RT	PracSlideTarget.RTTime	PracSlideTarget.Tag	PracTrialList	PracTrialList.Cycle	PracTrialList.Sample	Probe1Resp	Probe2Resp	Procedure[Trial]	Running[Trial]	SlideFixationEnd.DurationError	SlideFixationEnd.OnsetDelay	SlideFixationEnd.OnsetTime	SlideFixationEnd.OnsetToOnsetTime	SlideFixationStart.DurationError	SlideFixationStart.OnsetDelay	SlideFixationStart.OnsetTime	SlideFixationStart.OnsetToOnsetTime	SlideTarget.ACC	SlideTarget.CRESP	SlideTarget.DurationError	SlideTarget.OnsetDelay	SlideTarget.OnsetTime	SlideTarget.OnsetToOnsetTime	SlideTarget.RESP	SlideTarget.RT	SlideTarget.RTTime	SlideTarget.Tag	TargerDirection	TargetDirection	TargetImage	TargetPosition	ThoughtProbe1.ACC	ThoughtProbe1.CRESP	ThoughtProbe1.DurationError	ThoughtProbe1.OnsetDelay	ThoughtProbe1.OnsetTime	ThoughtProbe1.OnsetToOnsetTime	ThoughtProbe1.RESP	ThoughtProbe1.RT	ThoughtProbe1.RTTime	ThoughtProbe2.ACC	ThoughtProbe2.CRESP	ThoughtProbe2.DurationError	ThoughtProbe2.OnsetDelay	ThoughtProbe2.OnsetTime	ThoughtProbe2.OnsetToOnsetTime	ThoughtProbe2.RESP	ThoughtProbe2.RT	ThoughtProbe2.RTTime	TrialList	TrialList.Cycle	TrialList.Sample
Arrow Flanker 2014	12409	1	"<?xml version=""1.0""?>\n<Clock xmlns:dt=""urn:schemas-microsoft-com:datatypes""><Description dt:dt=""string"">E-Prime Primary Realtime Clock</Description><StartTime><Timestamp dt:dt=""int"">0</Timestamp><DateUtc dt:dt=""string"">2015-07-10T20:27:51Z</DateUtc></StartTime><FrequencyChanges><FrequencyChange><Frequency dt:dt=""r8"">2825703</Frequency><Timestamp dt:dt=""r8"">7457256717346</Timestamp><Current dt:dt=""r8"">0</Current><DateUtc dt:dt=""string"">2015-07-10T20:27:51Z</DateUtc></FrequencyChange></FrequencyChanges></Clock>\n"	Arrow Flanker 2014-12409-1	60.019	1.0.0.98	1	1194037059	Professional	2.0.10.353	2.0.10.353	07-10-2015	7/10/2015 8:27:52 PM	16:27:52	2.0.10.248	1	NA	NA	NA	NA	NA	NA	NA	NA	NA	NA	NA	NA	NA	1	1	1	NA	NA	NA	NA	NA	NA	NA	NA	NA	NA	NA	MapBlockProc	MapBlockList	NA	1	{LEFTARROW}	-100	NA	1310	NA	1	1	1	0	20	139300	1316	1	{LEFTARROW}	-999999	0	141116	0	{LEFTARROW}	908	142024	NA	NA	NA	NA	NA	NA	MapTrialProc	MapTrialList	NA	NA	NA	NA	NA	NA	NA	NA	NA	NA	NA	NA	NA	NA	NA	NA	NA	NA	left	NA	L.bmp	354	NA	NA	NA	NA	NA	NA	NA	NA	NA	NA	NA	NA	NA	NA	NA	NA	NA	NA	NA	NA	NA
Arrow Flanker 2014	12409	1	"<?xml version=""1.0""?>\n<Clock xmlns:dt=""urn:schemas-microsoft-com:datatypes""><Description dt:dt=""string"">E-Prime Primary Realtime Clock</Description><StartTime><Timestamp dt:dt=""int"">0</Timestamp><DateUtc dt:dt=""string"">2015-07-10T20:27:51Z</DateUtc></StartTime><FrequencyChanges><FrequencyChange><Frequency dt:dt=""r8"">2825703</Frequency><Timestamp dt:dt=""r8"">7457256717346</Timestamp><Current dt:dt=""r8"">0</Current><DateUtc dt:dt=""string"">2015-07-10T20:27:51Z</DateUtc></FrequencyChange></FrequencyChanges></Clock>\n"	Arrow Flanker 2014-12409-1	60.019	1.0.0.98	1	1194037059	Professional	2.0.10.353	2.0.10.353	07-10-2015	7/10/2015 8:27:52 PM	16:27:52	2.0.10.248	1	NA	NA	NA	NA	NA	NA	NA	NA	NA	NA	NA	NA	NA	1	1	1	NA	NA	NA	NA	NA	NA	NA	NA	NA	NA	NA	MapBlockProc	MapBlockList	NA	2	{LEFTARROW}	-100	NA	718	NA	1	1	2	0	16	143565	733	1	{LEFTARROW}	-999999	0	144798	0	{LEFTARROW}	714	145512	NA	NA	NA	NA	NA	NA	MapTrialProc	MapTrialList	NA	NA	NA	NA	NA	NA	NA	NA	NA	NA	NA	NA	NA	NA	NA	NA	NA	NA	left	NA	L.bmp	354	NA	NA	NA	NA	NA	NA	NA	NA	NA	NA	NA	NA	NA	NA	NA	NA	NA	NA	NA	NA	NA
Arrow Flanker 2014	12409	1	"<?xml version=""1.0""?>\n<Clock xmlns:dt=""urn:schemas-microsoft-com:datatypes""><Description dt:dt=""string"">E-Prime Primary Realtime Clock</Description><StartTime><Timestamp dt:dt=""int"">0</Timestamp><DateUtc dt:dt=""string"">2015-07-10T20:27:51Z</DateUtc></StartTime><FrequencyChanges><FrequencyChange><Frequency dt:dt=""r8"">2825703</Frequency><Timestamp dt:dt=""r8"">7457256717346</Timestamp><Current dt:dt=""r8"">0</Current><DateUtc dt:dt=""string"">2015-07-10T20:27:51Z</DateUtc></FrequencyChange></FrequencyChanges></Clock>\n"	Arrow Flanker 2014-12409-1	60.019	1.0.0.98	1	1194037059	Professional	2.0.10.353	2.0.10.353	07-10-2015	7/10/2015 8:27:52 PM	16:27:52	2.0.10.248	1	NA	NA	NA	NA	NA	NA	NA	NA	NA	NA	NA	NA	NA	1	1	1	NA	NA	NA	NA	NA	NA	NA	NA	NA	NA	NA	MapBlockProc	MapBlockList	NA	3	{RIGHTARROW}	-100	NA	1267	NA	2	1	3	0	16	147047	1283	1	{RIGHTARROW}	-999999	0	148830	0	{RIGHTARROW}	537	149367	NA	NA	NA	NA	NA	NA	MapTrialProc	MapTrialList	NA	NA	NA	NA	NA	NA	NA	NA	NA	NA	NA	NA	NA	NA	NA	NA	NA	NA	right	NA	R.bmp	354	NA	NA	NA	NA	NA	NA	NA	NA	NA	NA	NA	NA	NA	NA	NA	NA	NA	NA	NA	NA	NA
Arrow Flanker 2014	12409	1	"<?xml version=""1.0""?>\n<Clock xmlns:dt=""urn:schemas-microsoft-com:datatypes""><Description dt:dt=""string"">E-Prime Primary Realtime Clock</Description><StartTime><Timestamp dt:dt=""int"">0</Timestamp><DateUtc dt:dt=""string"">2015-07-10T20:27:51Z</DateUtc></StartTime><FrequencyChanges><FrequencyChange><Frequency dt:dt=""r8"">2825703</Frequency><Timestamp dt:dt=""r8"">7457256717346</Timestamp><Current dt:dt=""r8"">0</Current><DateUtc dt:dt=""string"">2015-07-10T20:27:51Z</DateUtc></FrequencyChange></FrequencyChanges></Clock>\n"	Arrow Flanker 2014-12409-1	60.019	1.0.0.98	1	1194037059	Professional	2.0.10.353	2.0.10.353	07-10-2015	7/10/2015 8:27:52 PM	16:27:52	2.0.10.248	1	NA	NA	NA	NA	NA	NA	NA	NA	NA	NA	NA	NA	NA	1	1	1	NA	NA	NA	NA	NA	NA	NA	NA	NA	NA	NA	MapBlockProc	MapBlockList	NA	4	{LEFTARROW}	-100	NA	929	NA	1	1	4	0	16	150896	933	1	{LEFTARROW}	-999999	0	152329	0	{LEFTARROW}	590	152919	NA	NA	NA	NA	NA	NA	MapTrialProc	MapTrialList	NA	NA	NA	NA	NA	NA	NA	NA	NA	NA	NA	NA	NA	NA	NA	NA	NA	NA	left	NA	L.bmp	354	NA	NA	NA	NA	NA	NA	NA	NA	NA	NA	NA	NA	NA	NA	NA	NA	NA	NA	NA	NA	NA
Arrow Flanker 2014	12409	1	"<?xml version=""1.0""?>\n<Clock xmlns:dt=""urn:schemas-microsoft-com:datatypes""><Description dt:dt=""string"">E-Prime Primary Realtime Clock</Description><StartTime><Timestamp dt:dt=""int"">0</Timestamp><DateUtc dt:dt=""string"">2015-07-10T20:27:51Z</DateUtc></StartTime><FrequencyChanges><FrequencyChange><Frequency dt:dt=""r8"">2825703</Frequency><Timestamp dt:dt=""r8"">7457256717346</Timestamp><Current dt:dt=""r8"">0</Current><DateUtc dt:dt=""string"">2015-07-10T20:27:51Z</DateUtc></FrequencyChange></FrequencyChanges></Clock>\n"	Arrow Flanker 2014-12409-1	60.019	1.0.0.98	1	1194037059	Professional	2.0.10.353	2.0.10.353	07-10-2015	7/10/2015 8:27:52 PM	16:27:52	2.0.10.248	1	NA	NA	NA	NA	NA	NA	NA	NA	NA	NA	NA	NA	NA	1	1	1	NA	NA	NA	NA	NA	NA	NA	NA	NA	NA	NA	MapBlockProc	MapBlockList	NA	5	{LEFTARROW}	-100	NA	1400	NA	1	1	5	0	16	154445	1400	1	{LEFTARROW}	-999999	0	156344	0	{LEFTARROW}	575	156919	NA	NA	NA	NA	NA	NA	MapTrialProc	MapTrialList	NA	NA	NA	NA	NA	NA	NA	NA	NA	NA	NA	NA	NA	NA	NA	NA	NA	NA	left	NA	L.bmp	354	NA	NA	NA	NA	NA	NA	NA	NA	NA	NA	NA	NA	NA	NA	NA	NA	NA	NA	NA	NA	NA
Arrow Flanker 2014	12409	1	"<?xml version=""1.0""?>\n<Clock xmlns:dt=""urn:schemas-microsoft-com:datatypes""><Description dt:dt=""string"">E-Prime Primary Realtime Clock</Description><StartTime><Timestamp dt:dt=""int"">0</Timestamp><DateUtc dt:dt=""string"">2015-07-10T20:27:51Z</DateUtc></StartTime><FrequencyChanges><FrequencyChange><Frequency dt:dt=""r8"">2825703</Frequency><Timestamp dt:dt=""r8"">7457256717346</Timestamp><Current dt:dt=""r8"">0</Current><DateUtc dt:dt=""string"">2015-07-10T20:27:51Z</DateUtc></FrequencyChange></FrequencyChanges></Clock>\n"	Arrow Flanker 2014-12409-1	60.019	1.0.0.98	1	1194037059	Professional	2.0.10.353	2.0.10.353	07-10-2015	7/10/2015 8:27:52 PM	16:27:52	2.0.10.248	1	NA	NA	NA	NA	NA	NA	NA	NA	NA	NA	NA	NA	NA	1	1	1	NA	NA	NA	NA	NA	NA	NA	NA	NA	NA	NA	MapBlockProc	MapBlockList	NA	6	{RIGHTARROW}	-100	NA	1483	NA	2	1	6	0	16	158460	1483	1	{RIGHTARROW}	-999999	0	160443	0	{RIGHTARROW}	539	160982	NA	NA	NA	NA	NA	NA	MapTrialProc	MapTrialList	NA	NA	NA	NA	NA	NA	NA	NA	NA	NA	NA	NA	NA	NA	NA	NA	NA	NA	right	NA	R.bmp	354	NA	NA	NA	NA	NA	NA	NA	NA	NA	NA	NA	NA	NA	NA	NA	NA	NA	NA	NA	NA	NA
Arrow Flanker 2014	12409	1	"<?xml version=""1.0""?>\n<Clock xmlns:dt=""urn:schemas-microsoft-com:datatypes""><Description dt:dt=""string"">E-Prime Primary Realtime Clock</Description><StartTime><Timestamp dt:dt=""int"">0</Timestamp><DateUtc dt:dt=""string"">2015-07-10T20:27:51Z</DateUtc></StartTime><FrequencyChanges><FrequencyChange><Frequency dt:dt=""r8"">2825703</Frequency><Timestamp dt:dt=""r8"">7457256717346</Timestamp><Current dt:dt=""r8"">0</Current><DateUtc dt:dt=""string"">2015-07-10T20:27:51Z</DateUtc></FrequencyChange></FrequencyChanges></Clock>\n"	Arrow Flanker 2014-12409-1	60.019	1.0.0.98	1	1194037059	Professional	2.0.10.353	2.0.10.353	07-10-2015	7/10/2015 8:27:52 PM	16:27:52	2.0.10.248	1	NA	NA	NA	NA	NA	NA	NA	NA	NA	NA	NA	NA	NA	1	1	1	NA	NA	NA	NA	NA	NA	NA	NA	NA	NA	NA	MapBlockProc	MapBlockList	NA	7	{RIGHTARROW}	-100	NA	499	NA	2	1	7	0	16	162509	500	1	{RIGHTARROW}	-999999	0	163509	0	{RIGHTARROW}	497	164006	NA	NA	NA	NA	NA	NA	MapTrialProc	MapTrialList	NA	NA	NA	NA	NA	NA	NA	NA	NA	NA	NA	NA	NA	NA	NA	NA	NA	NA	right	NA	R.bmp	354	NA	NA	NA	NA	NA	NA	NA	NA	NA	NA	NA	NA	NA	NA	NA	NA	NA	NA	NA	NA	NA
Arrow Flanker 2014	12409	1	"<?xml version=""1.0""?>\n<Clock xmlns:dt=""urn:schemas-microsoft-com:datatypes""><Description dt:dt=""string"">E-Prime Primary Realtime Clock</Description><StartTime><Timestamp dt:dt=""int"">0</Timestamp><DateUtc dt:dt=""string"">2015-07-10T20:27:51Z</DateUtc></StartTime><FrequencyChanges><FrequencyChange><Frequency dt:dt=""r8"">2825703</Frequency><Timestamp dt:dt=""r8"">7457256717346</Timestamp><Current dt:dt=""r8"">0</Current><DateUtc dt:dt=""string"">2015-07-10T20:27:51Z</DateUtc></FrequencyChange></FrequencyChanges></Clock>\n"	Arrow Flanker 2014-12409-1	60.019	1.0.0.98	1	1194037059	Professional	2.0.10.353	2.0.10.353	07-10-2015	7/10/2015 8:27:52 PM	16:27:52	2.0.10.248	1	NA	NA	NA	NA	NA	NA	NA	NA	NA	NA	NA	NA	NA	1	1	1	NA	NA	NA	NA	NA	NA	NA	NA	NA	NA	NA	MapBlockProc	MapBlockList	NA	8	{RIGHTARROW}	-100	NA	837	NA	2	1	8	0	17	165542	849	1	{RIGHTARROW}	-999999	0	166891	0	{RIGHTARROW}	563	167454	NA	NA	NA	NA	NA	NA	MapTrialProc	MapTrialList	NA	NA	NA	NA	NA	NA	NA	NA	NA	NA	NA	NA	NA	NA	NA	NA	NA	NA	right	NA	R.bmp	354	NA	NA	NA	NA	NA	NA	NA	NA	NA	NA	NA	NA	NA	NA	NA	NA	NA	NA	NA	NA	NA
Arrow Flanker 2014	12409	1	"<?xml version=""1.0""?>\n<Clock xmlns:dt=""urn:schemas-microsoft-com:datatypes""><Description dt:dt=""string"">E-Prime Primary Realtime Clock</Description><StartTime><Timestamp dt:dt=""int"">0</Timestamp><DateUtc dt:dt=""string"">2015-07-10T20:27:51Z</DateUtc></StartTime><FrequencyChanges><FrequencyChange><Frequency dt:dt=""r8"">2825703</Frequency><Timestamp dt:dt=""r8"">7457256717346</Timestamp><Current dt:dt=""r8"">0</Current><DateUtc dt:dt=""string"">2015-07-10T20:27:51Z</DateUtc></FrequencyChange></FrequencyChanges></Clock>\n"	Arrow Flanker 2014-12409-1	60.019	1.0.0.98	1	1194037059	Professional	2.0.10.353	2.0.10.353	07-10-2015	7/10/2015 8:27:52 PM	16:27:52	2.0.10.248	1	NA	NA	NA	NA	NA	NA	NA	NA	NA	NA	NA	NA	NA	1	1	1	NA	NA	NA	NA	NA	NA	NA	NA	NA	NA	NA	MapBlockProc	MapBlockList	NA	9	{RIGHTARROW}	-100	NA	1516	NA	2	1	9	0	16	168990	1517	1	{RIGHTARROW}	-999999	16	171023	0	{RIGHTARROW}	647	171670	NA	NA	NA	NA	NA	NA	MapTrialProc	MapTrialList	NA	NA	NA	NA	NA	NA	NA	NA	NA	NA	NA	NA	NA	NA	NA	NA	NA	NA	right	NA	R.bmp	354	NA	NA	NA	NA	NA	NA	NA	NA	NA	NA	NA	NA	NA	NA	NA	NA	NA	NA	NA	NA	NA
Arrow Flanker 2014	12409	1	"<?xml version=""1.0""?>\n<Clock xmlns:dt=""urn:schemas-microsoft-com:datatypes""><Description dt:dt=""string"">E-Prime Primary Realtime Clock</Description><StartTime><Timestamp dt:dt=""int"">0</Timestamp><DateUtc dt:dt=""string"">2015-07-10T20:27:51Z</DateUtc></StartTime><FrequencyChanges><FrequencyChange><Frequency dt:dt=""r8"">2825703</Frequency><Timestamp dt:dt=""r8"">7457256717346</Timestamp><Current dt:dt=""r8"">0</Current><DateUtc dt:dt=""string"">2015-07-10T20:27:51Z</DateUtc></FrequencyChange></FrequencyChanges></Clock>\n"	Arrow Flanker 2014-12409-1	60.019	1.0.0.98	1	1194037059	Professional	2.0.10.353	2.0.10.353	07-10-2015	7/10/2015 8:27:52 PM	16:27:52	2.0.10.248	1	NA	NA	NA	NA	NA	NA	NA	NA	NA	NA	NA	NA	NA	1	1	1	NA	NA	NA	NA	NA	NA	NA	NA	NA	NA	NA	MapBlockProc	MapBlockList	NA	10	{LEFTARROW}	-100	NA	1173	NA	1	1	10	0	16	173206	1183	1	{LEFTARROW}	-999999	0	174889	0	{LEFTARROW}	980	175869	NA	NA	NA	NA	NA	NA	MapTrialProc	MapTrialList	NA	NA	NA	NA	NA	NA	NA	NA	NA	NA	NA	NA	NA	NA	NA	NA	NA	NA	left	NA	L.bmp	354	NA	NA	NA	NA	NA	NA	NA	NA	NA	NA	NA	NA	NA	NA	NA	NA	NA	NA	NA	NA	NA
Arrow Flanker 2014	12409	1	"<?xml version=""1.0""?>\n<Clock xmlns:dt=""urn:schemas-microsoft-com:datatypes""><Description dt:dt=""string"">E-Prime Primary Realtime Clock</Description><StartTime><Timestamp dt:dt=""int"">0</Timestamp><DateUtc dt:dt=""string"">2015-07-10T20:27:51Z</DateUtc></StartTime><FrequencyChanges><FrequencyChange><Frequency dt:dt=""r8"">2825703</Frequency><Timestamp dt:dt=""r8"">7457256717346</Timestamp><Current dt:dt=""r8"">0</Current><DateUtc dt:dt=""string"">2015-07-10T20:27:51Z</DateUtc></FrequencyChange></FrequencyChanges></Clock>\n"	Arrow Flanker 2014-12409-1	60.019	1.0.0.98	1	1194037059	Professional	2.0.10.353	2.0.10.353	07-10-2015	7/10/2015 8:27:52 PM	16:27:52	2.0.10.248	2	NA	NA	NA	NA	NA	NA	NA	NA	NA	NA	NA	NA	NA	NA	NA	NA	NA	NA	NA	NA	NA	NA	NA	NA	1	1	1	PracBlockProc	PracBlockList	NA	1	{LEFTARROW}	-100	NA	734	incongruent	NA	NA	NA	0	6	207745	750	1	{LEFTARROW}	-999999	0	208995	0	{LEFTARROW}	1128	210123	NA	2	1	1	NA	NA	PracTrialProc	PracTrialList	NA	NA	NA	NA	NA	NA	NA	NA	NA	NA	NA	NA	NA	NA	NA	NA	NA	NA	left	NA	rrlrr.bmp	354	NA	NA	NA	NA	NA	NA	NA	NA	NA	NA	NA	NA	NA	NA	NA	NA	NA	NA	NA	NA	NA
Arrow Flanker 2014	12409	1	"<?xml version=""1.0""?>\n<Clock xmlns:dt=""urn:schemas-microsoft-com:datatypes""><Description dt:dt=""string"">E-Prime Primary Realtime Clock</Description><StartTime><Timestamp dt:dt=""int"">0</Timestamp><DateUtc dt:dt=""string"">2015-07-10T20:27:51Z</DateUtc></StartTime><FrequencyChanges><FrequencyChange><Frequency dt:dt=""r8"">2825703</Frequency><Timestamp dt:dt=""r8"">7457256717346</Timestamp><Current dt:dt=""r8"">0</Current><DateUtc dt:dt=""string"">2015-07-10T20:27:51Z</DateUtc></FrequencyChange></FrequencyChanges></Clock>\n"	Arrow Flanker 2014-12409-1	60.019	1.0.0.98	1	1194037059	Professional	2.0.10.353	2.0.10.353	07-10-2015	7/10/2015 8:27:52 PM	16:27:52	2.0.10.248	2	NA	NA	NA	NA	NA	NA	NA	NA	NA	NA	NA	NA	NA	NA	NA	NA	NA	NA	NA	NA	NA	NA	NA	NA	1	1	1	PracBlockProc	PracBlockList	NA	2	{RIGHTARROW}	-100	NA	521	congruent	NA	NA	NA	0	16	211660	534	1	{RIGHTARROW}	-999999	0	212693	0	{RIGHTARROW}	1086	213779	NA	4	1	2	NA	NA	PracTrialProc	PracTrialList	NA	NA	NA	NA	NA	NA	NA	NA	NA	NA	NA	NA	NA	NA	NA	NA	NA	NA	right	NA	rrrrr.bmp	354	NA	NA	NA	NA	NA	NA	NA	NA	NA	NA	NA	NA	NA	NA	NA	NA	NA	NA	NA	NA	NA
Arrow Flanker 2014	12409	1	"<?xml version=""1.0""?>\n<Clock xmlns:dt=""urn:schemas-microsoft-com:datatypes""><Description dt:dt=""string"">E-Prime Primary Realtime Clock</Description><StartTime><Timestamp dt:dt=""int"">0</Timestamp><DateUtc dt:dt=""string"">2015-07-10T20:27:51Z</DateUtc></StartTime><FrequencyChanges><FrequencyChange><Frequency dt:dt=""r8"">2825703</Frequency><Timestamp dt:dt=""r8"">7457256717346</Timestamp><Current dt:dt=""r8"">0</Current><DateUtc dt:dt=""string"">2015-07-10T20:27:51Z</DateUtc></FrequencyChange></FrequencyChanges></Clock>\n"	Arrow Flanker 2014-12409-1	60.019	1.0.0.98	1	1194037059	Professional	2.0.10.353	2.0.10.353	07-10-2015	7/10/2015 8:27:52 PM	16:27:52	2.0.10.248	2	NA	NA	NA	NA	NA	NA	NA	NA	NA	NA	NA	NA	NA	NA	NA	NA	NA	NA	NA	NA	NA	NA	NA	NA	1	1	1	PracBlockProc	PracBlockList	NA	3	{LEFTARROW}	-100	NA	873	congruent	NA	NA	NA	0	16	215309	883	1	{LEFTARROW}	-999999	0	216692	0	{LEFTARROW}	838	217530	NA	1	1	3	NA	NA	PracTrialProc	PracTrialList	NA	NA	NA	NA	NA	NA	NA	NA	NA	NA	NA	NA	NA	NA	NA	NA	NA	NA	left	NA	lllll.bmp	354	NA	NA	NA	NA	NA	NA	NA	NA	NA	NA	NA	NA	NA	NA	NA	NA	NA	NA	NA	NA	NA
Arrow Flanker 2014	12409	1	"<?xml version=""1.0""?>\n<Clock xmlns:dt=""urn:schemas-microsoft-com:datatypes""><Description dt:dt=""string"">E-Prime Primary Realtime Clock</Description><StartTime><Timestamp dt:dt=""int"">0</Timestamp><DateUtc dt:dt=""string"">2015-07-10T20:27:51Z</DateUtc></StartTime><FrequencyChanges><FrequencyChange><Frequency dt:dt=""r8"">2825703</Frequency><Timestamp dt:dt=""r8"">7457256717346</Timestamp><Current dt:dt=""r8"">0</Current><DateUtc dt:dt=""string"">2015-07-10T20:27:51Z</DateUtc></FrequencyChange></FrequencyChanges></Clock>\n"	Arrow Flanker 2014-12409-1	60.019	1.0.0.98	1	1194037059	Professional	2.0.10.353	2.0.10.353	07-10-2015	7/10/2015 8:27:52 PM	16:27:52	2.0.10.248	2	NA	NA	NA	NA	NA	NA	NA	NA	NA	NA	NA	NA	NA	NA	NA	NA	NA	NA	NA	NA	NA	NA	NA	NA	1	1	1	PracBlockProc	PracBlockList	NA	4	{RIGHTARROW}	-100	NA	1297	incongruent	NA	NA	NA	0	16	219058	1300	1	{RIGHTARROW}	-999999	-1	220857	0	{RIGHTARROW}	809	221666	NA	5	1	4	NA	NA	PracTrialProc	PracTrialList	NA	NA	NA	NA	NA	NA	NA	NA	NA	NA	NA	NA	NA	NA	NA	NA	NA	NA	right	NA	llrll.bmp	354	NA	NA	NA	NA	NA	NA	NA	NA	NA	NA	NA	NA	NA	NA	NA	NA	NA	NA	NA	NA	NA
Arrow Flanker 2014	12409	1	"<?xml version=""1.0""?>\n<Clock xmlns:dt=""urn:schemas-microsoft-com:datatypes""><Description dt:dt=""string"">E-Prime Primary Realtime Clock</Description><StartTime><Timestamp dt:dt=""int"">0</Timestamp><DateUtc dt:dt=""string"">2015-07-10T20:27:51Z</DateUtc></StartTime><FrequencyChanges><FrequencyChange><Frequency dt:dt=""r8"">2825703</Frequency><Timestamp dt:dt=""r8"">7457256717346</Timestamp><Current dt:dt=""r8"">0</Current><DateUtc dt:dt=""string"">2015-07-10T20:27:51Z</DateUtc></FrequencyChange></FrequencyChanges></Clock>\n"	Arrow Flanker 2014-12409-1	60.019	1.0.0.98	1	1194037059	Professional	2.0.10.353	2.0.10.353	07-10-2015	7/10/2015 8:27:52 PM	16:27:52	2.0.10.248	2	NA	NA	NA	NA	NA	NA	NA	NA	NA	NA	NA	NA	NA	NA	NA	NA	NA	NA	NA	NA	NA	NA	NA	NA	1	1	1	PracBlockProc	PracBlockList	NA	5	{RIGHTARROW}	-100	NA	1221	neutral	NA	NA	NA	0	16	223207	1233	1	{RIGHTARROW}	-999999	0	224940	0	{RIGHTARROW}	726	225666	NA	6	1	5	NA	NA	PracTrialProc	PracTrialList	NA	NA	NA	NA	NA	NA	NA	NA	NA	NA	NA	NA	NA	NA	NA	NA	NA	NA	right	NA	ooroo.bmp	354	NA	NA	NA	NA	NA	NA	NA	NA	NA	NA	NA	NA	NA	NA	NA	NA	NA	NA	NA	NA	NA
Arrow Flanker 2014	12409	1	"<?xml version=""1.0""?>\n<Clock xmlns:dt=""urn:schemas-microsoft-com:datatypes""><Description dt:dt=""string"">E-Prime Primary Realtime Clock</Description><StartTime><Timestamp dt:dt=""int"">0</Timestamp><DateUtc dt:dt=""string"">2015-07-10T20:27:51Z</DateUtc></StartTime><FrequencyChanges><FrequencyChange><Frequency dt:dt=""r8"">2825703</Frequency><Timestamp dt:dt=""r8"">7457256717346</Timestamp><Current dt:dt=""r8"">0</Current><DateUtc dt:dt=""string"">2015-07-10T20:27:51Z</DateUtc></FrequencyChange></FrequencyChanges></Clock>\n"	Arrow Flanker 2014-12409-1	60.019	1.0.0.98	1	1194037059	Professional	2.0.10.353	2.0.10.353	07-10-2015	7/10/2015 8:27:52 PM	16:27:52	2.0.10.248	2	NA	NA	NA	NA	NA	NA	NA	NA	NA	NA	NA	NA	NA	NA	NA	NA	NA	NA	NA	NA	NA	NA	NA	NA	1	1	1	PracBlockProc	PracBlockList	NA	6	{LEFTARROW}	-100	NA	1412	neutral	NA	NA	NA	0	17	227206	1416	1	{LEFTARROW}	-999999	0	229122	0	{LEFTARROW}	783	229905	NA	3	1	6	NA	NA	PracTrialProc	PracTrialList	NA	NA	NA	NA	NA	NA	NA	NA	NA	NA	NA	NA	NA	NA	NA	NA	NA	NA	left	NA	ooloo.bmp	354	NA	NA	NA	NA	NA	NA	NA	NA	NA	NA	NA	NA	NA	NA	NA	NA	NA	NA	NA	NA	NA
Arrow Flanker 2014	12409	1	"<?xml version=""1.0""?>\n<Clock xmlns:dt=""urn:schemas-microsoft-com:datatypes""><Description dt:dt=""string"">E-Prime Primary Realtime Clock</Description><StartTime><Timestamp dt:dt=""int"">0</Timestamp><DateUtc dt:dt=""string"">2015-07-10T20:27:51Z</DateUtc></StartTime><FrequencyChanges><FrequencyChange><Frequency dt:dt=""r8"">2825703</Frequency><Timestamp dt:dt=""r8"">7457256717346</Timestamp><Current dt:dt=""r8"">0</Current><DateUtc dt:dt=""string"">2015-07-10T20:27:51Z</DateUtc></FrequencyChange></FrequencyChanges></Clock>\n"	Arrow Flanker 2014-12409-1	60.019	1.0.0.98	1	1194037059	Professional	2.0.10.353	2.0.10.353	07-10-2015	7/10/2015 8:27:52 PM	16:27:52	2.0.10.248	3	1	1	1	NA	NA	NA	NA	NA	NA	NA	NA	NA	NA	NA	NA	NA	NA	NA	NA	NA	NA	NA	NA	NA	NA	NA	NA	BlockProc	BlockList	NA	1	{RIGHTARROW}	NA	-100	1588	incongruent	NA	NA	NA	NA	NA	NA	NA	NA	NA	NA	NA	NA	NA	NA	NA	NA	NA	NA	NA	NA	NA	NA	TrialProc	TrialList	1	20	245716	17	0	16	243150	1167	1	{RIGHTARROW}	-999999	0	244817	0	{RIGHTARROW}	879	245696	NA	NA	right	llrll.bmp	354	0	NA	0	0	0	0	NA	0	0	0	NA	0	0	0	0	NA	0	0	4	1	1
Arrow Flanker 2014	12409	1	"<?xml version=""1.0""?>\n<Clock xmlns:dt=""urn:schemas-microsoft-com:datatypes""><Description dt:dt=""string"">E-Prime Primary Realtime Clock</Description><StartTime><Timestamp dt:dt=""int"">0</Timestamp><DateUtc dt:dt=""string"">2015-07-10T20:27:51Z</DateUtc></StartTime><FrequencyChanges><FrequencyChange><Frequency dt:dt=""r8"">2825703</Frequency><Timestamp dt:dt=""r8"">7457256717346</Timestamp><Current dt:dt=""r8"">0</Current><DateUtc dt:dt=""string"">2015-07-10T20:27:51Z</DateUtc></FrequencyChange></FrequencyChanges></Clock>\n"	Arrow Flanker 2014-12409-1	60.019	1.0.0.98	1	1194037059	Professional	2.0.10.353	2.0.10.353	07-10-2015	7/10/2015 8:27:52 PM	16:27:52	2.0.10.248	3	1	1	1	NA	NA	NA	NA	NA	NA	NA	NA	NA	NA	NA	NA	NA	NA	NA	NA	NA	NA	NA	NA	NA	NA	NA	NA	BlockProc	BlockList	NA	2	{RIGHTARROW}	NA	-100	1888	incongruent	NA	NA	NA	NA	NA	NA	NA	NA	NA	NA	NA	NA	NA	NA	NA	NA	NA	NA	NA	NA	NA	NA	TrialProc	TrialList	0	16	248832	17	0	17	246250	1249	1	{RIGHTARROW}	-999999	0	247999	0	{RIGHTARROW}	817	248816	NA	NA	right	llrll.bmp	354	0	NA	0	0	0	0	NA	0	0	0	NA	0	0	0	0	NA	0	0	4	1	2
Arrow Flanker 2014	12409	1	"<?xml version=""1.0""?>\n<Clock xmlns:dt=""urn:schemas-microsoft-com:datatypes""><Description dt:dt=""string"">E-Prime Primary Realtime Clock</Description><StartTime><Timestamp dt:dt=""int"">0</Timestamp><DateUtc dt:dt=""string"">2015-07-10T20:27:51Z</DateUtc></StartTime><FrequencyChanges><FrequencyChange><Frequency dt:dt=""r8"">2825703</Frequency><Timestamp dt:dt=""r8"">7457256717346</Timestamp><Current dt:dt=""r8"">0</Current><DateUtc dt:dt=""string"">2015-07-10T20:27:51Z</DateUtc></FrequencyChange></FrequencyChanges></Clock>\n"	Arrow Flanker 2014-12409-1	60.019	1.0.0.98	1	1194037059	Professional	2.0.10.353	2.0.10.353	07-10-2015	7/10/2015 8:27:52 PM	16:27:52	2.0.10.248	3	1	1	1	NA	NA	NA	NA	NA	NA	NA	NA	NA	NA	NA	NA	NA	NA	NA	NA	NA	NA	NA	NA	NA	NA	NA	NA	BlockProc	BlockList	NA	3	{RIGHTARROW}	NA	-100	583	neutral	NA	NA	NA	NA	NA	NA	NA	NA	NA	NA	NA	NA	NA	NA	NA	NA	NA	NA	NA	NA	NA	NA	TrialProc	TrialList	1	5	251181	17	0	16	249365	517	1	{RIGHTARROW}	-999999	0	250382	0	{RIGHTARROW}	794	251176	NA	NA	right	ooroo.bmp	354	0	NA	0	0	0	0	NA	0	0	0	NA	0	0	0	0	NA	0	0	6	1	3
Arrow Flanker 2014	12409	1	"<?xml version=""1.0""?>\n<Clock xmlns:dt=""urn:schemas-microsoft-com:datatypes""><Description dt:dt=""string"">E-Prime Primary Realtime Clock</Description><StartTime><Timestamp dt:dt=""int"">0</Timestamp><DateUtc dt:dt=""string"">2015-07-10T20:27:51Z</DateUtc></StartTime><FrequencyChanges><FrequencyChange><Frequency dt:dt=""r8"">2825703</Frequency><Timestamp dt:dt=""r8"">7457256717346</Timestamp><Current dt:dt=""r8"">0</Current><DateUtc dt:dt=""string"">2015-07-10T20:27:51Z</DateUtc></FrequencyChange></FrequencyChanges></Clock>\n"	Arrow Flanker 2014-12409-1	60.019	1.0.0.98	1	1194037059	Professional	2.0.10.353	2.0.10.353	07-10-2015	7/10/2015 8:27:52 PM	16:27:52	2.0.10.248	3	1	1	1	NA	NA	NA	NA	NA	NA	NA	NA	NA	NA	NA	NA	NA	NA	NA	NA	NA	NA	NA	NA	NA	NA	NA	NA	BlockProc	BlockList	NA	4	{RIGHTARROW}	NA	-100	1014	neutral	NA	NA	NA	NA	NA	NA	NA	NA	NA	NA	NA	NA	NA	NA	NA	NA	NA	NA	NA	NA	NA	NA	TrialProc	TrialList	1	7	253647	17	0	17	251715	799	1	{RIGHTARROW}	-999999	0	253014	0	{RIGHTARROW}	626	253640	NA	NA	right	ooroo.bmp	354	0	NA	0	0	0	0	NA	0	0	0	NA	0	0	0	0	NA	0	0	6	1	4
Arrow Flanker 2014	12409	1	"<?xml version=""1.0""?>\n<Clock xmlns:dt=""urn:schemas-microsoft-com:datatypes""><Description dt:dt=""string"">E-Prime Primary Realtime Clock</Description><StartTime><Timestamp dt:dt=""int"">0</Timestamp><DateUtc dt:dt=""string"">2015-07-10T20:27:51Z</DateUtc></StartTime><FrequencyChanges><FrequencyChange><Frequency dt:dt=""r8"">2825703</Frequency><Timestamp dt:dt=""r8"">7457256717346</Timestamp><Current dt:dt=""r8"">0</Current><DateUtc dt:dt=""string"">2015-07-10T20:27:51Z</DateUtc></FrequencyChange></FrequencyChanges></Clock>\n"	Arrow Flanker 2014-12409-1	60.019	1.0.0.98	1	1194037059	Professional	2.0.10.353	2.0.10.353	07-10-2015	7/10/2015 8:27:52 PM	16:27:52	2.0.10.248	3	1	1	1	NA	NA	NA	NA	NA	NA	NA	NA	NA	NA	NA	NA	NA	NA	NA	NA	NA	NA	NA	NA	NA	NA	NA	NA	BlockProc	BlockList	NA	5	{LEFTARROW}	NA	-100	1080	incongruent	NA	NA	NA	NA	NA	NA	NA	NA	NA	NA	NA	NA	NA	NA	NA	NA	NA	NA	NA	NA	NA	NA	TrialProc	TrialList	1	17	256296	17	0	16	254180	1000	1	{LEFTARROW}	-999999	0	255680	0	{LEFTARROW}	599	256279	NA	NA	left	rrlrr.bmp	354	0	NA	0	0	0	0	NA	0	0	0	NA	0	0	0	0	NA	0	0	3	1	5
Arrow Flanker 2014	12409	1	"<?xml version=""1.0""?>\n<Clock xmlns:dt=""urn:schemas-microsoft-com:datatypes""><Description dt:dt=""string"">E-Prime Primary Realtime Clock</Description><StartTime><Timestamp dt:dt=""int"">0</Timestamp><DateUtc dt:dt=""string"">2015-07-10T20:27:51Z</DateUtc></StartTime><FrequencyChanges><FrequencyChange><Frequency dt:dt=""r8"">2825703</Frequency><Timestamp dt:dt=""r8"">7457256717346</Timestamp><Current dt:dt=""r8"">0</Current><DateUtc dt:dt=""string"">2015-07-10T20:27:51Z</DateUtc></FrequencyChange></FrequencyChanges></Clock>\n"	Arrow Flanker 2014-12409-1	60.019	1.0.0.98	1	1194037059	Professional	2.0.10.353	2.0.10.353	07-10-2015	7/10/2015 8:27:52 PM	16:27:52	2.0.10.248	3	1	1	1	NA	NA	NA	NA	NA	NA	NA	NA	NA	NA	NA	NA	NA	NA	NA	NA	NA	NA	NA	NA	NA	NA	NA	NA	BlockProc	BlockList	NA	6	{LEFTARROW}	NA	-100	1339	congruent	NA	NA	NA	NA	NA	NA	NA	NA	NA	NA	NA	NA	NA	NA	NA	NA	NA	NA	NA	NA	NA	NA	TrialProc	TrialList	1	12	259195	17	0	17	256830	1266	1	{LEFTARROW}	-999999	0	258596	0	{LEFTARROW}	587	259183	NA	NA	left	lllll.bmp	354	0	NA	0	0	0	0	NA	0	0	0	NA	0	0	0	0	NA	0	0	1	1	6
Arrow Flanker 2014	12409	1	"<?xml version=""1.0""?>\n<Clock xmlns:dt=""urn:schemas-microsoft-com:datatypes""><Description dt:dt=""string"">E-Prime Primary Realtime Clock</Description><StartTime><Timestamp dt:dt=""int"">0</Timestamp><DateUtc dt:dt=""string"">2015-07-10T20:27:51Z</DateUtc></StartTime><FrequencyChanges><FrequencyChange><Frequency dt:dt=""r8"">2825703</Frequency><Timestamp dt:dt=""r8"">7457256717346</Timestamp><Current dt:dt=""r8"">0</Current><DateUtc dt:dt=""string"">2015-07-10T20:27:51Z</DateUtc></FrequencyChange></FrequencyChanges></Clock>\n"	Arrow Flanker 2014-12409-1	60.019	1.0.0.98	1	1194037059	Professional	2.0.10.353	2.0.10.353	07-10-2015	7/10/2015 8:27:52 PM	16:27:52	2.0.10.248	3	1	1	1	NA	NA	NA	NA	NA	NA	NA	NA	NA	NA	NA	NA	NA	NA	NA	NA	NA	NA	NA	NA	NA	NA	NA	NA	BlockProc	BlockList	NA	7	{RIGHTARROW}	NA	-100	1508	incongruent	NA	NA	NA	NA	NA	NA	NA	NA	NA	NA	NA	NA	NA	NA	NA	NA	NA	NA	NA	NA	NA	NA	TrialProc	TrialList	1	21	261428	17	0	17	259729	566	1	{RIGHTARROW}	-999999	0	260795	0	{RIGHTARROW}	612	261407	NA	NA	right	llrll.bmp	354	0	NA	0	0	0	0	NA	0	0	0	NA	0	0	0	0	NA	0	0	4	1	7
Arrow Flanker 2014	12409	1	"<?xml version=""1.0""?>\n<Clock xmlns:dt=""urn:schemas-microsoft-com:datatypes""><Description dt:dt=""string"">E-Prime Primary Realtime Clock</Description><StartTime><Timestamp dt:dt=""int"">0</Timestamp><DateUtc dt:dt=""string"">2015-07-10T20:27:51Z</DateUtc></StartTime><FrequencyChanges><FrequencyChange><Frequency dt:dt=""r8"">2825703</Frequency><Timestamp dt:dt=""r8"">7457256717346</Timestamp><Current dt:dt=""r8"">0</Current><DateUtc dt:dt=""string"">2015-07-10T20:27:51Z</DateUtc></FrequencyChange></FrequencyChanges></Clock>\n"	Arrow Flanker 2014-12409-1	60.019	1.0.0.98	1	1194037059	Professional	2.0.10.353	2.0.10.353	07-10-2015	7/10/2015 8:27:52 PM	16:27:52	2.0.10.248	3	1	1	1	NA	NA	NA	NA	NA	NA	NA	NA	NA	NA	NA	NA	NA	NA	NA	NA	NA	NA	NA	NA	NA	NA	NA	NA	BlockProc	BlockList	NA	8	{LEFTARROW}	NA	-100	1642	congruent	NA	NA	NA	NA	NA	NA	NA	NA	NA	NA	NA	NA	NA	NA	NA	NA	NA	NA	NA	NA	NA	NA	TrialProc	TrialList	1	10	264377	17	0	16	261961	1350	1	{LEFTARROW}	-999999	0	263811	0	{LEFTARROW}	556	264367	NA	NA	left	lllll.bmp	354	0	NA	0	0	0	0	NA	0	0	0	NA	0	0	0	0	NA	0	0	1	1	8
Arrow Flanker 2014	12409	1	"<?xml version=""1.0""?>\n<Clock xmlns:dt=""urn:schemas-microsoft-com:datatypes""><Description dt:dt=""string"">E-Prime Primary Realtime Clock</Description><StartTime><Timestamp dt:dt=""int"">0</Timestamp><DateUtc dt:dt=""string"">2015-07-10T20:27:51Z</DateUtc></StartTime><FrequencyChanges><FrequencyChange><Frequency dt:dt=""r8"">2825703</Frequency><Timestamp dt:dt=""r8"">7457256717346</Timestamp><Current dt:dt=""r8"">0</Current><DateUtc dt:dt=""string"">2015-07-10T20:27:51Z</DateUtc></FrequencyChange></FrequencyChanges></Clock>\n"	Arrow Flanker 2014-12409-1	60.019	1.0.0.98	1	1194037059	Professional	2.0.10.353	2.0.10.353	07-10-2015	7/10/2015 8:27:52 PM	16:27:52	2.0.10.248	3	1	1	1	NA	NA	NA	NA	NA	NA	NA	NA	NA	NA	NA	NA	NA	NA	NA	NA	NA	NA	NA	NA	NA	NA	NA	NA	BlockProc	BlockList	NA	9	{LEFTARROW}	NA	-100	1850	congruent	NA	NA	NA	NA	NA	NA	NA	NA	NA	NA	NA	NA	NA	NA	NA	NA	NA	NA	NA	NA	NA	NA	TrialProc	TrialList	1	5	266876	17	0	16	264910	867	1	{LEFTARROW}	-999999	0	266277	0	{LEFTARROW}	594	266871	NA	NA	left	lllll.bmp	354	0	NA	0	0	0	0	NA	0	0	0	NA	0	0	0	0	NA	0	0	1	1	9
Arrow Flanker 2014	12409	1	"<?xml version=""1.0""?>\n<Clock xmlns:dt=""urn:schemas-microsoft-com:datatypes""><Description dt:dt=""string"">E-Prime Primary Realtime Clock</Description><StartTime><Timestamp dt:dt=""int"">0</Timestamp><DateUtc dt:dt=""string"">2015-07-10T20:27:51Z</DateUtc></StartTime><FrequencyChanges><FrequencyChange><Frequency dt:dt=""r8"">2825703</Frequency><Timestamp dt:dt=""r8"">7457256717346</Timestamp><Current dt:dt=""r8"">0</Current><DateUtc dt:dt=""string"">2015-07-10T20:27:51Z</DateUtc></FrequencyChange></FrequencyChanges></Clock>\n"	Arrow Flanker 2014-12409-1	60.019	1.0.0.98	1	1194037059	Professional	2.0.10.353	2.0.10.353	07-10-2015	7/10/2015 8:27:52 PM	16:27:52	2.0.10.248	3	1	1	1	NA	NA	NA	NA	NA	NA	NA	NA	NA	NA	NA	NA	NA	NA	NA	NA	NA	NA	NA	NA	NA	NA	NA	NA	BlockProc	BlockList	NA	10	{RIGHTARROW}	NA	-100	1214	neutral	NA	NA	NA	NA	NA	NA	NA	NA	NA	NA	NA	NA	NA	NA	NA	NA	NA	NA	NA	NA	NA	NA	TrialProc	TrialList	0	15	269326	16	0	17	267410	850	1	{RIGHTARROW}	-999999	0	268759	0	{RIGHTARROW}	551	269310	NA	NA	right	ooroo.bmp	354	0	NA	0	0	0	0	NA	0	0	0	NA	0	0	0	0	NA	0	0	6	1	10
Arrow Flanker 2014	12409	1	"<?xml version=""1.0""?>\n<Clock xmlns:dt=""urn:schemas-microsoft-com:datatypes""><Description dt:dt=""string"">E-Prime Primary Realtime Clock</Description><StartTime><Timestamp dt:dt=""int"">0</Timestamp><DateUtc dt:dt=""string"">2015-07-10T20:27:51Z</DateUtc></StartTime><FrequencyChanges><FrequencyChange><Frequency dt:dt=""r8"">2825703</Frequency><Timestamp dt:dt=""r8"">7457256717346</Timestamp><Current dt:dt=""r8"">0</Current><DateUtc dt:dt=""string"">2015-07-10T20:27:51Z</DateUtc></FrequencyChange></FrequencyChanges></Clock>\n"	Arrow Flanker 2014-12409-1	60.019	1.0.0.98	1	1194037059	Professional	2.0.10.353	2.0.10.353	07-10-2015	7/10/2015 8:27:52 PM	16:27:52	2.0.10.248	3	1	1	1	NA	NA	NA	NA	NA	NA	NA	NA	NA	NA	NA	NA	NA	NA	NA	NA	NA	NA	NA	NA	NA	NA	NA	NA	BlockProc	BlockList	NA	11	{LEFTARROW}	NA	-100	746	neutral	NA	NA	NA	NA	NA	NA	NA	NA	NA	NA	NA	NA	NA	NA	NA	NA	NA	NA	NA	NA	NA	NA	TrialProc	TrialList	1	12	271658	17	0	17	269859	600	1	{LEFTARROW}	-999999	-1	270958	0	{LEFTARROW}	688	271646	NA	NA	left	ooloo.bmp	354	0	NA	0	0	0	0	NA	0	0	0	NA	0	0	0	0	NA	0	0	5	1	11
Arrow Flanker 2014	12409	1	"<?xml version=""1.0""?>\n<Clock xmlns:dt=""urn:schemas-microsoft-com:datatypes""><Description dt:dt=""string"">E-Prime Primary Realtime Clock</Description><StartTime><Timestamp dt:dt=""int"">0</Timestamp><DateUtc dt:dt=""string"">2015-07-10T20:27:51Z</DateUtc></StartTime><FrequencyChanges><FrequencyChange><Frequency dt:dt=""r8"">2825703</Frequency><Timestamp dt:dt=""r8"">7457256717346</Timestamp><Current dt:dt=""r8"">0</Current><DateUtc dt:dt=""string"">2015-07-10T20:27:51Z</DateUtc></FrequencyChange></FrequencyChanges></Clock>\n"	Arrow Flanker 2014-12409-1	60.019	1.0.0.98	1	1194037059	Professional	2.0.10.353	2.0.10.353	07-10-2015	7/10/2015 8:27:52 PM	16:27:52	2.0.10.248	3	1	1	1	NA	NA	NA	NA	NA	NA	NA	NA	NA	NA	NA	NA	NA	NA	NA	NA	NA	NA	NA	NA	NA	NA	NA	NA	BlockProc	BlockList	NA	12	{LEFTARROW}	NA	-100	1778	incongruent	NA	NA	NA	NA	NA	NA	NA	NA	NA	NA	NA	NA	NA	NA	NA	NA	NA	NA	NA	NA	NA	NA	TrialProc	TrialList	1	7	274157	17	0	16	272191	800	1	{LEFTARROW}	-999999	0	273491	0	{LEFTARROW}	659	274150	NA	NA	left	rrlrr.bmp	354	0	NA	0	0	0	0	NA	0	0	0	NA	0	0	0	0	NA	0	0	3	1	12
Arrow Flanker 2014	12409	1	"<?xml version=""1.0""?>\n<Clock xmlns:dt=""urn:schemas-microsoft-com:datatypes""><Description dt:dt=""string"">E-Prime Primary Realtime Clock</Description><StartTime><Timestamp dt:dt=""int"">0</Timestamp><DateUtc dt:dt=""string"">2015-07-10T20:27:51Z</DateUtc></StartTime><FrequencyChanges><FrequencyChange><Frequency dt:dt=""r8"">2825703</Frequency><Timestamp dt:dt=""r8"">7457256717346</Timestamp><Current dt:dt=""r8"">0</Current><DateUtc dt:dt=""string"">2015-07-10T20:27:51Z</DateUtc></FrequencyChange></FrequencyChanges></Clock>\n"	Arrow Flanker 2014-12409-1	60.019	1.0.0.98	1	1194037059	Professional	2.0.10.353	2.0.10.353	07-10-2015	7/10/2015 8:27:52 PM	16:27:52	2.0.10.248	3	1	1	1	NA	NA	NA	NA	NA	NA	NA	NA	NA	NA	NA	NA	NA	NA	NA	NA	NA	NA	NA	NA	NA	NA	NA	NA	BlockProc	BlockList	NA	13	{LEFTARROW}	NA	-100	1886	neutral	NA	NA	NA	NA	NA	NA	NA	NA	NA	NA	NA	NA	NA	NA	NA	NA	NA	NA	NA	NA	NA	NA	TrialProc	TrialList	1	7	276973	17	0	17	274691	1249	1	{LEFTARROW}	-999999	0	276440	0	{LEFTARROW}	526	276966	NA	NA	left	ooloo.bmp	354	0	NA	0	0	0	0	NA	0	0	0	NA	0	0	0	0	NA	0	0	5	1	13
Arrow Flanker 2014	12409	1	"<?xml version=""1.0""?>\n<Clock xmlns:dt=""urn:schemas-microsoft-com:datatypes""><Description dt:dt=""string"">E-Prime Primary Realtime Clock</Description><StartTime><Timestamp dt:dt=""int"">0</Timestamp><DateUtc dt:dt=""string"">2015-07-10T20:27:51Z</DateUtc></StartTime><FrequencyChanges><FrequencyChange><Frequency dt:dt=""r8"">2825703</Frequency><Timestamp dt:dt=""r8"">7457256717346</Timestamp><Current dt:dt=""r8"">0</Current><DateUtc dt:dt=""string"">2015-07-10T20:27:51Z</DateUtc></FrequencyChange></FrequencyChanges></Clock>\n"	Arrow Flanker 2014-12409-1	60.019	1.0.0.98	1	1194037059	Professional	2.0.10.353	2.0.10.353	07-10-2015	7/10/2015 8:27:52 PM	16:27:52	2.0.10.248	3	1	1	1	NA	NA	NA	NA	NA	NA	NA	NA	NA	NA	NA	NA	NA	NA	NA	NA	NA	NA	NA	NA	NA	NA	NA	NA	BlockProc	BlockList	NA	14	{RIGHTARROW}	NA	-100	2462	neutral	NA	NA	NA	NA	NA	NA	NA	NA	NA	NA	NA	NA	NA	NA	NA	NA	NA	NA	NA	NA	NA	NA	TrialProc	TrialList	0	15	279789	17	0	17	277507	1299	1	{RIGHTARROW}	-999999	0	279306	0	{RIGHTARROW}	468	279774	NA	NA	right	ooroo.bmp	354	0	NA	0	0	0	0	NA	0	0	0	NA	0	0	0	0	NA	0	0	6	1	14
Arrow Flanker 2014	12409	1	"<?xml version=""1.0""?>\n<Clock xmlns:dt=""urn:schemas-microsoft-com:datatypes""><Description dt:dt=""string"">E-Prime Primary Realtime Clock</Description><StartTime><Timestamp dt:dt=""int"">0</Timestamp><DateUtc dt:dt=""string"">2015-07-10T20:27:51Z</DateUtc></StartTime><FrequencyChanges><FrequencyChange><Frequency dt:dt=""r8"">2825703</Frequency><Timestamp dt:dt=""r8"">7457256717346</Timestamp><Current dt:dt=""r8"">0</Current><DateUtc dt:dt=""string"">2015-07-10T20:27:51Z</DateUtc></FrequencyChange></FrequencyChanges></Clock>\n"	Arrow Flanker 2014-12409-1	60.019	1.0.0.98	1	1194037059	Professional	2.0.10.353	2.0.10.353	07-10-2015	7/10/2015 8:27:52 PM	16:27:52	2.0.10.248	3	1	1	1	NA	NA	NA	NA	NA	NA	NA	NA	NA	NA	NA	NA	NA	NA	NA	NA	NA	NA	NA	NA	NA	NA	NA	NA	BlockProc	BlockList	NA	15	{RIGHTARROW}	NA	-100	2092	incongruent	NA	NA	NA	NA	NA	NA	NA	NA	NA	NA	NA	NA	NA	NA	NA	NA	NA	NA	NA	NA	NA	NA	TrialProc	TrialList	1	20	282738	17	0	16	280322	1334	1	{RIGHTARROW}	-999999	0	282155	0	{RIGHTARROW}	562	282717	NA	NA	right	llrll.bmp	354	0	NA	0	0	0	0	NA	0	0	0	NA	0	0	0	0	NA	0	0	4	1	15
Arrow Flanker 2014	12409	1	"<?xml version=""1.0""?>\n<Clock xmlns:dt=""urn:schemas-microsoft-com:datatypes""><Description dt:dt=""string"">E-Prime Primary Realtime Clock</Description><StartTime><Timestamp dt:dt=""int"">0</Timestamp><DateUtc dt:dt=""string"">2015-07-10T20:27:51Z</DateUtc></StartTime><FrequencyChanges><FrequencyChange><Frequency dt:dt=""r8"">2825703</Frequency><Timestamp dt:dt=""r8"">7457256717346</Timestamp><Current dt:dt=""r8"">0</Current><DateUtc dt:dt=""string"">2015-07-10T20:27:51Z</DateUtc></FrequencyChange></FrequencyChanges></Clock>\n"	Arrow Flanker 2014-12409-1	60.019	1.0.0.98	1	1194037059	Professional	2.0.10.353	2.0.10.353	07-10-2015	7/10/2015 8:27:52 PM	16:27:52	2.0.10.248	3	1	1	1	NA	NA	NA	NA	NA	NA	NA	NA	NA	NA	NA	NA	NA	NA	NA	NA	NA	NA	NA	NA	NA	NA	NA	NA	BlockProc	BlockList	NA	16	{LEFTARROW}	NA	-100	1503	incongruent	NA	NA	NA	NA	NA	NA	NA	NA	NA	NA	NA	NA	NA	NA	NA	NA	NA	NA	NA	NA	NA	NA	TrialProc	TrialList	1	14	285587	17	0	16	283271	1217	1	{LEFTARROW}	-999999	16	285004	0	{LEFTARROW}	569	285573	NA	NA	left	rrlrr.bmp	354	0	NA	0	0	0	0	NA	0	0	0	NA	0	0	0	0	NA	0	0	3	1	16
Arrow Flanker 2014	12409	1	"<?xml version=""1.0""?>\n<Clock xmlns:dt=""urn:schemas-microsoft-com:datatypes""><Description dt:dt=""string"">E-Prime Primary Realtime Clock</Description><StartTime><Timestamp dt:dt=""int"">0</Timestamp><DateUtc dt:dt=""string"">2015-07-10T20:27:51Z</DateUtc></StartTime><FrequencyChanges><FrequencyChange><Frequency dt:dt=""r8"">2825703</Frequency><Timestamp dt:dt=""r8"">7457256717346</Timestamp><Current dt:dt=""r8"">0</Current><DateUtc dt:dt=""string"">2015-07-10T20:27:51Z</DateUtc></FrequencyChange></FrequencyChanges></Clock>\n"	Arrow Flanker 2014-12409-1	60.019	1.0.0.98	1	1194037059	Professional	2.0.10.353	2.0.10.353	07-10-2015	7/10/2015 8:27:52 PM	16:27:52	2.0.10.248	3	1	1	1	NA	NA	NA	NA	NA	NA	NA	NA	NA	NA	NA	NA	NA	NA	NA	NA	NA	NA	NA	NA	NA	NA	NA	NA	BlockProc	BlockList	NA	17	{LEFTARROW}	NA	-100	1646	incongruent	NA	NA	NA	NA	NA	NA	NA	NA	NA	NA	NA	NA	NA	NA	NA	NA	NA	NA	NA	NA	NA	NA	TrialProc	TrialList	1	10	287703	17	0	16	286120	467	1	{LEFTARROW}	-999999	0	287087	0	{LEFTARROW}	606	287693	NA	NA	left	rrlrr.bmp	354	0	NA	0	0	0	0	NA	0	0	0	NA	0	0	0	0	NA	0	0	3	1	17
Arrow Flanker 2014	12409	1	"<?xml version=""1.0""?>\n<Clock xmlns:dt=""urn:schemas-microsoft-com:datatypes""><Description dt:dt=""string"">E-Prime Primary Realtime Clock</Description><StartTime><Timestamp dt:dt=""int"">0</Timestamp><DateUtc dt:dt=""string"">2015-07-10T20:27:51Z</DateUtc></StartTime><FrequencyChanges><FrequencyChange><Frequency dt:dt=""r8"">2825703</Frequency><Timestamp dt:dt=""r8"">7457256717346</Timestamp><Current dt:dt=""r8"">0</Current><DateUtc dt:dt=""string"">2015-07-10T20:27:51Z</DateUtc></FrequencyChange></FrequencyChanges></Clock>\n"	Arrow Flanker 2014-12409-1	60.019	1.0.0.98	1	1194037059	Professional	2.0.10.353	2.0.10.353	07-10-2015	7/10/2015 8:27:52 PM	16:27:52	2.0.10.248	3	1	1	1	NA	NA	NA	NA	NA	NA	NA	NA	NA	NA	NA	NA	NA	NA	NA	NA	NA	NA	NA	NA	NA	NA	NA	NA	BlockProc	BlockList	NA	18	{RIGHTARROW}	NA	-100	883	congruent	NA	NA	NA	NA	NA	NA	NA	NA	NA	NA	NA	NA	NA	NA	NA	NA	NA	NA	NA	NA	NA	NA	TrialProc	TrialList	1	14	290019	17	0	16	288236	734	1	{RIGHTARROW}	-999999	16	289486	0	{RIGHTARROW}	519	290005	NA	NA	right	rrrrr.bmp	354	0	NA	0	0	0	0	NA	0	0	0	NA	0	0	0	0	NA	0	0	2	1	18
Arrow Flanker 2014	12409	1	"<?xml version=""1.0""?>\n<Clock xmlns:dt=""urn:schemas-microsoft-com:datatypes""><Description dt:dt=""string"">E-Prime Primary Realtime Clock</Description><StartTime><Timestamp dt:dt=""int"">0</Timestamp><DateUtc dt:dt=""string"">2015-07-10T20:27:51Z</DateUtc></StartTime><FrequencyChanges><FrequencyChange><Frequency dt:dt=""r8"">2825703</Frequency><Timestamp dt:dt=""r8"">7457256717346</Timestamp><Current dt:dt=""r8"">0</Current><DateUtc dt:dt=""string"">2015-07-10T20:27:51Z</DateUtc></FrequencyChange></FrequencyChanges></Clock>\n"	Arrow Flanker 2014-12409-1	60.019	1.0.0.98	1	1194037059	Professional	2.0.10.353	2.0.10.353	07-10-2015	7/10/2015 8:27:52 PM	16:27:52	2.0.10.248	3	1	1	1	NA	NA	NA	NA	NA	NA	NA	NA	NA	NA	NA	NA	NA	NA	NA	NA	NA	NA	NA	NA	NA	NA	NA	NA	BlockProc	BlockList	NA	19	{RIGHTARROW}	NA	-100	940	congruent	NA	NA	NA	NA	NA	NA	NA	NA	NA	NA	NA	NA	NA	NA	NA	NA	NA	NA	NA	NA	NA	NA	TrialProc	TrialList	0	7	292452	16	0	16	290552	917	1	{RIGHTARROW}	-999999	0	291969	0	{RIGHTARROW}	476	292445	NA	NA	right	rrrrr.bmp	354	0	NA	0	0	0	0	NA	0	0	0	NA	0	0	0	0	NA	0	0	2	1	19
Arrow Flanker 2014	12409	1	"<?xml version=""1.0""?>\n<Clock xmlns:dt=""urn:schemas-microsoft-com:datatypes""><Description dt:dt=""string"">E-Prime Primary Realtime Clock</Description><StartTime><Timestamp dt:dt=""int"">0</Timestamp><DateUtc dt:dt=""string"">2015-07-10T20:27:51Z</DateUtc></StartTime><FrequencyChanges><FrequencyChange><Frequency dt:dt=""r8"">2825703</Frequency><Timestamp dt:dt=""r8"">7457256717346</Timestamp><Current dt:dt=""r8"">0</Current><DateUtc dt:dt=""string"">2015-07-10T20:27:51Z</DateUtc></FrequencyChange></FrequencyChanges></Clock>\n"	Arrow Flanker 2014-12409-1	60.019	1.0.0.98	1	1194037059	Professional	2.0.10.353	2.0.10.353	07-10-2015	7/10/2015 8:27:52 PM	16:27:52	2.0.10.248	3	1	1	1	NA	NA	NA	NA	NA	NA	NA	NA	NA	NA	NA	NA	NA	NA	NA	NA	NA	NA	NA	NA	NA	NA	NA	NA	BlockProc	BlockList	NA	20	{LEFTARROW}	NA	-100	1079	neutral	NA	NA	NA	NA	NA	NA	NA	NA	NA	NA	NA	NA	NA	NA	NA	NA	NA	NA	NA	NA	NA	NA	TrialProc	TrialList	0	9	294918	16	0	17	292985	900	1	{LEFTARROW}	-999999	16	294401	0	{LEFTARROW}	507	294908	NA	NA	left	ooloo.bmp	354	0	NA	0	0	0	0	NA	0	0	0	NA	0	0	0	0	NA	0	0	5	1	20
Arrow Flanker 2014	12409	1	"<?xml version=""1.0""?>\n<Clock xmlns:dt=""urn:schemas-microsoft-com:datatypes""><Description dt:dt=""string"">E-Prime Primary Realtime Clock</Description><StartTime><Timestamp dt:dt=""int"">0</Timestamp><DateUtc dt:dt=""string"">2015-07-10T20:27:51Z</DateUtc></StartTime><FrequencyChanges><FrequencyChange><Frequency dt:dt=""r8"">2825703</Frequency><Timestamp dt:dt=""r8"">7457256717346</Timestamp><Current dt:dt=""r8"">0</Current><DateUtc dt:dt=""string"">2015-07-10T20:27:51Z</DateUtc></FrequencyChange></FrequencyChanges></Clock>\n"	Arrow Flanker 2014-12409-1	60.019	1.0.0.98	1	1194037059	Professional	2.0.10.353	2.0.10.353	07-10-2015	7/10/2015 8:27:52 PM	16:27:52	2.0.10.248	3	1	1	1	NA	NA	NA	NA	NA	NA	NA	NA	NA	NA	NA	NA	NA	NA	NA	NA	NA	NA	NA	NA	NA	NA	NA	NA	BlockProc	BlockList	NA	21	{RIGHTARROW}	NA	-100	790	neutral	NA	NA	NA	NA	NA	NA	NA	NA	NA	NA	NA	NA	NA	NA	NA	NA	NA	NA	NA	NA	NA	NA	TrialProc	TrialList	0	12	297217	17	0	17	295451	733	1	{RIGHTARROW}	-999999	0	296684	0	{RIGHTARROW}	520	297204	NA	NA	right	ooroo.bmp	354	0	NA	0	0	0	0	NA	0	0	0	NA	0	0	0	0	NA	0	0	6	1	21
Arrow Flanker 2014	12409	1	"<?xml version=""1.0""?>\n<Clock xmlns:dt=""urn:schemas-microsoft-com:datatypes""><Description dt:dt=""string"">E-Prime Primary Realtime Clock</Description><StartTime><Timestamp dt:dt=""int"">0</Timestamp><DateUtc dt:dt=""string"">2015-07-10T20:27:51Z</DateUtc></StartTime><FrequencyChanges><FrequencyChange><Frequency dt:dt=""r8"">2825703</Frequency><Timestamp dt:dt=""r8"">7457256717346</Timestamp><Current dt:dt=""r8"">0</Current><DateUtc dt:dt=""string"">2015-07-10T20:27:51Z</DateUtc></FrequencyChange></FrequencyChanges></Clock>\n"	Arrow Flanker 2014-12409-1	60.019	1.0.0.98	1	1194037059	Professional	2.0.10.353	2.0.10.353	07-10-2015	7/10/2015 8:27:52 PM	16:27:52	2.0.10.248	3	1	1	1	NA	NA	NA	NA	NA	NA	NA	NA	NA	NA	NA	NA	NA	NA	NA	NA	NA	NA	NA	NA	NA	NA	NA	NA	BlockProc	BlockList	NA	22	{LEFTARROW}	NA	-100	1652	neutral	NA	NA	NA	NA	NA	NA	NA	NA	NA	NA	NA	NA	NA	NA	NA	NA	NA	NA	NA	NA	3	1	TrialProc	TrialList	0	9	299933	16	0	16	297750	1116	1	{LEFTARROW}	-999999	0	299366	0	{LEFTARROW}	558	299924	NA	NA	left	ooloo.bmp	354	0	NA	-999999	17	300466	0	1	12181	312647	0	NA	-999999	14	312662	0	1	4289	316951	5	1	22
Arrow Flanker 2014	12409	1	"<?xml version=""1.0""?>\n<Clock xmlns:dt=""urn:schemas-microsoft-com:datatypes""><Description dt:dt=""string"">E-Prime Primary Realtime Clock</Description><StartTime><Timestamp dt:dt=""int"">0</Timestamp><DateUtc dt:dt=""string"">2015-07-10T20:27:51Z</DateUtc></StartTime><FrequencyChanges><FrequencyChange><Frequency dt:dt=""r8"">2825703</Frequency><Timestamp dt:dt=""r8"">7457256717346</Timestamp><Current dt:dt=""r8"">0</Current><DateUtc dt:dt=""string"">2015-07-10T20:27:51Z</DateUtc></FrequencyChange></FrequencyChanges></Clock>\n"	Arrow Flanker 2014-12409-1	60.019	1.0.0.98	1	1194037059	Professional	2.0.10.353	2.0.10.353	07-10-2015	7/10/2015 8:27:52 PM	16:27:52	2.0.10.248	3	1	1	1	NA	NA	NA	NA	NA	NA	NA	NA	NA	NA	NA	NA	NA	NA	NA	NA	NA	NA	NA	NA	NA	NA	NA	NA	BlockProc	BlockList	NA	23	{LEFTARROW}	NA	-100	1684	congruent	NA	NA	NA	NA	NA	NA	NA	NA	NA	NA	NA	NA	NA	NA	NA	NA	NA	NA	NA	NA	NA	NA	TrialProc	TrialList	0	11	321110	16	0	20	318927	850	1	{LEFTARROW}	-999999	0	320276	0	{LEFTARROW}	822	321098	NA	NA	left	lllll.bmp	354	0	NA	0	0	0	0	NA	0	0	0	NA	0	0	0	0	NA	0	0	1	1	23
Arrow Flanker 2014	12409	1	"<?xml version=""1.0""?>\n<Clock xmlns:dt=""urn:schemas-microsoft-com:datatypes""><Description dt:dt=""string"">E-Prime Primary Realtime Clock</Description><StartTime><Timestamp dt:dt=""int"">0</Timestamp><DateUtc dt:dt=""string"">2015-07-10T20:27:51Z</DateUtc></StartTime><FrequencyChanges><FrequencyChange><Frequency dt:dt=""r8"">2825703</Frequency><Timestamp dt:dt=""r8"">7457256717346</Timestamp><Current dt:dt=""r8"">0</Current><DateUtc dt:dt=""string"">2015-07-10T20:27:51Z</DateUtc></FrequencyChange></FrequencyChanges></Clock>\n"	Arrow Flanker 2014-12409-1	60.019	1.0.0.98	1	1194037059	Professional	2.0.10.353	2.0.10.353	07-10-2015	7/10/2015 8:27:52 PM	16:27:52	2.0.10.248	3	1	1	1	NA	NA	NA	NA	NA	NA	NA	NA	NA	NA	NA	NA	NA	NA	NA	NA	NA	NA	NA	NA	NA	NA	NA	NA	BlockProc	BlockList	NA	24	{LEFTARROW}	NA	-100	1987	congruent	NA	NA	NA	NA	NA	NA	NA	NA	NA	NA	NA	NA	NA	NA	NA	NA	NA	NA	NA	NA	NA	NA	TrialProc	TrialList	0	6	324192	17	0	17	321643	1499	1	{LEFTARROW}	-999999	0	323642	0	{LEFTARROW}	544	324186	NA	NA	left	lllll.bmp	354	0	NA	0	0	0	0	NA	0	0	0	NA	0	0	0	0	NA	0	0	1	1	24
Arrow Flanker 2014	12409	1	"<?xml version=""1.0""?>\n<Clock xmlns:dt=""urn:schemas-microsoft-com:datatypes""><Description dt:dt=""string"">E-Prime Primary Realtime Clock</Description><StartTime><Timestamp dt:dt=""int"">0</Timestamp><DateUtc dt:dt=""string"">2015-07-10T20:27:51Z</DateUtc></StartTime><FrequencyChanges><FrequencyChange><Frequency dt:dt=""r8"">2825703</Frequency><Timestamp dt:dt=""r8"">7457256717346</Timestamp><Current dt:dt=""r8"">0</Current><DateUtc dt:dt=""string"">2015-07-10T20:27:51Z</DateUtc></FrequencyChange></FrequencyChanges></Clock>\n"	Arrow Flanker 2014-12409-1	60.019	1.0.0.98	1	1194037059	Professional	2.0.10.353	2.0.10.353	07-10-2015	7/10/2015 8:27:52 PM	16:27:52	2.0.10.248	3	1	1	1	NA	NA	NA	NA	NA	NA	NA	NA	NA	NA	NA	NA	NA	NA	NA	NA	NA	NA	NA	NA	NA	NA	NA	NA	BlockProc	BlockList	NA	25	{LEFTARROW}	NA	-100	1947	incongruent	NA	NA	NA	NA	NA	NA	NA	NA	NA	NA	NA	NA	NA	NA	NA	NA	NA	NA	NA	NA	NA	NA	TrialProc	TrialList	0	18	327108	16	0	16	324725	1100	1	{LEFTARROW}	-999999	0	326325	0	{LEFTARROW}	765	327090	NA	NA	left	rrlrr.bmp	354	0	NA	0	0	0	0	NA	0	0	0	NA	0	0	0	0	NA	0	0	3	1	25
Arrow Flanker 2014	12409	1	"<?xml version=""1.0""?>\n<Clock xmlns:dt=""urn:schemas-microsoft-com:datatypes""><Description dt:dt=""string"">E-Prime Primary Realtime Clock</Description><StartTime><Timestamp dt:dt=""int"">0</Timestamp><DateUtc dt:dt=""string"">2015-07-10T20:27:51Z</DateUtc></StartTime><FrequencyChanges><FrequencyChange><Frequency dt:dt=""r8"">2825703</Frequency><Timestamp dt:dt=""r8"">7457256717346</Timestamp><Current dt:dt=""r8"">0</Current><DateUtc dt:dt=""string"">2015-07-10T20:27:51Z</DateUtc></FrequencyChange></FrequencyChanges></Clock>\n"	Arrow Flanker 2014-12409-1	60.019	1.0.0.98	1	1194037059	Professional	2.0.10.353	2.0.10.353	07-10-2015	7/10/2015 8:27:52 PM	16:27:52	2.0.10.248	3	1	1	1	NA	NA	NA	NA	NA	NA	NA	NA	NA	NA	NA	NA	NA	NA	NA	NA	NA	NA	NA	NA	NA	NA	NA	NA	BlockProc	BlockList	NA	26	{RIGHTARROW}	NA	-100	1994	congruent	NA	NA	NA	NA	NA	NA	NA	NA	NA	NA	NA	NA	NA	NA	NA	NA	NA	NA	NA	NA	NA	NA	TrialProc	TrialList	1	19	329973	17	0	17	327641	0	1	{RIGHTARROW}	-999999	0	329457	0	{RIGHTARROW}	497	329954	NA	NA	right	rrrrr.bmp	354	0	NA	0	0	0	0	NA	0	0	0	NA	0	0	0	0	NA	0	0	2	1	26
Arrow Flanker 2014	12409	1	"<?xml version=""1.0""?>\n<Clock xmlns:dt=""urn:schemas-microsoft-com:datatypes""><Description dt:dt=""string"">E-Prime Primary Realtime Clock</Description><StartTime><Timestamp dt:dt=""int"">0</Timestamp><DateUtc dt:dt=""string"">2015-07-10T20:27:51Z</DateUtc></StartTime><FrequencyChanges><FrequencyChange><Frequency dt:dt=""r8"">2825703</Frequency><Timestamp dt:dt=""r8"">7457256717346</Timestamp><Current dt:dt=""r8"">0</Current><DateUtc dt:dt=""string"">2015-07-10T20:27:51Z</DateUtc></FrequencyChange></FrequencyChanges></Clock>\n"	Arrow Flanker 2014-12409-1	60.019	1.0.0.98	1	1194037059	Professional	2.0.10.353	2.0.10.353	07-10-2015	7/10/2015 8:27:52 PM	16:27:52	2.0.10.248	3	1	1	1	NA	NA	NA	NA	NA	NA	NA	NA	NA	NA	NA	NA	NA	NA	NA	NA	NA	NA	NA	NA	NA	NA	NA	NA	BlockProc	BlockList	NA	27	{RIGHTARROW}	NA	-100	1646	incongruent	NA	NA	NA	NA	NA	NA	NA	NA	NA	NA	NA	NA	NA	NA	NA	NA	NA	NA	NA	NA	NA	NA	TrialProc	TrialList	0	14	332256	17	0	17	330507	0	1	{RIGHTARROW}	-999999	0	331606	0	{RIGHTARROW}	636	332242	NA	NA	right	llrll.bmp	354	0	NA	0	0	0	0	NA	0	0	0	NA	0	0	0	0	NA	0	0	4	1	27
Arrow Flanker 2014	12409	1	"<?xml version=""1.0""?>\n<Clock xmlns:dt=""urn:schemas-microsoft-com:datatypes""><Description dt:dt=""string"">E-Prime Primary Realtime Clock</Description><StartTime><Timestamp dt:dt=""int"">0</Timestamp><DateUtc dt:dt=""string"">2015-07-10T20:27:51Z</DateUtc></StartTime><FrequencyChanges><FrequencyChange><Frequency dt:dt=""r8"">2825703</Frequency><Timestamp dt:dt=""r8"">7457256717346</Timestamp><Current dt:dt=""r8"">0</Current><DateUtc dt:dt=""string"">2015-07-10T20:27:51Z</DateUtc></FrequencyChange></FrequencyChanges></Clock>\n"	Arrow Flanker 2014-12409-1	60.019	1.0.0.98	1	1194037059	Professional	2.0.10.353	2.0.10.353	07-10-2015	7/10/2015 8:27:52 PM	16:27:52	2.0.10.248	3	1	1	1	NA	NA	NA	NA	NA	NA	NA	NA	NA	NA	NA	NA	NA	NA	NA	NA	NA	NA	NA	NA	NA	NA	NA	NA	BlockProc	BlockList	NA	28	{RIGHTARROW}	NA	-100	1947	neutral	NA	NA	NA	NA	NA	NA	NA	NA	NA	NA	NA	NA	NA	NA	NA	NA	NA	NA	NA	NA	NA	NA	TrialProc	TrialList	0	14	335272	16	0	16	332789	0	1	{RIGHTARROW}	-999999	-1	334738	0	{RIGHTARROW}	519	335257	NA	NA	right	ooroo.bmp	354	0	NA	0	0	0	0	NA	0	0	0	NA	0	0	0	0	NA	0	0	6	1	28
Arrow Flanker 2014	12409	1	"<?xml version=""1.0""?>\n<Clock xmlns:dt=""urn:schemas-microsoft-com:datatypes""><Description dt:dt=""string"">E-Prime Primary Realtime Clock</Description><StartTime><Timestamp dt:dt=""int"">0</Timestamp><DateUtc dt:dt=""string"">2015-07-10T20:27:51Z</DateUtc></StartTime><FrequencyChanges><FrequencyChange><Frequency dt:dt=""r8"">2825703</Frequency><Timestamp dt:dt=""r8"">7457256717346</Timestamp><Current dt:dt=""r8"">0</Current><DateUtc dt:dt=""string"">2015-07-10T20:27:51Z</DateUtc></FrequencyChange></FrequencyChanges></Clock>\n"	Arrow Flanker 2014-12409-1	60.019	1.0.0.98	1	1194037059	Professional	2.0.10.353	2.0.10.353	07-10-2015	7/10/2015 8:27:52 PM	16:27:52	2.0.10.248	3	1	1	1	NA	NA	NA	NA	NA	NA	NA	NA	NA	NA	NA	NA	NA	NA	NA	NA	NA	NA	NA	NA	NA	NA	NA	NA	BlockProc	BlockList	NA	29	{RIGHTARROW}	NA	-100	1627	incongruent	NA	NA	NA	NA	NA	NA	NA	NA	NA	NA	NA	NA	NA	NA	NA	NA	NA	NA	NA	NA	NA	NA	TrialProc	TrialList	0	14	338071	16	0	17	335805	0	1	{RIGHTARROW}	-999999	16	337471	0	{RIGHTARROW}	586	338057	NA	NA	right	llrll.bmp	354	0	NA	0	0	0	0	NA	0	0	0	NA	0	0	0	0	NA	0	0	4	1	29
Arrow Flanker 2014	12409	1	"<?xml version=""1.0""?>\n<Clock xmlns:dt=""urn:schemas-microsoft-com:datatypes""><Description dt:dt=""string"">E-Prime Primary Realtime Clock</Description><StartTime><Timestamp dt:dt=""int"">0</Timestamp><DateUtc dt:dt=""string"">2015-07-10T20:27:51Z</DateUtc></StartTime><FrequencyChanges><FrequencyChange><Frequency dt:dt=""r8"">2825703</Frequency><Timestamp dt:dt=""r8"">7457256717346</Timestamp><Current dt:dt=""r8"">0</Current><DateUtc dt:dt=""string"">2015-07-10T20:27:51Z</DateUtc></FrequencyChange></FrequencyChanges></Clock>\n"	Arrow Flanker 2014-12409-1	60.019	1.0.0.98	1	1194037059	Professional	2.0.10.353	2.0.10.353	07-10-2015	7/10/2015 8:27:52 PM	16:27:52	2.0.10.248	3	1	1	1	NA	NA	NA	NA	NA	NA	NA	NA	NA	NA	NA	NA	NA	NA	NA	NA	NA	NA	NA	NA	NA	NA	NA	NA	BlockProc	BlockList	NA	30	{RIGHTARROW}	NA	-100	1905	neutral	NA	NA	NA	NA	NA	NA	NA	NA	NA	NA	NA	NA	NA	NA	NA	NA	NA	NA	NA	NA	NA	NA	TrialProc	TrialList	0	13	340670	17	0	17	338604	0	1	{RIGHTARROW}	-999999	0	340154	0	{RIGHTARROW}	503	340657	NA	NA	right	ooroo.bmp	354	0	NA	0	0	0	0	NA	0	0	0	NA	0	0	0	0	NA	0	0	6	1	30
Arrow Flanker 2014	12409	1	"<?xml version=""1.0""?>\n<Clock xmlns:dt=""urn:schemas-microsoft-com:datatypes""><Description dt:dt=""string"">E-Prime Primary Realtime Clock</Description><StartTime><Timestamp dt:dt=""int"">0</Timestamp><DateUtc dt:dt=""string"">2015-07-10T20:27:51Z</DateUtc></StartTime><FrequencyChanges><FrequencyChange><Frequency dt:dt=""r8"">2825703</Frequency><Timestamp dt:dt=""r8"">7457256717346</Timestamp><Current dt:dt=""r8"">0</Current><DateUtc dt:dt=""string"">2015-07-10T20:27:51Z</DateUtc></FrequencyChange></FrequencyChanges></Clock>\n"	Arrow Flanker 2014-12409-1	60.019	1.0.0.98	1	1194037059	Professional	2.0.10.353	2.0.10.353	07-10-2015	7/10/2015 8:27:52 PM	16:27:52	2.0.10.248	3	1	1	1	NA	NA	NA	NA	NA	NA	NA	NA	NA	NA	NA	NA	NA	NA	NA	NA	NA	NA	NA	NA	NA	NA	NA	NA	BlockProc	BlockList	NA	31	{RIGHTARROW}	NA	-100	2024	congruent	NA	NA	NA	NA	NA	NA	NA	NA	NA	NA	NA	NA	NA	NA	NA	NA	NA	NA	NA	NA	NA	NA	TrialProc	TrialList	0	8	343569	17	0	16	341203	0	1	{RIGHTARROW}	-999999	0	343036	0	{RIGHTARROW}	525	343561	NA	NA	right	rrrrr.bmp	354	0	NA	0	0	0	0	NA	0	0	0	NA	0	0	0	0	NA	0	0	2	1	31
Arrow Flanker 2014	12409	1	"<?xml version=""1.0""?>\n<Clock xmlns:dt=""urn:schemas-microsoft-com:datatypes""><Description dt:dt=""string"">E-Prime Primary Realtime Clock</Description><StartTime><Timestamp dt:dt=""int"">0</Timestamp><DateUtc dt:dt=""string"">2015-07-10T20:27:51Z</DateUtc></StartTime><FrequencyChanges><FrequencyChange><Frequency dt:dt=""r8"">2825703</Frequency><Timestamp dt:dt=""r8"">7457256717346</Timestamp><Current dt:dt=""r8"">0</Current><DateUtc dt:dt=""string"">2015-07-10T20:27:51Z</DateUtc></FrequencyChange></FrequencyChanges></Clock>\n"	Arrow Flanker 2014-12409-1	60.019	1.0.0.98	1	1194037059	Professional	2.0.10.353	2.0.10.353	07-10-2015	7/10/2015 8:27:52 PM	16:27:52	2.0.10.248	3	1	1	1	NA	NA	NA	NA	NA	NA	NA	NA	NA	NA	NA	NA	NA	NA	NA	NA	NA	NA	NA	NA	NA	NA	NA	NA	BlockProc	BlockList	NA	32	{RIGHTARROW}	NA	-100	1497	neutral	NA	NA	NA	NA	NA	NA	NA	NA	NA	NA	NA	NA	NA	NA	NA	NA	NA	NA	NA	NA	NA	NA	TrialProc	TrialList	0	16	345569	16	0	16	344102	0	1	{RIGHTARROW}	-999999	0	345052	0	{RIGHTARROW}	501	345553	NA	NA	right	ooroo.bmp	354	0	NA	0	0	0	0	NA	0	0	0	NA	0	0	0	0	NA	0	0	6	1	32
Arrow Flanker 2014	12409	1	"<?xml version=""1.0""?>\n<Clock xmlns:dt=""urn:schemas-microsoft-com:datatypes""><Description dt:dt=""string"">E-Prime Primary Realtime Clock</Description><StartTime><Timestamp dt:dt=""int"">0</Timestamp><DateUtc dt:dt=""string"">2015-07-10T20:27:51Z</DateUtc></StartTime><FrequencyChanges><FrequencyChange><Frequency dt:dt=""r8"">2825703</Frequency><Timestamp dt:dt=""r8"">7457256717346</Timestamp><Current dt:dt=""r8"">0</Current><DateUtc dt:dt=""string"">2015-07-10T20:27:51Z</DateUtc></FrequencyChange></FrequencyChanges></Clock>\n"	Arrow Flanker 2014-12409-1	60.019	1.0.0.98	1	1194037059	Professional	2.0.10.353	2.0.10.353	07-10-2015	7/10/2015 8:27:52 PM	16:27:52	2.0.10.248	3	1	1	1	NA	NA	NA	NA	NA	NA	NA	NA	NA	NA	NA	NA	NA	NA	NA	NA	NA	NA	NA	NA	NA	NA	NA	NA	BlockProc	BlockList	NA	33	{LEFTARROW}	NA	-100	1623	neutral	NA	NA	NA	NA	NA	NA	NA	NA	NA	NA	NA	NA	NA	NA	NA	NA	NA	NA	NA	NA	NA	NA	TrialProc	TrialList	1	13	348534	17	0	17	346102	0	1	{LEFTARROW}	-999999	16	347951	0	{LEFTARROW}	569	348520	NA	NA	left	ooloo.bmp	354	0	NA	0	0	0	0	NA	0	0	0	NA	0	0	0	0	NA	0	0	5	1	33
Arrow Flanker 2014	12409	1	"<?xml version=""1.0""?>\n<Clock xmlns:dt=""urn:schemas-microsoft-com:datatypes""><Description dt:dt=""string"">E-Prime Primary Realtime Clock</Description><StartTime><Timestamp dt:dt=""int"">0</Timestamp><DateUtc dt:dt=""string"">2015-07-10T20:27:51Z</DateUtc></StartTime><FrequencyChanges><FrequencyChange><Frequency dt:dt=""r8"">2825703</Frequency><Timestamp dt:dt=""r8"">7457256717346</Timestamp><Current dt:dt=""r8"">0</Current><DateUtc dt:dt=""string"">2015-07-10T20:27:51Z</DateUtc></FrequencyChange></FrequencyChanges></Clock>\n"	Arrow Flanker 2014-12409-1	60.019	1.0.0.98	1	1194037059	Professional	2.0.10.353	2.0.10.353	07-10-2015	7/10/2015 8:27:52 PM	16:27:52	2.0.10.248	3	1	1	1	NA	NA	NA	NA	NA	NA	NA	NA	NA	NA	NA	NA	NA	NA	NA	NA	NA	NA	NA	NA	NA	NA	NA	NA	BlockProc	BlockList	NA	34	{RIGHTARROW}	NA	-100	1277	neutral	NA	NA	NA	NA	NA	NA	NA	NA	NA	NA	NA	NA	NA	NA	NA	NA	NA	NA	NA	NA	NA	NA	TrialProc	TrialList	0	11	350867	17	0	16	349067	0	1	{RIGHTARROW}	-999999	0	350367	0	{RIGHTARROW}	489	350856	NA	NA	right	ooroo.bmp	354	0	NA	0	0	0	0	NA	0	0	0	NA	0	0	0	0	NA	0	0	6	1	34
Arrow Flanker 2014	12409	1	"<?xml version=""1.0""?>\n<Clock xmlns:dt=""urn:schemas-microsoft-com:datatypes""><Description dt:dt=""string"">E-Prime Primary Realtime Clock</Description><StartTime><Timestamp dt:dt=""int"">0</Timestamp><DateUtc dt:dt=""string"">2015-07-10T20:27:51Z</DateUtc></StartTime><FrequencyChanges><FrequencyChange><Frequency dt:dt=""r8"">2825703</Frequency><Timestamp dt:dt=""r8"">7457256717346</Timestamp><Current dt:dt=""r8"">0</Current><DateUtc dt:dt=""string"">2015-07-10T20:27:51Z</DateUtc></FrequencyChange></FrequencyChanges></Clock>\n"	Arrow Flanker 2014-12409-1	60.019	1.0.0.98	1	1194037059	Professional	2.0.10.353	2.0.10.353	07-10-2015	7/10/2015 8:27:52 PM	16:27:52	2.0.10.248	3	1	1	1	NA	NA	NA	NA	NA	NA	NA	NA	NA	NA	NA	NA	NA	NA	NA	NA	NA	NA	NA	NA	NA	NA	NA	NA	BlockProc	BlockList	NA	35	{RIGHTARROW}	NA	-100	1551	congruent	NA	NA	NA	NA	NA	NA	NA	NA	NA	NA	NA	NA	NA	NA	NA	NA	NA	NA	NA	NA	NA	NA	TrialProc	TrialList	0	16	353416	17	0	16	351400	0	1	{RIGHTARROW}	-999999	0	352983	0	{RIGHTARROW}	417	353400	NA	NA	right	rrrrr.bmp	354	0	NA	0	0	0	0	NA	0	0	0	NA	0	0	0	0	NA	0	0	2	1	35
Arrow Flanker 2014	12409	1	"<?xml version=""1.0""?>\n<Clock xmlns:dt=""urn:schemas-microsoft-com:datatypes""><Description dt:dt=""string"">E-Prime Primary Realtime Clock</Description><StartTime><Timestamp dt:dt=""int"">0</Timestamp><DateUtc dt:dt=""string"">2015-07-10T20:27:51Z</DateUtc></StartTime><FrequencyChanges><FrequencyChange><Frequency dt:dt=""r8"">2825703</Frequency><Timestamp dt:dt=""r8"">7457256717346</Timestamp><Current dt:dt=""r8"">0</Current><DateUtc dt:dt=""string"">2015-07-10T20:27:51Z</DateUtc></FrequencyChange></FrequencyChanges></Clock>\n"	Arrow Flanker 2014-12409-1	60.019	1.0.0.98	1	1194037059	Professional	2.0.10.353	2.0.10.353	07-10-2015	7/10/2015 8:27:52 PM	16:27:52	2.0.10.248	3	1	1	1	NA	NA	NA	NA	NA	NA	NA	NA	NA	NA	NA	NA	NA	NA	NA	NA	NA	NA	NA	NA	NA	NA	NA	NA	BlockProc	BlockList	NA	36	{RIGHTARROW}	NA	-100	1478	neutral	NA	NA	NA	NA	NA	NA	NA	NA	NA	NA	NA	NA	NA	NA	NA	NA	NA	NA	NA	NA	NA	NA	TrialProc	TrialList	0	12	355732	17	0	16	353949	0	1	{RIGHTARROW}	-999999	0	355249	0	{RIGHTARROW}	471	355720	NA	NA	right	ooroo.bmp	354	0	NA	0	0	0	0	NA	0	0	0	NA	0	0	0	0	NA	0	0	6	1	36
Arrow Flanker 2014	12409	1	"<?xml version=""1.0""?>\n<Clock xmlns:dt=""urn:schemas-microsoft-com:datatypes""><Description dt:dt=""string"">E-Prime Primary Realtime Clock</Description><StartTime><Timestamp dt:dt=""int"">0</Timestamp><DateUtc dt:dt=""string"">2015-07-10T20:27:51Z</DateUtc></StartTime><FrequencyChanges><FrequencyChange><Frequency dt:dt=""r8"">2825703</Frequency><Timestamp dt:dt=""r8"">7457256717346</Timestamp><Current dt:dt=""r8"">0</Current><DateUtc dt:dt=""string"">2015-07-10T20:27:51Z</DateUtc></FrequencyChange></FrequencyChanges></Clock>\n"	Arrow Flanker 2014-12409-1	60.019	1.0.0.98	1	1194037059	Professional	2.0.10.353	2.0.10.353	07-10-2015	7/10/2015 8:27:52 PM	16:27:52	2.0.10.248	3	1	1	1	NA	NA	NA	NA	NA	NA	NA	NA	NA	NA	NA	NA	NA	NA	NA	NA	NA	NA	NA	NA	NA	NA	NA	NA	BlockProc	BlockList	NA	37	{RIGHTARROW}	NA	-100	1244	neutral	NA	NA	NA	NA	NA	NA	NA	NA	NA	NA	NA	NA	NA	NA	NA	NA	NA	NA	NA	NA	2	2	TrialProc	TrialList	1	14	358414	17	0	16	356265	0	1	{RIGHTARROW}	-999999	0	357998	0	{RIGHTARROW}	402	358400	NA	NA	right	ooroo.bmp	354	0	NA	-999999	17	358948	0	1	2928	361876	0	NA	-999999	21	361897	0	1	3747	365644	6	1	37
Arrow Flanker 2014	12409	1	"<?xml version=""1.0""?>\n<Clock xmlns:dt=""urn:schemas-microsoft-com:datatypes""><Description dt:dt=""string"">E-Prime Primary Realtime Clock</Description><StartTime><Timestamp dt:dt=""int"">0</Timestamp><DateUtc dt:dt=""string"">2015-07-10T20:27:51Z</DateUtc></StartTime><FrequencyChanges><FrequencyChange><Frequency dt:dt=""r8"">2825703</Frequency><Timestamp dt:dt=""r8"">7457256717346</Timestamp><Current dt:dt=""r8"">0</Current><DateUtc dt:dt=""string"">2015-07-10T20:27:51Z</DateUtc></FrequencyChange></FrequencyChanges></Clock>\n"	Arrow Flanker 2014-12409-1	60.019	1.0.0.98	1	1194037059	Professional	2.0.10.353	2.0.10.353	07-10-2015	7/10/2015 8:27:52 PM	16:27:52	2.0.10.248	3	1	1	1	NA	NA	NA	NA	NA	NA	NA	NA	NA	NA	NA	NA	NA	NA	NA	NA	NA	NA	NA	NA	NA	NA	NA	NA	BlockProc	BlockList	NA	38	{LEFTARROW}	NA	-100	1028	congruent	NA	NA	NA	NA	NA	NA	NA	NA	NA	NA	NA	NA	NA	NA	NA	NA	NA	NA	NA	NA	NA	NA	TrialProc	TrialList	1	12	370627	17	0	22	368461	0	1	{LEFTARROW}	-999999	0	369844	0	{LEFTARROW}	771	370615	NA	NA	left	lllll.bmp	354	0	NA	0	0	0	0	NA	0	0	0	NA	0	0	0	0	NA	0	0	1	1	38
Arrow Flanker 2014	12409	1	"<?xml version=""1.0""?>\n<Clock xmlns:dt=""urn:schemas-microsoft-com:datatypes""><Description dt:dt=""string"">E-Prime Primary Realtime Clock</Description><StartTime><Timestamp dt:dt=""int"">0</Timestamp><DateUtc dt:dt=""string"">2015-07-10T20:27:51Z</DateUtc></StartTime><FrequencyChanges><FrequencyChange><Frequency dt:dt=""r8"">2825703</Frequency><Timestamp dt:dt=""r8"">7457256717346</Timestamp><Current dt:dt=""r8"">0</Current><DateUtc dt:dt=""string"">2015-07-10T20:27:51Z</DateUtc></FrequencyChange></FrequencyChanges></Clock>\n"	Arrow Flanker 2014-12409-1	60.019	1.0.0.98	1	1194037059	Professional	2.0.10.353	2.0.10.353	07-10-2015	7/10/2015 8:27:52 PM	16:27:52	2.0.10.248	3	1	1	1	NA	NA	NA	NA	NA	NA	NA	NA	NA	NA	NA	NA	NA	NA	NA	NA	NA	NA	NA	NA	NA	NA	NA	NA	BlockProc	BlockList	NA	39	{LEFTARROW}	NA	-100	906	incongruent	NA	NA	NA	NA	NA	NA	NA	NA	NA	NA	NA	NA	NA	NA	NA	NA	NA	NA	NA	NA	NA	NA	TrialProc	TrialList	0	20	373027	16	0	16	371160	0	1	{LEFTARROW}	-999999	0	372327	0	{LEFTARROW}	680	373007	NA	NA	left	rrlrr.bmp	354	0	NA	0	0	0	0	NA	0	0	0	NA	0	0	0	0	NA	0	0	3	1	39
Arrow Flanker 2014	12409	1	"<?xml version=""1.0""?>\n<Clock xmlns:dt=""urn:schemas-microsoft-com:datatypes""><Description dt:dt=""string"">E-Prime Primary Realtime Clock</Description><StartTime><Timestamp dt:dt=""int"">0</Timestamp><DateUtc dt:dt=""string"">2015-07-10T20:27:51Z</DateUtc></StartTime><FrequencyChanges><FrequencyChange><Frequency dt:dt=""r8"">2825703</Frequency><Timestamp dt:dt=""r8"">7457256717346</Timestamp><Current dt:dt=""r8"">0</Current><DateUtc dt:dt=""string"">2015-07-10T20:27:51Z</DateUtc></FrequencyChange></FrequencyChanges></Clock>\n"	Arrow Flanker 2014-12409-1	60.019	1.0.0.98	1	1194037059	Professional	2.0.10.353	2.0.10.353	07-10-2015	7/10/2015 8:27:52 PM	16:27:52	2.0.10.248	3	1	1	1	NA	NA	NA	NA	NA	NA	NA	NA	NA	NA	NA	NA	NA	NA	NA	NA	NA	NA	NA	NA	NA	NA	NA	NA	BlockProc	BlockList	NA	40	{RIGHTARROW}	NA	-100	2475	congruent	NA	NA	NA	NA	NA	NA	NA	NA	NA	NA	NA	NA	NA	NA	NA	NA	NA	NA	NA	NA	NA	NA	TrialProc	TrialList	0	10	376176	16	0	17	373560	0	1	{RIGHTARROW}	-999999	0	375626	0	{RIGHTARROW}	540	376166	NA	NA	right	rrrrr.bmp	354	0	NA	0	0	0	0	NA	0	0	0	NA	0	0	0	0	NA	0	0	2	1	40
Arrow Flanker 2014	12409	1	"<?xml version=""1.0""?>\n<Clock xmlns:dt=""urn:schemas-microsoft-com:datatypes""><Description dt:dt=""string"">E-Prime Primary Realtime Clock</Description><StartTime><Timestamp dt:dt=""int"">0</Timestamp><DateUtc dt:dt=""string"">2015-07-10T20:27:51Z</DateUtc></StartTime><FrequencyChanges><FrequencyChange><Frequency dt:dt=""r8"">2825703</Frequency><Timestamp dt:dt=""r8"">7457256717346</Timestamp><Current dt:dt=""r8"">0</Current><DateUtc dt:dt=""string"">2015-07-10T20:27:51Z</DateUtc></FrequencyChange></FrequencyChanges></Clock>\n"	Arrow Flanker 2014-12409-1	60.019	1.0.0.98	1	1194037059	Professional	2.0.10.353	2.0.10.353	07-10-2015	7/10/2015 8:27:52 PM	16:27:52	2.0.10.248	3	1	1	1	NA	NA	NA	NA	NA	NA	NA	NA	NA	NA	NA	NA	NA	NA	NA	NA	NA	NA	NA	NA	NA	NA	NA	NA	BlockProc	BlockList	NA	41	{LEFTARROW}	NA	-100	1025	congruent	NA	NA	NA	NA	NA	NA	NA	NA	NA	NA	NA	NA	NA	NA	NA	NA	NA	NA	NA	NA	NA	NA	TrialProc	TrialList	0	9	378775	16	0	17	376709	0	1	{LEFTARROW}	-999999	0	378192	0	{LEFTARROW}	574	378766	NA	NA	left	lllll.bmp	354	0	NA	0	0	0	0	NA	0	0	0	NA	0	0	0	0	NA	0	0	1	1	41
Arrow Flanker 2014	12409	1	"<?xml version=""1.0""?>\n<Clock xmlns:dt=""urn:schemas-microsoft-com:datatypes""><Description dt:dt=""string"">E-Prime Primary Realtime Clock</Description><StartTime><Timestamp dt:dt=""int"">0</Timestamp><DateUtc dt:dt=""string"">2015-07-10T20:27:51Z</DateUtc></StartTime><FrequencyChanges><FrequencyChange><Frequency dt:dt=""r8"">2825703</Frequency><Timestamp dt:dt=""r8"">7457256717346</Timestamp><Current dt:dt=""r8"">0</Current><DateUtc dt:dt=""string"">2015-07-10T20:27:51Z</DateUtc></FrequencyChange></FrequencyChanges></Clock>\n"	Arrow Flanker 2014-12409-1	60.019	1.0.0.98	1	1194037059	Professional	2.0.10.353	2.0.10.353	07-10-2015	7/10/2015 8:27:52 PM	16:27:52	2.0.10.248	3	1	1	1	NA	NA	NA	NA	NA	NA	NA	NA	NA	NA	NA	NA	NA	NA	NA	NA	NA	NA	NA	NA	NA	NA	NA	NA	BlockProc	BlockList	NA	42	{RIGHTARROW}	NA	-100	1768	neutral	NA	NA	NA	NA	NA	NA	NA	NA	NA	NA	NA	NA	NA	NA	NA	NA	NA	NA	NA	NA	NA	NA	TrialProc	TrialList	0	12	381274	17	0	17	379308	0	1	{RIGHTARROW}	-999999	0	380691	0	{RIGHTARROW}	571	381262	NA	NA	right	ooroo.bmp	354	0	NA	0	0	0	0	NA	0	0	0	NA	0	0	0	0	NA	0	0	6	1	42
Arrow Flanker 2014	12409	1	"<?xml version=""1.0""?>\n<Clock xmlns:dt=""urn:schemas-microsoft-com:datatypes""><Description dt:dt=""string"">E-Prime Primary Realtime Clock</Description><StartTime><Timestamp dt:dt=""int"">0</Timestamp><DateUtc dt:dt=""string"">2015-07-10T20:27:51Z</DateUtc></StartTime><FrequencyChanges><FrequencyChange><Frequency dt:dt=""r8"">2825703</Frequency><Timestamp dt:dt=""r8"">7457256717346</Timestamp><Current dt:dt=""r8"">0</Current><DateUtc dt:dt=""string"">2015-07-10T20:27:51Z</DateUtc></FrequencyChange></FrequencyChanges></Clock>\n"	Arrow Flanker 2014-12409-1	60.019	1.0.0.98	1	1194037059	Professional	2.0.10.353	2.0.10.353	07-10-2015	7/10/2015 8:27:52 PM	16:27:52	2.0.10.248	3	1	1	1	NA	NA	NA	NA	NA	NA	NA	NA	NA	NA	NA	NA	NA	NA	NA	NA	NA	NA	NA	NA	NA	NA	NA	NA	BlockProc	BlockList	NA	43	{LEFTARROW}	NA	-100	1291	congruent	NA	NA	NA	NA	NA	NA	NA	NA	NA	NA	NA	NA	NA	NA	NA	NA	NA	NA	NA	NA	NA	NA	TrialProc	TrialList	0	21	383707	16	0	16	381807	0	1	{LEFTARROW}	-999999	0	383207	0	{LEFTARROW}	479	383686	NA	NA	left	lllll.bmp	354	0	NA	0	0	0	0	NA	0	0	0	NA	0	0	0	0	NA	0	0	1	1	43
Arrow Flanker 2014	12409	1	"<?xml version=""1.0""?>\n<Clock xmlns:dt=""urn:schemas-microsoft-com:datatypes""><Description dt:dt=""string"">E-Prime Primary Realtime Clock</Description><StartTime><Timestamp dt:dt=""int"">0</Timestamp><DateUtc dt:dt=""string"">2015-07-10T20:27:51Z</DateUtc></StartTime><FrequencyChanges><FrequencyChange><Frequency dt:dt=""r8"">2825703</Frequency><Timestamp dt:dt=""r8"">7457256717346</Timestamp><Current dt:dt=""r8"">0</Current><DateUtc dt:dt=""string"">2015-07-10T20:27:51Z</DateUtc></FrequencyChange></FrequencyChanges></Clock>\n"	Arrow Flanker 2014-12409-1	60.019	1.0.0.98	1	1194037059	Professional	2.0.10.353	2.0.10.353	07-10-2015	7/10/2015 8:27:52 PM	16:27:52	2.0.10.248	3	1	1	1	NA	NA	NA	NA	NA	NA	NA	NA	NA	NA	NA	NA	NA	NA	NA	NA	NA	NA	NA	NA	NA	NA	NA	NA	BlockProc	BlockList	NA	44	{LEFTARROW}	NA	-100	1714	neutral	NA	NA	NA	NA	NA	NA	NA	NA	NA	NA	NA	NA	NA	NA	NA	NA	NA	NA	NA	NA	NA	NA	TrialProc	TrialList	1	6	386772	17	0	17	384240	0	1	{LEFTARROW}	-999999	-1	386222	0	{LEFTARROW}	544	386766	NA	NA	left	ooloo.bmp	354	0	NA	0	0	0	0	NA	0	0	0	NA	0	0	0	0	NA	0	0	5	1	44
Arrow Flanker 2014	12409	1	"<?xml version=""1.0""?>\n<Clock xmlns:dt=""urn:schemas-microsoft-com:datatypes""><Description dt:dt=""string"">E-Prime Primary Realtime Clock</Description><StartTime><Timestamp dt:dt=""int"">0</Timestamp><DateUtc dt:dt=""string"">2015-07-10T20:27:51Z</DateUtc></StartTime><FrequencyChanges><FrequencyChange><Frequency dt:dt=""r8"">2825703</Frequency><Timestamp dt:dt=""r8"">7457256717346</Timestamp><Current dt:dt=""r8"">0</Current><DateUtc dt:dt=""string"">2015-07-10T20:27:51Z</DateUtc></FrequencyChange></FrequencyChanges></Clock>\n"	Arrow Flanker 2014-12409-1	60.019	1.0.0.98	1	1194037059	Professional	2.0.10.353	2.0.10.353	07-10-2015	7/10/2015 8:27:52 PM	16:27:52	2.0.10.248	3	1	1	1	NA	NA	NA	NA	NA	NA	NA	NA	NA	NA	NA	NA	NA	NA	NA	NA	NA	NA	NA	NA	NA	NA	NA	NA	BlockProc	BlockList	NA	45	{RIGHTARROW}	NA	-100	2658	neutral	NA	NA	NA	NA	NA	NA	NA	NA	NA	NA	NA	NA	NA	NA	NA	NA	NA	NA	NA	NA	NA	NA	TrialProc	TrialList	0	6	389788	17	0	16	387305	0	1	{RIGHTARROW}	-999999	0	389355	0	{RIGHTARROW}	426	389781	NA	NA	right	ooroo.bmp	354	0	NA	0	0	0	0	NA	0	0	0	NA	0	0	0	0	NA	0	0	6	1	45
Arrow Flanker 2014	12409	1	"<?xml version=""1.0""?>\n<Clock xmlns:dt=""urn:schemas-microsoft-com:datatypes""><Description dt:dt=""string"">E-Prime Primary Realtime Clock</Description><StartTime><Timestamp dt:dt=""int"">0</Timestamp><DateUtc dt:dt=""string"">2015-07-10T20:27:51Z</DateUtc></StartTime><FrequencyChanges><FrequencyChange><Frequency dt:dt=""r8"">2825703</Frequency><Timestamp dt:dt=""r8"">7457256717346</Timestamp><Current dt:dt=""r8"">0</Current><DateUtc dt:dt=""string"">2015-07-10T20:27:51Z</DateUtc></FrequencyChange></FrequencyChanges></Clock>\n"	Arrow Flanker 2014-12409-1	60.019	1.0.0.98	1	1194037059	Professional	2.0.10.353	2.0.10.353	07-10-2015	7/10/2015 8:27:52 PM	16:27:52	2.0.10.248	3	1	1	1	NA	NA	NA	NA	NA	NA	NA	NA	NA	NA	NA	NA	NA	NA	NA	NA	NA	NA	NA	NA	NA	NA	NA	NA	BlockProc	BlockList	NA	46	{LEFTARROW}	NA	-100	1632	neutral	NA	NA	NA	NA	NA	NA	NA	NA	NA	NA	NA	NA	NA	NA	NA	NA	NA	NA	NA	NA	NA	NA	TrialProc	TrialList	1	16	392237	17	0	16	390321	0	1	{LEFTARROW}	-999999	0	391704	0	{LEFTARROW}	517	392221	NA	NA	left	ooloo.bmp	354	0	NA	0	0	0	0	NA	0	0	0	NA	0	0	0	0	NA	0	0	5	1	46
Arrow Flanker 2014	12409	1	"<?xml version=""1.0""?>\n<Clock xmlns:dt=""urn:schemas-microsoft-com:datatypes""><Description dt:dt=""string"">E-Prime Primary Realtime Clock</Description><StartTime><Timestamp dt:dt=""int"">0</Timestamp><DateUtc dt:dt=""string"">2015-07-10T20:27:51Z</DateUtc></StartTime><FrequencyChanges><FrequencyChange><Frequency dt:dt=""r8"">2825703</Frequency><Timestamp dt:dt=""r8"">7457256717346</Timestamp><Current dt:dt=""r8"">0</Current><DateUtc dt:dt=""string"">2015-07-10T20:27:51Z</DateUtc></FrequencyChange></FrequencyChanges></Clock>\n"	Arrow Flanker 2014-12409-1	60.019	1.0.0.98	1	1194037059	Professional	2.0.10.353	2.0.10.353	07-10-2015	7/10/2015 8:27:52 PM	16:27:52	2.0.10.248	3	1	1	1	NA	NA	NA	NA	NA	NA	NA	NA	NA	NA	NA	NA	NA	NA	NA	NA	NA	NA	NA	NA	NA	NA	NA	NA	BlockProc	BlockList	NA	47	{LEFTARROW}	NA	-100	1126	neutral	NA	NA	NA	NA	NA	NA	NA	NA	NA	NA	NA	NA	NA	NA	NA	NA	NA	NA	NA	NA	NA	NA	TrialProc	TrialList	0	18	394703	17	0	16	392770	0	1	{LEFTARROW}	-999999	0	394103	0	{LEFTARROW}	582	394685	NA	NA	left	ooloo.bmp	354	0	NA	0	0	0	0	NA	0	0	0	NA	0	0	0	0	NA	0	0	5	1	47
Arrow Flanker 2014	12409	1	"<?xml version=""1.0""?>\n<Clock xmlns:dt=""urn:schemas-microsoft-com:datatypes""><Description dt:dt=""string"">E-Prime Primary Realtime Clock</Description><StartTime><Timestamp dt:dt=""int"">0</Timestamp><DateUtc dt:dt=""string"">2015-07-10T20:27:51Z</DateUtc></StartTime><FrequencyChanges><FrequencyChange><Frequency dt:dt=""r8"">2825703</Frequency><Timestamp dt:dt=""r8"">7457256717346</Timestamp><Current dt:dt=""r8"">0</Current><DateUtc dt:dt=""string"">2015-07-10T20:27:51Z</DateUtc></FrequencyChange></FrequencyChanges></Clock>\n"	Arrow Flanker 2014-12409-1	60.019	1.0.0.98	1	1194037059	Professional	2.0.10.353	2.0.10.353	07-10-2015	7/10/2015 8:27:52 PM	16:27:52	2.0.10.248	3	1	1	1	NA	NA	NA	NA	NA	NA	NA	NA	NA	NA	NA	NA	NA	NA	NA	NA	NA	NA	NA	NA	NA	NA	NA	NA	BlockProc	BlockList	NA	48	{LEFTARROW}	NA	-100	1407	congruent	NA	NA	NA	NA	NA	NA	NA	NA	NA	NA	NA	NA	NA	NA	NA	NA	NA	NA	NA	NA	NA	NA	TrialProc	TrialList	1	19	396952	17	0	16	395236	0	1	{LEFTARROW}	-999999	0	396336	0	{LEFTARROW}	597	396933	NA	NA	left	lllll.bmp	354	0	NA	0	0	0	0	NA	0	0	0	NA	0	0	0	0	NA	0	0	1	1	48
Arrow Flanker 2014	12409	1	"<?xml version=""1.0""?>\n<Clock xmlns:dt=""urn:schemas-microsoft-com:datatypes""><Description dt:dt=""string"">E-Prime Primary Realtime Clock</Description><StartTime><Timestamp dt:dt=""int"">0</Timestamp><DateUtc dt:dt=""string"">2015-07-10T20:27:51Z</DateUtc></StartTime><FrequencyChanges><FrequencyChange><Frequency dt:dt=""r8"">2825703</Frequency><Timestamp dt:dt=""r8"">7457256717346</Timestamp><Current dt:dt=""r8"">0</Current><DateUtc dt:dt=""string"">2015-07-10T20:27:51Z</DateUtc></FrequencyChange></FrequencyChanges></Clock>\n"	Arrow Flanker 2014-12409-1	60.019	1.0.0.98	1	1194037059	Professional	2.0.10.353	2.0.10.353	07-10-2015	7/10/2015 8:27:52 PM	16:27:52	2.0.10.248	3	1	1	1	NA	NA	NA	NA	NA	NA	NA	NA	NA	NA	NA	NA	NA	NA	NA	NA	NA	NA	NA	NA	NA	NA	NA	NA	BlockProc	BlockList	NA	49	{LEFTARROW}	NA	-100	1412	congruent	NA	NA	NA	NA	NA	NA	NA	NA	NA	NA	NA	NA	NA	NA	NA	NA	NA	NA	NA	NA	NA	NA	TrialProc	TrialList	0	10	398919	16	0	17	397486	0	1	{LEFTARROW}	-999999	0	398435	0	{LEFTARROW}	474	398909	NA	NA	left	lllll.bmp	354	0	NA	0	0	0	0	NA	0	0	0	NA	0	0	0	0	NA	0	0	1	1	49
Arrow Flanker 2014	12409	1	"<?xml version=""1.0""?>\n<Clock xmlns:dt=""urn:schemas-microsoft-com:datatypes""><Description dt:dt=""string"">E-Prime Primary Realtime Clock</Description><StartTime><Timestamp dt:dt=""int"">0</Timestamp><DateUtc dt:dt=""string"">2015-07-10T20:27:51Z</DateUtc></StartTime><FrequencyChanges><FrequencyChange><Frequency dt:dt=""r8"">2825703</Frequency><Timestamp dt:dt=""r8"">7457256717346</Timestamp><Current dt:dt=""r8"">0</Current><DateUtc dt:dt=""string"">2015-07-10T20:27:51Z</DateUtc></FrequencyChange></FrequencyChanges></Clock>\n"	Arrow Flanker 2014-12409-1	60.019	1.0.0.98	1	1194037059	Professional	2.0.10.353	2.0.10.353	07-10-2015	7/10/2015 8:27:52 PM	16:27:52	2.0.10.248	3	1	1	1	NA	NA	NA	NA	NA	NA	NA	NA	NA	NA	NA	NA	NA	NA	NA	NA	NA	NA	NA	NA	NA	NA	NA	NA	BlockProc	BlockList	NA	50	{RIGHTARROW}	NA	-100	2211	congruent	NA	NA	NA	NA	NA	NA	NA	NA	NA	NA	NA	NA	NA	NA	NA	NA	NA	NA	NA	NA	NA	NA	TrialProc	TrialList	0	15	401668	16	0	17	399452	0	1	{RIGHTARROW}	-999999	0	401201	0	{RIGHTARROW}	451	401652	NA	NA	right	rrrrr.bmp	354	0	NA	0	0	0	0	NA	0	0	0	NA	0	0	0	0	NA	0	0	2	1	50
Arrow Flanker 2014	12409	1	"<?xml version=""1.0""?>\n<Clock xmlns:dt=""urn:schemas-microsoft-com:datatypes""><Description dt:dt=""string"">E-Prime Primary Realtime Clock</Description><StartTime><Timestamp dt:dt=""int"">0</Timestamp><DateUtc dt:dt=""string"">2015-07-10T20:27:51Z</DateUtc></StartTime><FrequencyChanges><FrequencyChange><Frequency dt:dt=""r8"">2825703</Frequency><Timestamp dt:dt=""r8"">7457256717346</Timestamp><Current dt:dt=""r8"">0</Current><DateUtc dt:dt=""string"">2015-07-10T20:27:51Z</DateUtc></FrequencyChange></FrequencyChanges></Clock>\n"	Arrow Flanker 2014-12409-1	60.019	1.0.0.98	1	1194037059	Professional	2.0.10.353	2.0.10.353	07-10-2015	7/10/2015 8:27:52 PM	16:27:52	2.0.10.248	3	1	1	1	NA	NA	NA	NA	NA	NA	NA	NA	NA	NA	NA	NA	NA	NA	NA	NA	NA	NA	NA	NA	NA	NA	NA	NA	BlockProc	BlockList	NA	51	{LEFTARROW}	NA	-100	1018	incongruent	NA	NA	NA	NA	NA	NA	NA	NA	NA	NA	NA	NA	NA	NA	NA	NA	NA	NA	NA	NA	NA	NA	TrialProc	TrialList	0	18	404150	17	0	17	402201	0	1	{LEFTARROW}	-999999	0	403450	0	{LEFTARROW}	682	404132	NA	NA	left	rrlrr.bmp	354	0	NA	0	0	0	0	NA	0	0	0	NA	0	0	0	0	NA	0	0	3	1	51
Arrow Flanker 2014	12409	1	"<?xml version=""1.0""?>\n<Clock xmlns:dt=""urn:schemas-microsoft-com:datatypes""><Description dt:dt=""string"">E-Prime Primary Realtime Clock</Description><StartTime><Timestamp dt:dt=""int"">0</Timestamp><DateUtc dt:dt=""string"">2015-07-10T20:27:51Z</DateUtc></StartTime><FrequencyChanges><FrequencyChange><Frequency dt:dt=""r8"">2825703</Frequency><Timestamp dt:dt=""r8"">7457256717346</Timestamp><Current dt:dt=""r8"">0</Current><DateUtc dt:dt=""string"">2015-07-10T20:27:51Z</DateUtc></FrequencyChange></FrequencyChanges></Clock>\n"	Arrow Flanker 2014-12409-1	60.019	1.0.0.98	1	1194037059	Professional	2.0.10.353	2.0.10.353	07-10-2015	7/10/2015 8:27:52 PM	16:27:52	2.0.10.248	3	1	1	1	NA	NA	NA	NA	NA	NA	NA	NA	NA	NA	NA	NA	NA	NA	NA	NA	NA	NA	NA	NA	NA	NA	NA	NA	BlockProc	BlockList	NA	52	{LEFTARROW}	NA	-100	1294	congruent	NA	NA	NA	NA	NA	NA	NA	NA	NA	NA	NA	NA	NA	NA	NA	NA	NA	NA	NA	NA	NA	NA	TrialProc	TrialList	1	21	406849	17	0	16	404683	0	1	{LEFTARROW}	-999999	0	406316	0	{LEFTARROW}	512	406828	NA	NA	left	lllll.bmp	354	0	NA	0	0	0	0	NA	0	0	0	NA	0	0	0	0	NA	0	0	1	1	52
Arrow Flanker 2014	12409	1	"<?xml version=""1.0""?>\n<Clock xmlns:dt=""urn:schemas-microsoft-com:datatypes""><Description dt:dt=""string"">E-Prime Primary Realtime Clock</Description><StartTime><Timestamp dt:dt=""int"">0</Timestamp><DateUtc dt:dt=""string"">2015-07-10T20:27:51Z</DateUtc></StartTime><FrequencyChanges><FrequencyChange><Frequency dt:dt=""r8"">2825703</Frequency><Timestamp dt:dt=""r8"">7457256717346</Timestamp><Current dt:dt=""r8"">0</Current><DateUtc dt:dt=""string"">2015-07-10T20:27:51Z</DateUtc></FrequencyChange></FrequencyChanges></Clock>\n"	Arrow Flanker 2014-12409-1	60.019	1.0.0.98	1	1194037059	Professional	2.0.10.353	2.0.10.353	07-10-2015	7/10/2015 8:27:52 PM	16:27:52	2.0.10.248	3	1	1	1	NA	NA	NA	NA	NA	NA	NA	NA	NA	NA	NA	NA	NA	NA	NA	NA	NA	NA	NA	NA	NA	NA	NA	NA	BlockProc	BlockList	NA	53	{RIGHTARROW}	NA	-100	1721	congruent	NA	NA	NA	NA	NA	NA	NA	NA	NA	NA	NA	NA	NA	NA	NA	NA	NA	NA	NA	NA	NA	NA	TrialProc	TrialList	0	21	409449	16	0	16	407382	0	1	{RIGHTARROW}	-999999	16	408932	0	{RIGHTARROW}	496	409428	NA	NA	right	rrrrr.bmp	354	0	NA	0	0	0	0	NA	0	0	0	NA	0	0	0	0	NA	0	0	2	1	53
Arrow Flanker 2014	12409	1	"<?xml version=""1.0""?>\n<Clock xmlns:dt=""urn:schemas-microsoft-com:datatypes""><Description dt:dt=""string"">E-Prime Primary Realtime Clock</Description><StartTime><Timestamp dt:dt=""int"">0</Timestamp><DateUtc dt:dt=""string"">2015-07-10T20:27:51Z</DateUtc></StartTime><FrequencyChanges><FrequencyChange><Frequency dt:dt=""r8"">2825703</Frequency><Timestamp dt:dt=""r8"">7457256717346</Timestamp><Current dt:dt=""r8"">0</Current><DateUtc dt:dt=""string"">2015-07-10T20:27:51Z</DateUtc></FrequencyChange></FrequencyChanges></Clock>\n"	Arrow Flanker 2014-12409-1	60.019	1.0.0.98	1	1194037059	Professional	2.0.10.353	2.0.10.353	07-10-2015	7/10/2015 8:27:52 PM	16:27:52	2.0.10.248	3	1	1	1	NA	NA	NA	NA	NA	NA	NA	NA	NA	NA	NA	NA	NA	NA	NA	NA	NA	NA	NA	NA	NA	NA	NA	NA	BlockProc	BlockList	NA	54	{RIGHTARROW}	NA	-100	1770	incongruent	NA	NA	NA	NA	NA	NA	NA	NA	NA	NA	NA	NA	NA	NA	NA	NA	NA	NA	NA	NA	2	1	TrialProc	TrialList	0	15	411931	17	0	17	409982	0	1	{RIGHTARROW}	-999999	0	411248	0	{RIGHTARROW}	668	411916	NA	NA	right	llrll.bmp	354	0	NA	-999999	16	412464	0	1	2704	415168	0	NA	-999999	12	415180	0	1	1291	416471	4	1	54
Arrow Flanker 2014	12409	1	"<?xml version=""1.0""?>\n<Clock xmlns:dt=""urn:schemas-microsoft-com:datatypes""><Description dt:dt=""string"">E-Prime Primary Realtime Clock</Description><StartTime><Timestamp dt:dt=""int"">0</Timestamp><DateUtc dt:dt=""string"">2015-07-10T20:27:51Z</DateUtc></StartTime><FrequencyChanges><FrequencyChange><Frequency dt:dt=""r8"">2825703</Frequency><Timestamp dt:dt=""r8"">7457256717346</Timestamp><Current dt:dt=""r8"">0</Current><DateUtc dt:dt=""string"">2015-07-10T20:27:51Z</DateUtc></FrequencyChange></FrequencyChanges></Clock>\n"	Arrow Flanker 2014-12409-1	60.019	1.0.0.98	1	1194037059	Professional	2.0.10.353	2.0.10.353	07-10-2015	7/10/2015 8:27:52 PM	16:27:52	2.0.10.248	3	1	1	1	NA	NA	NA	NA	NA	NA	NA	NA	NA	NA	NA	NA	NA	NA	NA	NA	NA	NA	NA	NA	NA	NA	NA	NA	BlockProc	BlockList	NA	55	{LEFTARROW}	NA	-100	2008	neutral	NA	NA	NA	NA	NA	NA	NA	NA	NA	NA	NA	NA	NA	NA	NA	NA	NA	NA	NA	NA	NA	NA	TrialProc	TrialList	0	21	421728	17	0	14	419529	0	1	{LEFTARROW}	-999999	-1	421161	0	{LEFTARROW}	546	421707	NA	NA	left	ooloo.bmp	354	0	NA	0	0	0	0	NA	0	0	0	NA	0	0	0	0	NA	0	0	5	1	55
Arrow Flanker 2014	12409	1	"<?xml version=""1.0""?>\n<Clock xmlns:dt=""urn:schemas-microsoft-com:datatypes""><Description dt:dt=""string"">E-Prime Primary Realtime Clock</Description><StartTime><Timestamp dt:dt=""int"">0</Timestamp><DateUtc dt:dt=""string"">2015-07-10T20:27:51Z</DateUtc></StartTime><FrequencyChanges><FrequencyChange><Frequency dt:dt=""r8"">2825703</Frequency><Timestamp dt:dt=""r8"">7457256717346</Timestamp><Current dt:dt=""r8"">0</Current><DateUtc dt:dt=""string"">2015-07-10T20:27:51Z</DateUtc></FrequencyChange></FrequencyChanges></Clock>\n"	Arrow Flanker 2014-12409-1	60.019	1.0.0.98	1	1194037059	Professional	2.0.10.353	2.0.10.353	07-10-2015	7/10/2015 8:27:52 PM	16:27:52	2.0.10.248	3	1	1	1	NA	NA	NA	NA	NA	NA	NA	NA	NA	NA	NA	NA	NA	NA	NA	NA	NA	NA	NA	NA	NA	NA	NA	NA	BlockProc	BlockList	NA	56	{RIGHTARROW}	NA	-100	1878	congruent	NA	NA	NA	NA	NA	NA	NA	NA	NA	NA	NA	NA	NA	NA	NA	NA	NA	NA	NA	NA	NA	NA	TrialProc	TrialList	0	14	424777	17	0	16	422261	0	1	{RIGHTARROW}	-999999	0	424277	0	{RIGHTARROW}	486	424763	NA	NA	right	rrrrr.bmp	354	0	NA	0	0	0	0	NA	0	0	0	NA	0	0	0	0	NA	0	0	2	1	56
Arrow Flanker 2014	12409	1	"<?xml version=""1.0""?>\n<Clock xmlns:dt=""urn:schemas-microsoft-com:datatypes""><Description dt:dt=""string"">E-Prime Primary Realtime Clock</Description><StartTime><Timestamp dt:dt=""int"">0</Timestamp><DateUtc dt:dt=""string"">2015-07-10T20:27:51Z</DateUtc></StartTime><FrequencyChanges><FrequencyChange><Frequency dt:dt=""r8"">2825703</Frequency><Timestamp dt:dt=""r8"">7457256717346</Timestamp><Current dt:dt=""r8"">0</Current><DateUtc dt:dt=""string"">2015-07-10T20:27:51Z</DateUtc></FrequencyChange></FrequencyChanges></Clock>\n"	Arrow Flanker 2014-12409-1	60.019	1.0.0.98	1	1194037059	Professional	2.0.10.353	2.0.10.353	07-10-2015	7/10/2015 8:27:52 PM	16:27:52	2.0.10.248	3	1	1	1	NA	NA	NA	NA	NA	NA	NA	NA	NA	NA	NA	NA	NA	NA	NA	NA	NA	NA	NA	NA	NA	NA	NA	NA	BlockProc	BlockList	NA	57	{LEFTARROW}	NA	-100	2482	neutral	NA	NA	NA	NA	NA	NA	NA	NA	NA	NA	NA	NA	NA	NA	NA	NA	NA	NA	NA	NA	NA	NA	TrialProc	TrialList	0	9	427660	16	0	16	425310	0	1	{LEFTARROW}	-999999	0	427176	0	{LEFTARROW}	474	427650	NA	NA	left	ooloo.bmp	354	0	NA	0	0	0	0	NA	0	0	0	NA	0	0	0	0	NA	0	0	5	1	57
Arrow Flanker 2014	12409	1	"<?xml version=""1.0""?>\n<Clock xmlns:dt=""urn:schemas-microsoft-com:datatypes""><Description dt:dt=""string"">E-Prime Primary Realtime Clock</Description><StartTime><Timestamp dt:dt=""int"">0</Timestamp><DateUtc dt:dt=""string"">2015-07-10T20:27:51Z</DateUtc></StartTime><FrequencyChanges><FrequencyChange><Frequency dt:dt=""r8"">2825703</Frequency><Timestamp dt:dt=""r8"">7457256717346</Timestamp><Current dt:dt=""r8"">0</Current><DateUtc dt:dt=""string"">2015-07-10T20:27:51Z</DateUtc></FrequencyChange></FrequencyChanges></Clock>\n"	Arrow Flanker 2014-12409-1	60.019	1.0.0.98	1	1194037059	Professional	2.0.10.353	2.0.10.353	07-10-2015	7/10/2015 8:27:52 PM	16:27:52	2.0.10.248	3	1	1	1	NA	NA	NA	NA	NA	NA	NA	NA	NA	NA	NA	NA	NA	NA	NA	NA	NA	NA	NA	NA	NA	NA	NA	NA	BlockProc	BlockList	NA	58	{LEFTARROW}	NA	-100	1685	neutral	NA	NA	NA	NA	NA	NA	NA	NA	NA	NA	NA	NA	NA	NA	NA	NA	NA	NA	NA	NA	NA	NA	TrialProc	TrialList	1	10	430708	17	0	17	428193	0	1	{LEFTARROW}	-999999	16	430242	0	{LEFTARROW}	456	430698	NA	NA	left	ooloo.bmp	354	0	NA	0	0	0	0	NA	0	0	0	NA	0	0	0	0	NA	0	0	5	1	58
Arrow Flanker 2014	12409	1	"<?xml version=""1.0""?>\n<Clock xmlns:dt=""urn:schemas-microsoft-com:datatypes""><Description dt:dt=""string"">E-Prime Primary Realtime Clock</Description><StartTime><Timestamp dt:dt=""int"">0</Timestamp><DateUtc dt:dt=""string"">2015-07-10T20:27:51Z</DateUtc></StartTime><FrequencyChanges><FrequencyChange><Frequency dt:dt=""r8"">2825703</Frequency><Timestamp dt:dt=""r8"">7457256717346</Timestamp><Current dt:dt=""r8"">0</Current><DateUtc dt:dt=""string"">2015-07-10T20:27:51Z</DateUtc></FrequencyChange></FrequencyChanges></Clock>\n"	Arrow Flanker 2014-12409-1	60.019	1.0.0.98	1	1194037059	Professional	2.0.10.353	2.0.10.353	07-10-2015	7/10/2015 8:27:52 PM	16:27:52	2.0.10.248	3	1	1	1	NA	NA	NA	NA	NA	NA	NA	NA	NA	NA	NA	NA	NA	NA	NA	NA	NA	NA	NA	NA	NA	NA	NA	NA	BlockProc	BlockList	NA	59	{LEFTARROW}	NA	-100	1167	incongruent	NA	NA	NA	NA	NA	NA	NA	NA	NA	NA	NA	NA	NA	NA	NA	NA	NA	NA	NA	NA	NA	NA	TrialProc	TrialList	0	6	433008	16	0	17	431242	0	1	{LEFTARROW}	-999999	0	432458	0	{LEFTARROW}	544	433002	NA	NA	left	rrlrr.bmp	354	0	NA	0	0	0	0	NA	0	0	0	NA	0	0	0	0	NA	0	0	3	1	59
Arrow Flanker 2014	12409	1	"<?xml version=""1.0""?>\n<Clock xmlns:dt=""urn:schemas-microsoft-com:datatypes""><Description dt:dt=""string"">E-Prime Primary Realtime Clock</Description><StartTime><Timestamp dt:dt=""int"">0</Timestamp><DateUtc dt:dt=""string"">2015-07-10T20:27:51Z</DateUtc></StartTime><FrequencyChanges><FrequencyChange><Frequency dt:dt=""r8"">2825703</Frequency><Timestamp dt:dt=""r8"">7457256717346</Timestamp><Current dt:dt=""r8"">0</Current><DateUtc dt:dt=""string"">2015-07-10T20:27:51Z</DateUtc></FrequencyChange></FrequencyChanges></Clock>\n"	Arrow Flanker 2014-12409-1	60.019	1.0.0.98	1	1194037059	Professional	2.0.10.353	2.0.10.353	07-10-2015	7/10/2015 8:27:52 PM	16:27:52	2.0.10.248	3	1	1	1	NA	NA	NA	NA	NA	NA	NA	NA	NA	NA	NA	NA	NA	NA	NA	NA	NA	NA	NA	NA	NA	NA	NA	NA	BlockProc	BlockList	NA	60	{LEFTARROW}	NA	-100	2075	incongruent	NA	NA	NA	NA	NA	NA	NA	NA	NA	NA	NA	NA	NA	NA	NA	NA	NA	NA	NA	NA	NA	NA	TrialProc	TrialList	0	6	435424	16	0	17	433541	0	0	{LEFTARROW}	-999999	0	434974	0	{RIGHTARROW}	444	435418	NA	NA	left	rrlrr.bmp	354	0	NA	0	0	0	0	NA	0	0	0	NA	0	0	0	0	NA	0	0	3	1	60
Arrow Flanker 2014	12409	1	"<?xml version=""1.0""?>\n<Clock xmlns:dt=""urn:schemas-microsoft-com:datatypes""><Description dt:dt=""string"">E-Prime Primary Realtime Clock</Description><StartTime><Timestamp dt:dt=""int"">0</Timestamp><DateUtc dt:dt=""string"">2015-07-10T20:27:51Z</DateUtc></StartTime><FrequencyChanges><FrequencyChange><Frequency dt:dt=""r8"">2825703</Frequency><Timestamp dt:dt=""r8"">7457256717346</Timestamp><Current dt:dt=""r8"">0</Current><DateUtc dt:dt=""string"">2015-07-10T20:27:51Z</DateUtc></FrequencyChange></FrequencyChanges></Clock>\n"	Arrow Flanker 2014-12409-1	60.019	1.0.0.98	1	1194037059	Professional	2.0.10.353	2.0.10.353	07-10-2015	7/10/2015 8:27:52 PM	16:27:52	2.0.10.248	3	1	1	1	NA	NA	NA	NA	NA	NA	NA	NA	NA	NA	NA	NA	NA	NA	NA	NA	NA	NA	NA	NA	NA	NA	NA	NA	BlockProc	BlockList	NA	61	{LEFTARROW}	NA	-100	1337	incongruent	NA	NA	NA	NA	NA	NA	NA	NA	NA	NA	NA	NA	NA	NA	NA	NA	NA	NA	NA	NA	NA	NA	TrialProc	TrialList	0	17	437923	17	0	17	435957	0	1	{LEFTARROW}	-999999	0	437173	0	{LEFTARROW}	733	437906	NA	NA	left	rrlrr.bmp	354	0	NA	0	0	0	0	NA	0	0	0	NA	0	0	0	0	NA	0	0	3	1	61
Arrow Flanker 2014	12409	1	"<?xml version=""1.0""?>\n<Clock xmlns:dt=""urn:schemas-microsoft-com:datatypes""><Description dt:dt=""string"">E-Prime Primary Realtime Clock</Description><StartTime><Timestamp dt:dt=""int"">0</Timestamp><DateUtc dt:dt=""string"">2015-07-10T20:27:51Z</DateUtc></StartTime><FrequencyChanges><FrequencyChange><Frequency dt:dt=""r8"">2825703</Frequency><Timestamp dt:dt=""r8"">7457256717346</Timestamp><Current dt:dt=""r8"">0</Current><DateUtc dt:dt=""string"">2015-07-10T20:27:51Z</DateUtc></FrequencyChange></FrequencyChanges></Clock>\n"	Arrow Flanker 2014-12409-1	60.019	1.0.0.98	1	1194037059	Professional	2.0.10.353	2.0.10.353	07-10-2015	7/10/2015 8:27:52 PM	16:27:52	2.0.10.248	3	1	1	1	NA	NA	NA	NA	NA	NA	NA	NA	NA	NA	NA	NA	NA	NA	NA	NA	NA	NA	NA	NA	NA	NA	NA	NA	BlockProc	BlockList	NA	62	{RIGHTARROW}	NA	-100	1345	neutral	NA	NA	NA	NA	NA	NA	NA	NA	NA	NA	NA	NA	NA	NA	NA	NA	NA	NA	NA	NA	NA	NA	TrialProc	TrialList	0	13	440622	17	0	16	438456	0	1	{RIGHTARROW}	-999999	0	440072	0	{RIGHTARROW}	537	440609	NA	NA	right	ooroo.bmp	354	0	NA	0	0	0	0	NA	0	0	0	NA	0	0	0	0	NA	0	0	6	1	62
Arrow Flanker 2014	12409	1	"<?xml version=""1.0""?>\n<Clock xmlns:dt=""urn:schemas-microsoft-com:datatypes""><Description dt:dt=""string"">E-Prime Primary Realtime Clock</Description><StartTime><Timestamp dt:dt=""int"">0</Timestamp><DateUtc dt:dt=""string"">2015-07-10T20:27:51Z</DateUtc></StartTime><FrequencyChanges><FrequencyChange><Frequency dt:dt=""r8"">2825703</Frequency><Timestamp dt:dt=""r8"">7457256717346</Timestamp><Current dt:dt=""r8"">0</Current><DateUtc dt:dt=""string"">2015-07-10T20:27:51Z</DateUtc></FrequencyChange></FrequencyChanges></Clock>\n"	Arrow Flanker 2014-12409-1	60.019	1.0.0.98	1	1194037059	Professional	2.0.10.353	2.0.10.353	07-10-2015	7/10/2015 8:27:52 PM	16:27:52	2.0.10.248	3	1	1	1	NA	NA	NA	NA	NA	NA	NA	NA	NA	NA	NA	NA	NA	NA	NA	NA	NA	NA	NA	NA	NA	NA	NA	NA	BlockProc	BlockList	NA	63	{LEFTARROW}	NA	-100	1872	congruent	NA	NA	NA	NA	NA	NA	NA	NA	NA	NA	NA	NA	NA	NA	NA	NA	NA	NA	NA	NA	NA	NA	TrialProc	TrialList	0	6	443055	16	0	16	441155	0	1	{LEFTARROW}	-999999	0	442438	0	{LEFTARROW}	611	443049	NA	NA	left	lllll.bmp	354	0	NA	0	0	0	0	NA	0	0	0	NA	0	0	0	0	NA	0	0	1	1	63
Arrow Flanker 2014	12409	1	"<?xml version=""1.0""?>\n<Clock xmlns:dt=""urn:schemas-microsoft-com:datatypes""><Description dt:dt=""string"">E-Prime Primary Realtime Clock</Description><StartTime><Timestamp dt:dt=""int"">0</Timestamp><DateUtc dt:dt=""string"">2015-07-10T20:27:51Z</DateUtc></StartTime><FrequencyChanges><FrequencyChange><Frequency dt:dt=""r8"">2825703</Frequency><Timestamp dt:dt=""r8"">7457256717346</Timestamp><Current dt:dt=""r8"">0</Current><DateUtc dt:dt=""string"">2015-07-10T20:27:51Z</DateUtc></FrequencyChange></FrequencyChanges></Clock>\n"	Arrow Flanker 2014-12409-1	60.019	1.0.0.98	1	1194037059	Professional	2.0.10.353	2.0.10.353	07-10-2015	7/10/2015 8:27:52 PM	16:27:52	2.0.10.248	3	1	1	1	NA	NA	NA	NA	NA	NA	NA	NA	NA	NA	NA	NA	NA	NA	NA	NA	NA	NA	NA	NA	NA	NA	NA	NA	BlockProc	BlockList	NA	64	{RIGHTARROW}	NA	-100	1410	incongruent	NA	NA	NA	NA	NA	NA	NA	NA	NA	NA	NA	NA	NA	NA	NA	NA	NA	NA	NA	NA	NA	NA	TrialProc	TrialList	0	5	445454	17	0	17	443588	0	1	{RIGHTARROW}	-999999	0	444854	0	{RIGHTARROW}	595	445449	NA	NA	right	llrll.bmp	354	0	NA	0	0	0	0	NA	0	0	0	NA	0	0	0	0	NA	0	0	4	1	64
Arrow Flanker 2014	12409	1	"<?xml version=""1.0""?>\n<Clock xmlns:dt=""urn:schemas-microsoft-com:datatypes""><Description dt:dt=""string"">E-Prime Primary Realtime Clock</Description><StartTime><Timestamp dt:dt=""int"">0</Timestamp><DateUtc dt:dt=""string"">2015-07-10T20:27:51Z</DateUtc></StartTime><FrequencyChanges><FrequencyChange><Frequency dt:dt=""r8"">2825703</Frequency><Timestamp dt:dt=""r8"">7457256717346</Timestamp><Current dt:dt=""r8"">0</Current><DateUtc dt:dt=""string"">2015-07-10T20:27:51Z</DateUtc></FrequencyChange></FrequencyChanges></Clock>\n"	Arrow Flanker 2014-12409-1	60.019	1.0.0.98	1	1194037059	Professional	2.0.10.353	2.0.10.353	07-10-2015	7/10/2015 8:27:52 PM	16:27:52	2.0.10.248	3	1	1	1	NA	NA	NA	NA	NA	NA	NA	NA	NA	NA	NA	NA	NA	NA	NA	NA	NA	NA	NA	NA	NA	NA	NA	NA	BlockProc	BlockList	NA	65	{RIGHTARROW}	NA	-100	1573	congruent	NA	NA	NA	NA	NA	NA	NA	NA	NA	NA	NA	NA	NA	NA	NA	NA	NA	NA	NA	NA	NA	NA	TrialProc	TrialList	0	6	448103	17	0	16	445987	0	1	{RIGHTARROW}	-999999	0	447537	0	{RIGHTARROW}	560	448097	NA	NA	right	rrrrr.bmp	354	0	NA	0	0	0	0	NA	0	0	0	NA	0	0	0	0	NA	0	0	2	1	65
Arrow Flanker 2014	12409	1	"<?xml version=""1.0""?>\n<Clock xmlns:dt=""urn:schemas-microsoft-com:datatypes""><Description dt:dt=""string"">E-Prime Primary Realtime Clock</Description><StartTime><Timestamp dt:dt=""int"">0</Timestamp><DateUtc dt:dt=""string"">2015-07-10T20:27:51Z</DateUtc></StartTime><FrequencyChanges><FrequencyChange><Frequency dt:dt=""r8"">2825703</Frequency><Timestamp dt:dt=""r8"">7457256717346</Timestamp><Current dt:dt=""r8"">0</Current><DateUtc dt:dt=""string"">2015-07-10T20:27:51Z</DateUtc></FrequencyChange></FrequencyChanges></Clock>\n"	Arrow Flanker 2014-12409-1	60.019	1.0.0.98	1	1194037059	Professional	2.0.10.353	2.0.10.353	07-10-2015	7/10/2015 8:27:52 PM	16:27:52	2.0.10.248	3	1	1	1	NA	NA	NA	NA	NA	NA	NA	NA	NA	NA	NA	NA	NA	NA	NA	NA	NA	NA	NA	NA	NA	NA	NA	NA	BlockProc	BlockList	NA	66	{RIGHTARROW}	NA	-100	1700	neutral	NA	NA	NA	NA	NA	NA	NA	NA	NA	NA	NA	NA	NA	NA	NA	NA	NA	NA	NA	NA	NA	NA	TrialProc	TrialList	1	5	450302	17	0	16	448636	0	1	{RIGHTARROW}	-999999	0	449719	0	{RIGHTARROW}	578	450297	NA	NA	right	ooroo.bmp	354	0	NA	0	0	0	0	NA	0	0	0	NA	0	0	0	0	NA	0	0	6	1	66
Arrow Flanker 2014	12409	1	"<?xml version=""1.0""?>\n<Clock xmlns:dt=""urn:schemas-microsoft-com:datatypes""><Description dt:dt=""string"">E-Prime Primary Realtime Clock</Description><StartTime><Timestamp dt:dt=""int"">0</Timestamp><DateUtc dt:dt=""string"">2015-07-10T20:27:51Z</DateUtc></StartTime><FrequencyChanges><FrequencyChange><Frequency dt:dt=""r8"">2825703</Frequency><Timestamp dt:dt=""r8"">7457256717346</Timestamp><Current dt:dt=""r8"">0</Current><DateUtc dt:dt=""string"">2015-07-10T20:27:51Z</DateUtc></FrequencyChange></FrequencyChanges></Clock>\n"	Arrow Flanker 2014-12409-1	60.019	1.0.0.98	1	1194037059	Professional	2.0.10.353	2.0.10.353	07-10-2015	7/10/2015 8:27:52 PM	16:27:52	2.0.10.248	3	1	1	1	NA	NA	NA	NA	NA	NA	NA	NA	NA	NA	NA	NA	NA	NA	NA	NA	NA	NA	NA	NA	NA	NA	NA	NA	BlockProc	BlockList	NA	67	{LEFTARROW}	NA	-100	2533	neutral	NA	NA	NA	NA	NA	NA	NA	NA	NA	NA	NA	NA	NA	NA	NA	NA	NA	NA	NA	NA	NA	NA	TrialProc	TrialList	1	12	453468	17	0	17	450836	0	1	{LEFTARROW}	-999999	0	452902	0	{LEFTARROW}	554	453456	NA	NA	left	ooloo.bmp	354	0	NA	0	0	0	0	NA	0	0	0	NA	0	0	0	0	NA	0	0	5	1	67
Arrow Flanker 2014	12409	1	"<?xml version=""1.0""?>\n<Clock xmlns:dt=""urn:schemas-microsoft-com:datatypes""><Description dt:dt=""string"">E-Prime Primary Realtime Clock</Description><StartTime><Timestamp dt:dt=""int"">0</Timestamp><DateUtc dt:dt=""string"">2015-07-10T20:27:51Z</DateUtc></StartTime><FrequencyChanges><FrequencyChange><Frequency dt:dt=""r8"">2825703</Frequency><Timestamp dt:dt=""r8"">7457256717346</Timestamp><Current dt:dt=""r8"">0</Current><DateUtc dt:dt=""string"">2015-07-10T20:27:51Z</DateUtc></FrequencyChange></FrequencyChanges></Clock>\n"	Arrow Flanker 2014-12409-1	60.019	1.0.0.98	1	1194037059	Professional	2.0.10.353	2.0.10.353	07-10-2015	7/10/2015 8:27:52 PM	16:27:52	2.0.10.248	3	1	1	1	NA	NA	NA	NA	NA	NA	NA	NA	NA	NA	NA	NA	NA	NA	NA	NA	NA	NA	NA	NA	NA	NA	NA	NA	BlockProc	BlockList	NA	68	{RIGHTARROW}	NA	-100	1745	incongruent	NA	NA	NA	NA	NA	NA	NA	NA	NA	NA	NA	NA	NA	NA	NA	NA	NA	NA	NA	NA	NA	NA	TrialProc	TrialList	0	18	456434	16	0	16	454001	0	1	{RIGHTARROW}	-999999	0	455817	0	{RIGHTARROW}	599	456416	NA	NA	right	llrll.bmp	354	0	NA	0	0	0	0	NA	0	0	0	NA	0	0	0	0	NA	0	0	4	1	68
Arrow Flanker 2014	12409	1	"<?xml version=""1.0""?>\n<Clock xmlns:dt=""urn:schemas-microsoft-com:datatypes""><Description dt:dt=""string"">E-Prime Primary Realtime Clock</Description><StartTime><Timestamp dt:dt=""int"">0</Timestamp><DateUtc dt:dt=""string"">2015-07-10T20:27:51Z</DateUtc></StartTime><FrequencyChanges><FrequencyChange><Frequency dt:dt=""r8"">2825703</Frequency><Timestamp dt:dt=""r8"">7457256717346</Timestamp><Current dt:dt=""r8"">0</Current><DateUtc dt:dt=""string"">2015-07-10T20:27:51Z</DateUtc></FrequencyChange></FrequencyChanges></Clock>\n"	Arrow Flanker 2014-12409-1	60.019	1.0.0.98	1	1194037059	Professional	2.0.10.353	2.0.10.353	07-10-2015	7/10/2015 8:27:52 PM	16:27:52	2.0.10.248	3	1	1	1	NA	NA	NA	NA	NA	NA	NA	NA	NA	NA	NA	NA	NA	NA	NA	NA	NA	NA	NA	NA	NA	NA	NA	NA	BlockProc	BlockList	NA	69	{LEFTARROW}	NA	-100	1748	congruent	NA	NA	NA	NA	NA	NA	NA	NA	NA	NA	NA	NA	NA	NA	NA	NA	NA	NA	NA	NA	NA	NA	TrialProc	TrialList	1	18	458866	17	0	17	456967	0	1	{LEFTARROW}	-999999	0	458200	0	{LEFTARROW}	648	458848	NA	NA	left	lllll.bmp	354	0	NA	0	0	0	0	NA	0	0	0	NA	0	0	0	0	NA	0	0	1	1	69
Arrow Flanker 2014	12409	1	"<?xml version=""1.0""?>\n<Clock xmlns:dt=""urn:schemas-microsoft-com:datatypes""><Description dt:dt=""string"">E-Prime Primary Realtime Clock</Description><StartTime><Timestamp dt:dt=""int"">0</Timestamp><DateUtc dt:dt=""string"">2015-07-10T20:27:51Z</DateUtc></StartTime><FrequencyChanges><FrequencyChange><Frequency dt:dt=""r8"">2825703</Frequency><Timestamp dt:dt=""r8"">7457256717346</Timestamp><Current dt:dt=""r8"">0</Current><DateUtc dt:dt=""string"">2015-07-10T20:27:51Z</DateUtc></FrequencyChange></FrequencyChanges></Clock>\n"	Arrow Flanker 2014-12409-1	60.019	1.0.0.98	1	1194037059	Professional	2.0.10.353	2.0.10.353	07-10-2015	7/10/2015 8:27:52 PM	16:27:52	2.0.10.248	3	1	1	1	NA	NA	NA	NA	NA	NA	NA	NA	NA	NA	NA	NA	NA	NA	NA	NA	NA	NA	NA	NA	NA	NA	NA	NA	BlockProc	BlockList	NA	70	{LEFTARROW}	NA	-100	1777	incongruent	NA	NA	NA	NA	NA	NA	NA	NA	NA	NA	NA	NA	NA	NA	NA	NA	NA	NA	NA	NA	2	2	TrialProc	TrialList	1	10	461282	17	0	16	459399	0	1	{LEFTARROW}	-999999	0	460616	0	{LEFTARROW}	656	461272	NA	NA	left	rrlrr.bmp	354	0	NA	-999999	16	461815	0	1	3813	465628	0	NA	-999999	20	465648	0	1	939	466587	3	1	70
Arrow Flanker 2014	12409	1	"<?xml version=""1.0""?>\n<Clock xmlns:dt=""urn:schemas-microsoft-com:datatypes""><Description dt:dt=""string"">E-Prime Primary Realtime Clock</Description><StartTime><Timestamp dt:dt=""int"">0</Timestamp><DateUtc dt:dt=""string"">2015-07-10T20:27:51Z</DateUtc></StartTime><FrequencyChanges><FrequencyChange><Frequency dt:dt=""r8"">2825703</Frequency><Timestamp dt:dt=""r8"">7457256717346</Timestamp><Current dt:dt=""r8"">0</Current><DateUtc dt:dt=""string"">2015-07-10T20:27:51Z</DateUtc></FrequencyChange></FrequencyChanges></Clock>\n"	Arrow Flanker 2014-12409-1	60.019	1.0.0.98	1	1194037059	Professional	2.0.10.353	2.0.10.353	07-10-2015	7/10/2015 8:27:52 PM	16:27:52	2.0.10.248	3	1	1	1	NA	NA	NA	NA	NA	NA	NA	NA	NA	NA	NA	NA	NA	NA	NA	NA	NA	NA	NA	NA	NA	NA	NA	NA	BlockProc	BlockList	NA	71	{LEFTARROW}	NA	-100	790	congruent	NA	NA	NA	NA	NA	NA	NA	NA	NA	NA	NA	NA	NA	NA	NA	NA	NA	NA	NA	NA	NA	NA	TrialProc	TrialList	0	12	470963	16	0	11	469346	0	1	{LEFTARROW}	-999999	0	470363	0	{LEFTARROW}	588	470951	NA	NA	left	lllll.bmp	354	0	NA	0	0	0	0	NA	0	0	0	NA	0	0	0	0	NA	0	0	1	1	71
Arrow Flanker 2014	12409	1	"<?xml version=""1.0""?>\n<Clock xmlns:dt=""urn:schemas-microsoft-com:datatypes""><Description dt:dt=""string"">E-Prime Primary Realtime Clock</Description><StartTime><Timestamp dt:dt=""int"">0</Timestamp><DateUtc dt:dt=""string"">2015-07-10T20:27:51Z</DateUtc></StartTime><FrequencyChanges><FrequencyChange><Frequency dt:dt=""r8"">2825703</Frequency><Timestamp dt:dt=""r8"">7457256717346</Timestamp><Current dt:dt=""r8"">0</Current><DateUtc dt:dt=""string"">2015-07-10T20:27:51Z</DateUtc></FrequencyChange></FrequencyChanges></Clock>\n"	Arrow Flanker 2014-12409-1	60.019	1.0.0.98	1	1194037059	Professional	2.0.10.353	2.0.10.353	07-10-2015	7/10/2015 8:27:52 PM	16:27:52	2.0.10.248	3	1	1	1	NA	NA	NA	NA	NA	NA	NA	NA	NA	NA	NA	NA	NA	NA	NA	NA	NA	NA	NA	NA	NA	NA	NA	NA	BlockProc	BlockList	NA	72	{RIGHTARROW}	NA	-100	1354	incongruent	NA	NA	NA	NA	NA	NA	NA	NA	NA	NA	NA	NA	NA	NA	NA	NA	NA	NA	NA	NA	NA	NA	TrialProc	TrialList	1	16	473295	17	0	17	471496	0	1	{RIGHTARROW}	-999999	0	472729	0	{RIGHTARROW}	550	473279	NA	NA	right	llrll.bmp	354	0	NA	0	0	0	0	NA	0	0	0	NA	0	0	0	0	NA	0	0	4	1	72
