ExperimentName	Subject	Session	Clock.Information	DataFile.Basename	Display.RefreshRate	ExperimentVersion	Group	RandomSeed	RuntimeCapabilities	RuntimeVersion	RuntimeVersionExpected	SessionDate	SessionStartDateTimeUtc	SessionTime	StudioVersion	Block	BlockList	BlockList.Cycle	BlockList.Sample	Both	CompletelyMW	CongMeanRT	CongTotal	Fragmented	GoodByeList	GoodByeList.Cycle	GoodByeList.Sample	IncongMeanRT	IncongTotal	MapBlockList	MapBlockList.Cycle	MapBlockList.Sample	Mindwandering	MostlyMW	MostlyOT	NeutralMeanRT	NeutralTotal	NumberProbes1	NumberProbes2	OnTask	PracBlockList	PracBlockList.Cycle	PracBlockList.Sample	Procedure[Block]	Running[Block]	Sequential	Trial	CorrectAnswer	CuePositionY	CuePositionY2	DurationOfFixation	FlankerType	MapTrialList	MapTrialList.Cycle	MapTrialList.Sample	PracSlideFixationStart.DurationError	PracSlideFixationStart.OnsetDelay	PracSlideFixationStart.OnsetTime	PracSlideFixationStart.OnsetToOnsetTime	PracSlideTarget.ACC	PracSlideTarget.CRESP	PracSlideTarget.DurationError	PracSlideTarget.OnsetDelay	PracSlideTarget.OnsetTime	PracSlideTarget.OnsetToOnsetTime	PracSlideTarget.RESP	PracSlideTarget.RT	PracSlideTarget.RTTime	PracSlideTarget.Tag	PracTrialList	PracTrialList.Cycle	PracTrialList.Sample	Probe1Resp	Probe2Resp	Procedure[Trial]	Running[Trial]	SlideFixationEnd.DurationError	SlideFixationEnd.OnsetDelay	SlideFixationEnd.OnsetTime	SlideFixationEnd.OnsetToOnsetTime	SlideFixationStart.DurationError	SlideFixationStart.OnsetDelay	SlideFixationStart.OnsetTime	SlideFixationStart.OnsetToOnsetTime	SlideTarget.ACC	SlideTarget.CRESP	SlideTarget.DurationError	SlideTarget.OnsetDelay	SlideTarget.OnsetTime	SlideTarget.OnsetToOnsetTime	SlideTarget.RESP	SlideTarget.RT	SlideTarget.RTTime	SlideTarget.Tag	TargerDirection	TargetDirection	TargetImage	TargetPosition	ThoughtProbe1.ACC	ThoughtProbe1.CRESP	ThoughtProbe1.DurationError	ThoughtProbe1.OnsetDelay	ThoughtProbe1.OnsetTime	ThoughtProbe1.OnsetToOnsetTime	ThoughtProbe1.RESP	ThoughtProbe1.RT	ThoughtProbe1.RTTime	ThoughtProbe2.ACC	ThoughtProbe2.CRESP	ThoughtProbe2.DurationError	ThoughtProbe2.OnsetDelay	ThoughtProbe2.OnsetTime	ThoughtProbe2.OnsetToOnsetTime	ThoughtProbe2.RESP	ThoughtProbe2.RT	ThoughtProbe2.RTTime	TrialList	TrialList.Cycle	TrialList.Sample
Arrow Flanker 2014	12416	1	"<?xml version=""1.0""?>\n<Clock xmlns:dt=""urn:schemas-microsoft-com:datatypes""><Description dt:dt=""string"">E-Prime Primary Realtime Clock</Description><StartTime><Timestamp dt:dt=""int"">0</Timestamp><DateUtc dt:dt=""string"">2015-07-13T21:18:30Z</DateUtc></StartTime><FrequencyChanges><FrequencyChange><Frequency dt:dt=""r8"">2825664</Frequency><Timestamp dt:dt=""r8"">7953011866822</Timestamp><Current dt:dt=""r8"">0</Current><DateUtc dt:dt=""string"">2015-07-13T21:18:30Z</DateUtc></FrequencyChange></FrequencyChanges></Clock>\n"	Arrow Flanker 2014-12416-1	60.018	1.0.0.100	1	-1267003554	Professional	2.0.10.353	2.0.10.353	07-13-2015	7/13/2015 9:18:30 PM	17:18:30	2.0.10.248	1	NA	NA	NA	NA	NA	NA	NA	NA	NA	NA	NA	NA	NA	1	1	1	NA	NA	NA	NA	NA	NA	NA	NA	NA	NA	NA	MapBlockProc	MapBlockList	NA	1	{RIGHTARROW}	-100	NA	1441	NA	2	1	1	0	13	176877	1450	1	{RIGHTARROW}	-999999	0	178827	0	{RIGHTARROW}	549	179376	NA	NA	NA	NA	NA	NA	MapTrialProc	MapTrialList	NA	NA	NA	NA	NA	NA	NA	NA	NA	NA	NA	NA	NA	NA	NA	NA	NA	NA	right	NA	R.bmp	354	NA	NA	NA	NA	NA	NA	NA	NA	NA	NA	NA	NA	NA	NA	NA	NA	NA	NA	NA	NA	NA
Arrow Flanker 2014	12416	1	"<?xml version=""1.0""?>\n<Clock xmlns:dt=""urn:schemas-microsoft-com:datatypes""><Description dt:dt=""string"">E-Prime Primary Realtime Clock</Description><StartTime><Timestamp dt:dt=""int"">0</Timestamp><DateUtc dt:dt=""string"">2015-07-13T21:18:30Z</DateUtc></StartTime><FrequencyChanges><FrequencyChange><Frequency dt:dt=""r8"">2825664</Frequency><Timestamp dt:dt=""r8"">7953011866822</Timestamp><Current dt:dt=""r8"">0</Current><DateUtc dt:dt=""string"">2015-07-13T21:18:30Z</DateUtc></FrequencyChange></FrequencyChanges></Clock>\n"	Arrow Flanker 2014-12416-1	60.018	1.0.0.100	1	-1267003554	Professional	2.0.10.353	2.0.10.353	07-13-2015	7/13/2015 9:18:30 PM	17:18:30	2.0.10.248	1	NA	NA	NA	NA	NA	NA	NA	NA	NA	NA	NA	NA	NA	1	1	1	NA	NA	NA	NA	NA	NA	NA	NA	NA	NA	NA	MapBlockProc	MapBlockList	NA	2	{RIGHTARROW}	-100	NA	938	NA	2	1	2	0	16	180909	950	1	{RIGHTARROW}	-999999	0	182359	0	{RIGHTARROW}	472	182831	NA	NA	NA	NA	NA	NA	MapTrialProc	MapTrialList	NA	NA	NA	NA	NA	NA	NA	NA	NA	NA	NA	NA	NA	NA	NA	NA	NA	NA	right	NA	R.bmp	354	NA	NA	NA	NA	NA	NA	NA	NA	NA	NA	NA	NA	NA	NA	NA	NA	NA	NA	NA	NA	NA
Arrow Flanker 2014	12416	1	"<?xml version=""1.0""?>\n<Clock xmlns:dt=""urn:schemas-microsoft-com:datatypes""><Description dt:dt=""string"">E-Prime Primary Realtime Clock</Description><StartTime><Timestamp dt:dt=""int"">0</Timestamp><DateUtc dt:dt=""string"">2015-07-13T21:18:30Z</DateUtc></StartTime><FrequencyChanges><FrequencyChange><Frequency dt:dt=""r8"">2825664</Frequency><Timestamp dt:dt=""r8"">7953011866822</Timestamp><Current dt:dt=""r8"">0</Current><DateUtc dt:dt=""string"">2015-07-13T21:18:30Z</DateUtc></FrequencyChange></FrequencyChanges></Clock>\n"	Arrow Flanker 2014-12416-1	60.018	1.0.0.100	1	-1267003554	Professional	2.0.10.353	2.0.10.353	07-13-2015	7/13/2015 9:18:30 PM	17:18:30	2.0.10.248	1	NA	NA	NA	NA	NA	NA	NA	NA	NA	NA	NA	NA	NA	1	1	1	NA	NA	NA	NA	NA	NA	NA	NA	NA	NA	NA	MapBlockProc	MapBlockList	NA	3	{RIGHTARROW}	-100	NA	770	NA	2	1	3	0	16	184358	784	1	{RIGHTARROW}	-999999	0	185641	0	{RIGHTARROW}	406	186047	NA	NA	NA	NA	NA	NA	MapTrialProc	MapTrialList	NA	NA	NA	NA	NA	NA	NA	NA	NA	NA	NA	NA	NA	NA	NA	NA	NA	NA	right	NA	R.bmp	354	NA	NA	NA	NA	NA	NA	NA	NA	NA	NA	NA	NA	NA	NA	NA	NA	NA	NA	NA	NA	NA
Arrow Flanker 2014	12416	1	"<?xml version=""1.0""?>\n<Clock xmlns:dt=""urn:schemas-microsoft-com:datatypes""><Description dt:dt=""string"">E-Prime Primary Realtime Clock</Description><StartTime><Timestamp dt:dt=""int"">0</Timestamp><DateUtc dt:dt=""string"">2015-07-13T21:18:30Z</DateUtc></StartTime><FrequencyChanges><FrequencyChange><Frequency dt:dt=""r8"">2825664</Frequency><Timestamp dt:dt=""r8"">7953011866822</Timestamp><Current dt:dt=""r8"">0</Current><DateUtc dt:dt=""string"">2015-07-13T21:18:30Z</DateUtc></FrequencyChange></FrequencyChanges></Clock>\n"	Arrow Flanker 2014-12416-1	60.018	1.0.0.100	1	-1267003554	Professional	2.0.10.353	2.0.10.353	07-13-2015	7/13/2015 9:18:30 PM	17:18:30	2.0.10.248	1	NA	NA	NA	NA	NA	NA	NA	NA	NA	NA	NA	NA	NA	1	1	1	NA	NA	NA	NA	NA	NA	NA	NA	NA	NA	NA	MapBlockProc	MapBlockList	NA	4	{RIGHTARROW}	-100	NA	414	NA	2	1	4	0	16	187574	417	1	{RIGHTARROW}	-999999	0	188491	0	{RIGHTARROW}	596	189087	NA	NA	NA	NA	NA	NA	MapTrialProc	MapTrialList	NA	NA	NA	NA	NA	NA	NA	NA	NA	NA	NA	NA	NA	NA	NA	NA	NA	NA	right	NA	R.bmp	354	NA	NA	NA	NA	NA	NA	NA	NA	NA	NA	NA	NA	NA	NA	NA	NA	NA	NA	NA	NA	NA
Arrow Flanker 2014	12416	1	"<?xml version=""1.0""?>\n<Clock xmlns:dt=""urn:schemas-microsoft-com:datatypes""><Description dt:dt=""string"">E-Prime Primary Realtime Clock</Description><StartTime><Timestamp dt:dt=""int"">0</Timestamp><DateUtc dt:dt=""string"">2015-07-13T21:18:30Z</DateUtc></StartTime><FrequencyChanges><FrequencyChange><Frequency dt:dt=""r8"">2825664</Frequency><Timestamp dt:dt=""r8"">7953011866822</Timestamp><Current dt:dt=""r8"">0</Current><DateUtc dt:dt=""string"">2015-07-13T21:18:30Z</DateUtc></FrequencyChange></FrequencyChanges></Clock>\n"	Arrow Flanker 2014-12416-1	60.018	1.0.0.100	1	-1267003554	Professional	2.0.10.353	2.0.10.353	07-13-2015	7/13/2015 9:18:30 PM	17:18:30	2.0.10.248	1	NA	NA	NA	NA	NA	NA	NA	NA	NA	NA	NA	NA	NA	1	1	1	NA	NA	NA	NA	NA	NA	NA	NA	NA	NA	NA	MapBlockProc	MapBlockList	NA	5	{LEFTARROW}	-100	NA	985	NA	1	1	5	0	16	190623	1000	1	{LEFTARROW}	-999999	0	192123	0	{LEFTARROW}	548	192671	NA	NA	NA	NA	NA	NA	MapTrialProc	MapTrialList	NA	NA	NA	NA	NA	NA	NA	NA	NA	NA	NA	NA	NA	NA	NA	NA	NA	NA	left	NA	L.bmp	354	NA	NA	NA	NA	NA	NA	NA	NA	NA	NA	NA	NA	NA	NA	NA	NA	NA	NA	NA	NA	NA
Arrow Flanker 2014	12416	1	"<?xml version=""1.0""?>\n<Clock xmlns:dt=""urn:schemas-microsoft-com:datatypes""><Description dt:dt=""string"">E-Prime Primary Realtime Clock</Description><StartTime><Timestamp dt:dt=""int"">0</Timestamp><DateUtc dt:dt=""string"">2015-07-13T21:18:30Z</DateUtc></StartTime><FrequencyChanges><FrequencyChange><Frequency dt:dt=""r8"">2825664</Frequency><Timestamp dt:dt=""r8"">7953011866822</Timestamp><Current dt:dt=""r8"">0</Current><DateUtc dt:dt=""string"">2015-07-13T21:18:30Z</DateUtc></FrequencyChange></FrequencyChanges></Clock>\n"	Arrow Flanker 2014-12416-1	60.018	1.0.0.100	1	-1267003554	Professional	2.0.10.353	2.0.10.353	07-13-2015	7/13/2015 9:18:30 PM	17:18:30	2.0.10.248	1	NA	NA	NA	NA	NA	NA	NA	NA	NA	NA	NA	NA	NA	1	1	1	NA	NA	NA	NA	NA	NA	NA	NA	NA	NA	NA	MapBlockProc	MapBlockList	NA	6	{RIGHTARROW}	-100	NA	518	NA	2	1	6	0	17	194206	533	1	{RIGHTARROW}	-999999	0	195239	0	{RIGHTARROW}	376	195615	NA	NA	NA	NA	NA	NA	MapTrialProc	MapTrialList	NA	NA	NA	NA	NA	NA	NA	NA	NA	NA	NA	NA	NA	NA	NA	NA	NA	NA	right	NA	R.bmp	354	NA	NA	NA	NA	NA	NA	NA	NA	NA	NA	NA	NA	NA	NA	NA	NA	NA	NA	NA	NA	NA
Arrow Flanker 2014	12416	1	"<?xml version=""1.0""?>\n<Clock xmlns:dt=""urn:schemas-microsoft-com:datatypes""><Description dt:dt=""string"">E-Prime Primary Realtime Clock</Description><StartTime><Timestamp dt:dt=""int"">0</Timestamp><DateUtc dt:dt=""string"">2015-07-13T21:18:30Z</DateUtc></StartTime><FrequencyChanges><FrequencyChange><Frequency dt:dt=""r8"">2825664</Frequency><Timestamp dt:dt=""r8"">7953011866822</Timestamp><Current dt:dt=""r8"">0</Current><DateUtc dt:dt=""string"">2015-07-13T21:18:30Z</DateUtc></FrequencyChange></FrequencyChanges></Clock>\n"	Arrow Flanker 2014-12416-1	60.018	1.0.0.100	1	-1267003554	Professional	2.0.10.353	2.0.10.353	07-13-2015	7/13/2015 9:18:30 PM	17:18:30	2.0.10.248	1	NA	NA	NA	NA	NA	NA	NA	NA	NA	NA	NA	NA	NA	1	1	1	NA	NA	NA	NA	NA	NA	NA	NA	NA	NA	NA	MapBlockProc	MapBlockList	NA	7	{LEFTARROW}	-100	NA	1516	NA	1	1	7	0	17	197155	1516	1	{LEFTARROW}	-999999	0	199171	0	{LEFTARROW}	475	199646	NA	NA	NA	NA	NA	NA	MapTrialProc	MapTrialList	NA	NA	NA	NA	NA	NA	NA	NA	NA	NA	NA	NA	NA	NA	NA	NA	NA	NA	left	NA	L.bmp	354	NA	NA	NA	NA	NA	NA	NA	NA	NA	NA	NA	NA	NA	NA	NA	NA	NA	NA	NA	NA	NA
Arrow Flanker 2014	12416	1	"<?xml version=""1.0""?>\n<Clock xmlns:dt=""urn:schemas-microsoft-com:datatypes""><Description dt:dt=""string"">E-Prime Primary Realtime Clock</Description><StartTime><Timestamp dt:dt=""int"">0</Timestamp><DateUtc dt:dt=""string"">2015-07-13T21:18:30Z</DateUtc></StartTime><FrequencyChanges><FrequencyChange><Frequency dt:dt=""r8"">2825664</Frequency><Timestamp dt:dt=""r8"">7953011866822</Timestamp><Current dt:dt=""r8"">0</Current><DateUtc dt:dt=""string"">2015-07-13T21:18:30Z</DateUtc></FrequencyChange></FrequencyChanges></Clock>\n"	Arrow Flanker 2014-12416-1	60.018	1.0.0.100	1	-1267003554	Professional	2.0.10.353	2.0.10.353	07-13-2015	7/13/2015 9:18:30 PM	17:18:30	2.0.10.248	1	NA	NA	NA	NA	NA	NA	NA	NA	NA	NA	NA	NA	NA	1	1	1	NA	NA	NA	NA	NA	NA	NA	NA	NA	NA	NA	MapBlockProc	MapBlockList	NA	8	{LEFTARROW}	-100	NA	1502	NA	1	1	8	0	16	201187	1516	1	{LEFTARROW}	-999999	0	203203	0	{LEFTARROW}	491	203694	NA	NA	NA	NA	NA	NA	MapTrialProc	MapTrialList	NA	NA	NA	NA	NA	NA	NA	NA	NA	NA	NA	NA	NA	NA	NA	NA	NA	NA	left	NA	L.bmp	354	NA	NA	NA	NA	NA	NA	NA	NA	NA	NA	NA	NA	NA	NA	NA	NA	NA	NA	NA	NA	NA
Arrow Flanker 2014	12416	1	"<?xml version=""1.0""?>\n<Clock xmlns:dt=""urn:schemas-microsoft-com:datatypes""><Description dt:dt=""string"">E-Prime Primary Realtime Clock</Description><StartTime><Timestamp dt:dt=""int"">0</Timestamp><DateUtc dt:dt=""string"">2015-07-13T21:18:30Z</DateUtc></StartTime><FrequencyChanges><FrequencyChange><Frequency dt:dt=""r8"">2825664</Frequency><Timestamp dt:dt=""r8"">7953011866822</Timestamp><Current dt:dt=""r8"">0</Current><DateUtc dt:dt=""string"">2015-07-13T21:18:30Z</DateUtc></FrequencyChange></FrequencyChanges></Clock>\n"	Arrow Flanker 2014-12416-1	60.018	1.0.0.100	1	-1267003554	Professional	2.0.10.353	2.0.10.353	07-13-2015	7/13/2015 9:18:30 PM	17:18:30	2.0.10.248	1	NA	NA	NA	NA	NA	NA	NA	NA	NA	NA	NA	NA	NA	1	1	1	NA	NA	NA	NA	NA	NA	NA	NA	NA	NA	NA	MapBlockProc	MapBlockList	NA	9	{LEFTARROW}	-100	NA	1014	NA	1	1	9	0	16	205235	1017	1	{LEFTARROW}	-999999	0	206752	0	{LEFTARROW}	654	207406	NA	NA	NA	NA	NA	NA	MapTrialProc	MapTrialList	NA	NA	NA	NA	NA	NA	NA	NA	NA	NA	NA	NA	NA	NA	NA	NA	NA	NA	left	NA	L.bmp	354	NA	NA	NA	NA	NA	NA	NA	NA	NA	NA	NA	NA	NA	NA	NA	NA	NA	NA	NA	NA	NA
Arrow Flanker 2014	12416	1	"<?xml version=""1.0""?>\n<Clock xmlns:dt=""urn:schemas-microsoft-com:datatypes""><Description dt:dt=""string"">E-Prime Primary Realtime Clock</Description><StartTime><Timestamp dt:dt=""int"">0</Timestamp><DateUtc dt:dt=""string"">2015-07-13T21:18:30Z</DateUtc></StartTime><FrequencyChanges><FrequencyChange><Frequency dt:dt=""r8"">2825664</Frequency><Timestamp dt:dt=""r8"">7953011866822</Timestamp><Current dt:dt=""r8"">0</Current><DateUtc dt:dt=""string"">2015-07-13T21:18:30Z</DateUtc></FrequencyChange></FrequencyChanges></Clock>\n"	Arrow Flanker 2014-12416-1	60.018	1.0.0.100	1	-1267003554	Professional	2.0.10.353	2.0.10.353	07-13-2015	7/13/2015 9:18:30 PM	17:18:30	2.0.10.248	1	NA	NA	NA	NA	NA	NA	NA	NA	NA	NA	NA	NA	NA	1	1	1	NA	NA	NA	NA	NA	NA	NA	NA	NA	NA	NA	MapBlockProc	MapBlockList	NA	10	{LEFTARROW}	-100	NA	525	NA	1	1	10	0	16	208934	534	1	{LEFTARROW}	-999999	16	209984	0	{LEFTARROW}	366	210350	NA	NA	NA	NA	NA	NA	MapTrialProc	MapTrialList	NA	NA	NA	NA	NA	NA	NA	NA	NA	NA	NA	NA	NA	NA	NA	NA	NA	NA	left	NA	L.bmp	354	NA	NA	NA	NA	NA	NA	NA	NA	NA	NA	NA	NA	NA	NA	NA	NA	NA	NA	NA	NA	NA
Arrow Flanker 2014	12416	1	"<?xml version=""1.0""?>\n<Clock xmlns:dt=""urn:schemas-microsoft-com:datatypes""><Description dt:dt=""string"">E-Prime Primary Realtime Clock</Description><StartTime><Timestamp dt:dt=""int"">0</Timestamp><DateUtc dt:dt=""string"">2015-07-13T21:18:30Z</DateUtc></StartTime><FrequencyChanges><FrequencyChange><Frequency dt:dt=""r8"">2825664</Frequency><Timestamp dt:dt=""r8"">7953011866822</Timestamp><Current dt:dt=""r8"">0</Current><DateUtc dt:dt=""string"">2015-07-13T21:18:30Z</DateUtc></FrequencyChange></FrequencyChanges></Clock>\n"	Arrow Flanker 2014-12416-1	60.018	1.0.0.100	1	-1267003554	Professional	2.0.10.353	2.0.10.353	07-13-2015	7/13/2015 9:18:30 PM	17:18:30	2.0.10.248	2	NA	NA	NA	NA	NA	NA	NA	NA	NA	NA	NA	NA	NA	NA	NA	NA	NA	NA	NA	NA	NA	NA	NA	NA	1	1	1	PracBlockProc	PracBlockList	NA	1	{RIGHTARROW}	-100	NA	1265	congruent	NA	NA	NA	0	10	244774	1266	1	{RIGHTARROW}	-999999	0	246540	0	{RIGHTARROW}	607	247147	NA	4	1	1	NA	NA	PracTrialProc	PracTrialList	NA	NA	NA	NA	NA	NA	NA	NA	NA	NA	NA	NA	NA	NA	NA	NA	NA	NA	right	NA	rrrrr.bmp	354	NA	NA	NA	NA	NA	NA	NA	NA	NA	NA	NA	NA	NA	NA	NA	NA	NA	NA	NA	NA	NA
Arrow Flanker 2014	12416	1	"<?xml version=""1.0""?>\n<Clock xmlns:dt=""urn:schemas-microsoft-com:datatypes""><Description dt:dt=""string"">E-Prime Primary Realtime Clock</Description><StartTime><Timestamp dt:dt=""int"">0</Timestamp><DateUtc dt:dt=""string"">2015-07-13T21:18:30Z</DateUtc></StartTime><FrequencyChanges><FrequencyChange><Frequency dt:dt=""r8"">2825664</Frequency><Timestamp dt:dt=""r8"">7953011866822</Timestamp><Current dt:dt=""r8"">0</Current><DateUtc dt:dt=""string"">2015-07-13T21:18:30Z</DateUtc></FrequencyChange></FrequencyChanges></Clock>\n"	Arrow Flanker 2014-12416-1	60.018	1.0.0.100	1	-1267003554	Professional	2.0.10.353	2.0.10.353	07-13-2015	7/13/2015 9:18:30 PM	17:18:30	2.0.10.248	2	NA	NA	NA	NA	NA	NA	NA	NA	NA	NA	NA	NA	NA	NA	NA	NA	NA	NA	NA	NA	NA	NA	NA	NA	1	1	1	PracBlockProc	PracBlockList	NA	2	{LEFTARROW}	-100	NA	1273	neutral	NA	NA	NA	0	16	248689	1283	0	{LEFTARROW}	0	0	250472	1716	NA	0	0	NA	3	1	2	NA	NA	PracTrialProc	PracTrialList	NA	NA	NA	NA	NA	NA	NA	NA	NA	NA	NA	NA	NA	NA	NA	NA	NA	NA	left	NA	ooloo.bmp	354	NA	NA	NA	NA	NA	NA	NA	NA	NA	NA	NA	NA	NA	NA	NA	NA	NA	NA	NA	NA	NA
Arrow Flanker 2014	12416	1	"<?xml version=""1.0""?>\n<Clock xmlns:dt=""urn:schemas-microsoft-com:datatypes""><Description dt:dt=""string"">E-Prime Primary Realtime Clock</Description><StartTime><Timestamp dt:dt=""int"">0</Timestamp><DateUtc dt:dt=""string"">2015-07-13T21:18:30Z</DateUtc></StartTime><FrequencyChanges><FrequencyChange><Frequency dt:dt=""r8"">2825664</Frequency><Timestamp dt:dt=""r8"">7953011866822</Timestamp><Current dt:dt=""r8"">0</Current><DateUtc dt:dt=""string"">2015-07-13T21:18:30Z</DateUtc></FrequencyChange></FrequencyChanges></Clock>\n"	Arrow Flanker 2014-12416-1	60.018	1.0.0.100	1	-1267003554	Professional	2.0.10.353	2.0.10.353	07-13-2015	7/13/2015 9:18:30 PM	17:18:30	2.0.10.248	2	NA	NA	NA	NA	NA	NA	NA	NA	NA	NA	NA	NA	NA	NA	NA	NA	NA	NA	NA	NA	NA	NA	NA	NA	1	1	1	PracBlockProc	PracBlockList	NA	3	{LEFTARROW}	-100	NA	692	incongruent	NA	NA	NA	0	16	253704	700	1	{LEFTARROW}	-999999	0	254904	0	{LEFTARROW}	947	255851	NA	2	1	3	NA	NA	PracTrialProc	PracTrialList	NA	NA	NA	NA	NA	NA	NA	NA	NA	NA	NA	NA	NA	NA	NA	NA	NA	NA	left	NA	rrlrr.bmp	354	NA	NA	NA	NA	NA	NA	NA	NA	NA	NA	NA	NA	NA	NA	NA	NA	NA	NA	NA	NA	NA
Arrow Flanker 2014	12416	1	"<?xml version=""1.0""?>\n<Clock xmlns:dt=""urn:schemas-microsoft-com:datatypes""><Description dt:dt=""string"">E-Prime Primary Realtime Clock</Description><StartTime><Timestamp dt:dt=""int"">0</Timestamp><DateUtc dt:dt=""string"">2015-07-13T21:18:30Z</DateUtc></StartTime><FrequencyChanges><FrequencyChange><Frequency dt:dt=""r8"">2825664</Frequency><Timestamp dt:dt=""r8"">7953011866822</Timestamp><Current dt:dt=""r8"">0</Current><DateUtc dt:dt=""string"">2015-07-13T21:18:30Z</DateUtc></FrequencyChange></FrequencyChanges></Clock>\n"	Arrow Flanker 2014-12416-1	60.018	1.0.0.100	1	-1267003554	Professional	2.0.10.353	2.0.10.353	07-13-2015	7/13/2015 9:18:30 PM	17:18:30	2.0.10.248	2	NA	NA	NA	NA	NA	NA	NA	NA	NA	NA	NA	NA	NA	NA	NA	NA	NA	NA	NA	NA	NA	NA	NA	NA	1	1	1	PracBlockProc	PracBlockList	NA	4	{LEFTARROW}	-100	NA	962	congruent	NA	NA	NA	0	17	257387	966	1	{LEFTARROW}	-999999	0	258853	0	{LEFTARROW}	790	259643	NA	1	1	4	NA	NA	PracTrialProc	PracTrialList	NA	NA	NA	NA	NA	NA	NA	NA	NA	NA	NA	NA	NA	NA	NA	NA	NA	NA	left	NA	lllll.bmp	354	NA	NA	NA	NA	NA	NA	NA	NA	NA	NA	NA	NA	NA	NA	NA	NA	NA	NA	NA	NA	NA
Arrow Flanker 2014	12416	1	"<?xml version=""1.0""?>\n<Clock xmlns:dt=""urn:schemas-microsoft-com:datatypes""><Description dt:dt=""string"">E-Prime Primary Realtime Clock</Description><StartTime><Timestamp dt:dt=""int"">0</Timestamp><DateUtc dt:dt=""string"">2015-07-13T21:18:30Z</DateUtc></StartTime><FrequencyChanges><FrequencyChange><Frequency dt:dt=""r8"">2825664</Frequency><Timestamp dt:dt=""r8"">7953011866822</Timestamp><Current dt:dt=""r8"">0</Current><DateUtc dt:dt=""string"">2015-07-13T21:18:30Z</DateUtc></FrequencyChange></FrequencyChanges></Clock>\n"	Arrow Flanker 2014-12416-1	60.018	1.0.0.100	1	-1267003554	Professional	2.0.10.353	2.0.10.353	07-13-2015	7/13/2015 9:18:30 PM	17:18:30	2.0.10.248	2	NA	NA	NA	NA	NA	NA	NA	NA	NA	NA	NA	NA	NA	NA	NA	NA	NA	NA	NA	NA	NA	NA	NA	NA	1	1	1	PracBlockProc	PracBlockList	NA	5	{RIGHTARROW}	-100	NA	643	neutral	NA	NA	NA	0	16	261169	650	1	{RIGHTARROW}	-999999	16	262335	0	{RIGHTARROW}	539	262874	NA	6	1	5	NA	NA	PracTrialProc	PracTrialList	NA	NA	NA	NA	NA	NA	NA	NA	NA	NA	NA	NA	NA	NA	NA	NA	NA	NA	right	NA	ooroo.bmp	354	NA	NA	NA	NA	NA	NA	NA	NA	NA	NA	NA	NA	NA	NA	NA	NA	NA	NA	NA	NA	NA
Arrow Flanker 2014	12416	1	"<?xml version=""1.0""?>\n<Clock xmlns:dt=""urn:schemas-microsoft-com:datatypes""><Description dt:dt=""string"">E-Prime Primary Realtime Clock</Description><StartTime><Timestamp dt:dt=""int"">0</Timestamp><DateUtc dt:dt=""string"">2015-07-13T21:18:30Z</DateUtc></StartTime><FrequencyChanges><FrequencyChange><Frequency dt:dt=""r8"">2825664</Frequency><Timestamp dt:dt=""r8"">7953011866822</Timestamp><Current dt:dt=""r8"">0</Current><DateUtc dt:dt=""string"">2015-07-13T21:18:30Z</DateUtc></FrequencyChange></FrequencyChanges></Clock>\n"	Arrow Flanker 2014-12416-1	60.018	1.0.0.100	1	-1267003554	Professional	2.0.10.353	2.0.10.353	07-13-2015	7/13/2015 9:18:30 PM	17:18:30	2.0.10.248	2	NA	NA	NA	NA	NA	NA	NA	NA	NA	NA	NA	NA	NA	NA	NA	NA	NA	NA	NA	NA	NA	NA	NA	NA	1	1	1	PracBlockProc	PracBlockList	NA	6	{RIGHTARROW}	-100	NA	908	incongruent	NA	NA	NA	0	16	264401	917	1	{RIGHTARROW}	-999999	16	265834	0	{RIGHTARROW}	752	266586	NA	5	1	6	NA	NA	PracTrialProc	PracTrialList	NA	NA	NA	NA	NA	NA	NA	NA	NA	NA	NA	NA	NA	NA	NA	NA	NA	NA	right	NA	llrll.bmp	354	NA	NA	NA	NA	NA	NA	NA	NA	NA	NA	NA	NA	NA	NA	NA	NA	NA	NA	NA	NA	NA
Arrow Flanker 2014	12416	1	"<?xml version=""1.0""?>\n<Clock xmlns:dt=""urn:schemas-microsoft-com:datatypes""><Description dt:dt=""string"">E-Prime Primary Realtime Clock</Description><StartTime><Timestamp dt:dt=""int"">0</Timestamp><DateUtc dt:dt=""string"">2015-07-13T21:18:30Z</DateUtc></StartTime><FrequencyChanges><FrequencyChange><Frequency dt:dt=""r8"">2825664</Frequency><Timestamp dt:dt=""r8"">7953011866822</Timestamp><Current dt:dt=""r8"">0</Current><DateUtc dt:dt=""string"">2015-07-13T21:18:30Z</DateUtc></FrequencyChange></FrequencyChanges></Clock>\n"	Arrow Flanker 2014-12416-1	60.018	1.0.0.100	1	-1267003554	Professional	2.0.10.353	2.0.10.353	07-13-2015	7/13/2015 9:18:30 PM	17:18:30	2.0.10.248	3	NA	NA	NA	NA	NA	NA	NA	NA	NA	NA	NA	NA	NA	NA	NA	NA	NA	NA	NA	NA	NA	NA	NA	NA	1	2	2	PracBlockProc	PracBlockList	NA	1	{LEFTARROW}	-100	NA	961	congruent	NA	NA	NA	0	6	281696	966	1	{LEFTARROW}	-999999	0	283162	0	{LEFTARROW}	751	283913	NA	1	2	7	NA	NA	PracTrialProc	PracTrialList	NA	NA	NA	NA	NA	NA	NA	NA	NA	NA	NA	NA	NA	NA	NA	NA	NA	NA	left	NA	lllll.bmp	354	NA	NA	NA	NA	NA	NA	NA	NA	NA	NA	NA	NA	NA	NA	NA	NA	NA	NA	NA	NA	NA
Arrow Flanker 2014	12416	1	"<?xml version=""1.0""?>\n<Clock xmlns:dt=""urn:schemas-microsoft-com:datatypes""><Description dt:dt=""string"">E-Prime Primary Realtime Clock</Description><StartTime><Timestamp dt:dt=""int"">0</Timestamp><DateUtc dt:dt=""string"">2015-07-13T21:18:30Z</DateUtc></StartTime><FrequencyChanges><FrequencyChange><Frequency dt:dt=""r8"">2825664</Frequency><Timestamp dt:dt=""r8"">7953011866822</Timestamp><Current dt:dt=""r8"">0</Current><DateUtc dt:dt=""string"">2015-07-13T21:18:30Z</DateUtc></FrequencyChange></FrequencyChanges></Clock>\n"	Arrow Flanker 2014-12416-1	60.018	1.0.0.100	1	-1267003554	Professional	2.0.10.353	2.0.10.353	07-13-2015	7/13/2015 9:18:30 PM	17:18:30	2.0.10.248	3	NA	NA	NA	NA	NA	NA	NA	NA	NA	NA	NA	NA	NA	NA	NA	NA	NA	NA	NA	NA	NA	NA	NA	NA	1	2	2	PracBlockProc	PracBlockList	NA	2	{LEFTARROW}	-100	NA	1079	neutral	NA	NA	NA	0	16	285445	1083	1	{LEFTARROW}	-999999	0	287028	0	{LEFTARROW}	485	287513	NA	3	2	8	NA	NA	PracTrialProc	PracTrialList	NA	NA	NA	NA	NA	NA	NA	NA	NA	NA	NA	NA	NA	NA	NA	NA	NA	NA	left	NA	ooloo.bmp	354	NA	NA	NA	NA	NA	NA	NA	NA	NA	NA	NA	NA	NA	NA	NA	NA	NA	NA	NA	NA	NA
Arrow Flanker 2014	12416	1	"<?xml version=""1.0""?>\n<Clock xmlns:dt=""urn:schemas-microsoft-com:datatypes""><Description dt:dt=""string"">E-Prime Primary Realtime Clock</Description><StartTime><Timestamp dt:dt=""int"">0</Timestamp><DateUtc dt:dt=""string"">2015-07-13T21:18:30Z</DateUtc></StartTime><FrequencyChanges><FrequencyChange><Frequency dt:dt=""r8"">2825664</Frequency><Timestamp dt:dt=""r8"">7953011866822</Timestamp><Current dt:dt=""r8"">0</Current><DateUtc dt:dt=""string"">2015-07-13T21:18:30Z</DateUtc></FrequencyChange></FrequencyChanges></Clock>\n"	Arrow Flanker 2014-12416-1	60.018	1.0.0.100	1	-1267003554	Professional	2.0.10.353	2.0.10.353	07-13-2015	7/13/2015 9:18:30 PM	17:18:30	2.0.10.248	3	NA	NA	NA	NA	NA	NA	NA	NA	NA	NA	NA	NA	NA	NA	NA	NA	NA	NA	NA	NA	NA	NA	NA	NA	1	2	2	PracBlockProc	PracBlockList	NA	3	{RIGHTARROW}	-100	NA	402	incongruent	NA	NA	NA	0	16	289044	416	1	{RIGHTARROW}	-999999	0	289960	0	{RIGHTARROW}	577	290537	NA	5	2	9	NA	NA	PracTrialProc	PracTrialList	NA	NA	NA	NA	NA	NA	NA	NA	NA	NA	NA	NA	NA	NA	NA	NA	NA	NA	right	NA	llrll.bmp	354	NA	NA	NA	NA	NA	NA	NA	NA	NA	NA	NA	NA	NA	NA	NA	NA	NA	NA	NA	NA	NA
Arrow Flanker 2014	12416	1	"<?xml version=""1.0""?>\n<Clock xmlns:dt=""urn:schemas-microsoft-com:datatypes""><Description dt:dt=""string"">E-Prime Primary Realtime Clock</Description><StartTime><Timestamp dt:dt=""int"">0</Timestamp><DateUtc dt:dt=""string"">2015-07-13T21:18:30Z</DateUtc></StartTime><FrequencyChanges><FrequencyChange><Frequency dt:dt=""r8"">2825664</Frequency><Timestamp dt:dt=""r8"">7953011866822</Timestamp><Current dt:dt=""r8"">0</Current><DateUtc dt:dt=""string"">2015-07-13T21:18:30Z</DateUtc></FrequencyChange></FrequencyChanges></Clock>\n"	Arrow Flanker 2014-12416-1	60.018	1.0.0.100	1	-1267003554	Professional	2.0.10.353	2.0.10.353	07-13-2015	7/13/2015 9:18:30 PM	17:18:30	2.0.10.248	3	NA	NA	NA	NA	NA	NA	NA	NA	NA	NA	NA	NA	NA	NA	NA	NA	NA	NA	NA	NA	NA	NA	NA	NA	1	2	2	PracBlockProc	PracBlockList	NA	4	{RIGHTARROW}	-100	NA	869	congruent	NA	NA	NA	0	16	292076	883	1	{RIGHTARROW}	-999999	0	293459	0	{RIGHTARROW}	486	293945	NA	4	2	10	NA	NA	PracTrialProc	PracTrialList	NA	NA	NA	NA	NA	NA	NA	NA	NA	NA	NA	NA	NA	NA	NA	NA	NA	NA	right	NA	rrrrr.bmp	354	NA	NA	NA	NA	NA	NA	NA	NA	NA	NA	NA	NA	NA	NA	NA	NA	NA	NA	NA	NA	NA
Arrow Flanker 2014	12416	1	"<?xml version=""1.0""?>\n<Clock xmlns:dt=""urn:schemas-microsoft-com:datatypes""><Description dt:dt=""string"">E-Prime Primary Realtime Clock</Description><StartTime><Timestamp dt:dt=""int"">0</Timestamp><DateUtc dt:dt=""string"">2015-07-13T21:18:30Z</DateUtc></StartTime><FrequencyChanges><FrequencyChange><Frequency dt:dt=""r8"">2825664</Frequency><Timestamp dt:dt=""r8"">7953011866822</Timestamp><Current dt:dt=""r8"">0</Current><DateUtc dt:dt=""string"">2015-07-13T21:18:30Z</DateUtc></FrequencyChange></FrequencyChanges></Clock>\n"	Arrow Flanker 2014-12416-1	60.018	1.0.0.100	1	-1267003554	Professional	2.0.10.353	2.0.10.353	07-13-2015	7/13/2015 9:18:30 PM	17:18:30	2.0.10.248	3	NA	NA	NA	NA	NA	NA	NA	NA	NA	NA	NA	NA	NA	NA	NA	NA	NA	NA	NA	NA	NA	NA	NA	NA	1	2	2	PracBlockProc	PracBlockList	NA	5	{LEFTARROW}	-100	NA	1254	incongruent	NA	NA	NA	0	16	295475	1266	1	{LEFTARROW}	-999999	16	297258	0	{LEFTARROW}	398	297656	NA	2	2	11	NA	NA	PracTrialProc	PracTrialList	NA	NA	NA	NA	NA	NA	NA	NA	NA	NA	NA	NA	NA	NA	NA	NA	NA	NA	left	NA	rrlrr.bmp	354	NA	NA	NA	NA	NA	NA	NA	NA	NA	NA	NA	NA	NA	NA	NA	NA	NA	NA	NA	NA	NA
Arrow Flanker 2014	12416	1	"<?xml version=""1.0""?>\n<Clock xmlns:dt=""urn:schemas-microsoft-com:datatypes""><Description dt:dt=""string"">E-Prime Primary Realtime Clock</Description><StartTime><Timestamp dt:dt=""int"">0</Timestamp><DateUtc dt:dt=""string"">2015-07-13T21:18:30Z</DateUtc></StartTime><FrequencyChanges><FrequencyChange><Frequency dt:dt=""r8"">2825664</Frequency><Timestamp dt:dt=""r8"">7953011866822</Timestamp><Current dt:dt=""r8"">0</Current><DateUtc dt:dt=""string"">2015-07-13T21:18:30Z</DateUtc></FrequencyChange></FrequencyChanges></Clock>\n"	Arrow Flanker 2014-12416-1	60.018	1.0.0.100	1	-1267003554	Professional	2.0.10.353	2.0.10.353	07-13-2015	7/13/2015 9:18:30 PM	17:18:30	2.0.10.248	3	NA	NA	NA	NA	NA	NA	NA	NA	NA	NA	NA	NA	NA	NA	NA	NA	NA	NA	NA	NA	NA	NA	NA	NA	1	2	2	PracBlockProc	PracBlockList	NA	6	{RIGHTARROW}	-100	NA	1443	neutral	NA	NA	NA	0	16	299191	1449	1	{RIGHTARROW}	-999999	0	301140	0	{RIGHTARROW}	436	301576	NA	6	2	12	NA	NA	PracTrialProc	PracTrialList	NA	NA	NA	NA	NA	NA	NA	NA	NA	NA	NA	NA	NA	NA	NA	NA	NA	NA	right	NA	ooroo.bmp	354	NA	NA	NA	NA	NA	NA	NA	NA	NA	NA	NA	NA	NA	NA	NA	NA	NA	NA	NA	NA	NA
Arrow Flanker 2014	12416	1	"<?xml version=""1.0""?>\n<Clock xmlns:dt=""urn:schemas-microsoft-com:datatypes""><Description dt:dt=""string"">E-Prime Primary Realtime Clock</Description><StartTime><Timestamp dt:dt=""int"">0</Timestamp><DateUtc dt:dt=""string"">2015-07-13T21:18:30Z</DateUtc></StartTime><FrequencyChanges><FrequencyChange><Frequency dt:dt=""r8"">2825664</Frequency><Timestamp dt:dt=""r8"">7953011866822</Timestamp><Current dt:dt=""r8"">0</Current><DateUtc dt:dt=""string"">2015-07-13T21:18:30Z</DateUtc></FrequencyChange></FrequencyChanges></Clock>\n"	Arrow Flanker 2014-12416-1	60.018	1.0.0.100	1	-1267003554	Professional	2.0.10.353	2.0.10.353	07-13-2015	7/13/2015 9:18:30 PM	17:18:30	2.0.10.248	4	1	1	1	NA	NA	NA	NA	NA	NA	NA	NA	NA	NA	NA	NA	NA	NA	NA	NA	NA	NA	NA	NA	NA	NA	NA	NA	BlockProc	BlockList	NA	1	{LEFTARROW}	NA	-100	1419	congruent	NA	NA	NA	NA	NA	NA	NA	NA	NA	NA	NA	NA	NA	NA	NA	NA	NA	NA	NA	NA	NA	NA	TrialProc	TrialList	0	11	313970	16	0	17	312054	816	1	{LEFTARROW}	-999999	0	313370	0	{LEFTARROW}	589	313959	NA	NA	left	lllll.bmp	354	0	NA	0	0	0	0	NA	0	0	0	NA	0	0	0	0	NA	0	0	1	1	1
Arrow Flanker 2014	12416	1	"<?xml version=""1.0""?>\n<Clock xmlns:dt=""urn:schemas-microsoft-com:datatypes""><Description dt:dt=""string"">E-Prime Primary Realtime Clock</Description><StartTime><Timestamp dt:dt=""int"">0</Timestamp><DateUtc dt:dt=""string"">2015-07-13T21:18:30Z</DateUtc></StartTime><FrequencyChanges><FrequencyChange><Frequency dt:dt=""r8"">2825664</Frequency><Timestamp dt:dt=""r8"">7953011866822</Timestamp><Current dt:dt=""r8"">0</Current><DateUtc dt:dt=""string"">2015-07-13T21:18:30Z</DateUtc></FrequencyChange></FrequencyChanges></Clock>\n"	Arrow Flanker 2014-12416-1	60.018	1.0.0.100	1	-1267003554	Professional	2.0.10.353	2.0.10.353	07-13-2015	7/13/2015 9:18:30 PM	17:18:30	2.0.10.248	4	1	1	1	NA	NA	NA	NA	NA	NA	NA	NA	NA	NA	NA	NA	NA	NA	NA	NA	NA	NA	NA	NA	NA	NA	NA	NA	BlockProc	BlockList	NA	2	{LEFTARROW}	NA	-100	1070	congruent	NA	NA	NA	NA	NA	NA	NA	NA	NA	NA	NA	NA	NA	NA	NA	NA	NA	NA	NA	NA	NA	NA	TrialProc	TrialList	1	11	316402	17	0	17	314503	933	1	{LEFTARROW}	-999999	0	315936	0	{LEFTARROW}	455	316391	NA	NA	left	lllll.bmp	354	0	NA	0	0	0	0	NA	0	0	0	NA	0	0	0	0	NA	0	0	1	1	2
Arrow Flanker 2014	12416	1	"<?xml version=""1.0""?>\n<Clock xmlns:dt=""urn:schemas-microsoft-com:datatypes""><Description dt:dt=""string"">E-Prime Primary Realtime Clock</Description><StartTime><Timestamp dt:dt=""int"">0</Timestamp><DateUtc dt:dt=""string"">2015-07-13T21:18:30Z</DateUtc></StartTime><FrequencyChanges><FrequencyChange><Frequency dt:dt=""r8"">2825664</Frequency><Timestamp dt:dt=""r8"">7953011866822</Timestamp><Current dt:dt=""r8"">0</Current><DateUtc dt:dt=""string"">2015-07-13T21:18:30Z</DateUtc></FrequencyChange></FrequencyChanges></Clock>\n"	Arrow Flanker 2014-12416-1	60.018	1.0.0.100	1	-1267003554	Professional	2.0.10.353	2.0.10.353	07-13-2015	7/13/2015 9:18:30 PM	17:18:30	2.0.10.248	4	1	1	1	NA	NA	NA	NA	NA	NA	NA	NA	NA	NA	NA	NA	NA	NA	NA	NA	NA	NA	NA	NA	NA	NA	NA	NA	BlockProc	BlockList	NA	3	{LEFTARROW}	NA	-100	2308	congruent	NA	NA	NA	NA	NA	NA	NA	NA	NA	NA	NA	NA	NA	NA	NA	NA	NA	NA	NA	NA	NA	NA	TrialProc	TrialList	1	8	319151	17	0	16	316935	1283	1	{LEFTARROW}	-999999	0	318718	0	{LEFTARROW}	425	319143	NA	NA	left	lllll.bmp	354	0	NA	0	0	0	0	NA	0	0	0	NA	0	0	0	0	NA	0	0	1	1	3
Arrow Flanker 2014	12416	1	"<?xml version=""1.0""?>\n<Clock xmlns:dt=""urn:schemas-microsoft-com:datatypes""><Description dt:dt=""string"">E-Prime Primary Realtime Clock</Description><StartTime><Timestamp dt:dt=""int"">0</Timestamp><DateUtc dt:dt=""string"">2015-07-13T21:18:30Z</DateUtc></StartTime><FrequencyChanges><FrequencyChange><Frequency dt:dt=""r8"">2825664</Frequency><Timestamp dt:dt=""r8"">7953011866822</Timestamp><Current dt:dt=""r8"">0</Current><DateUtc dt:dt=""string"">2015-07-13T21:18:30Z</DateUtc></FrequencyChange></FrequencyChanges></Clock>\n"	Arrow Flanker 2014-12416-1	60.018	1.0.0.100	1	-1267003554	Professional	2.0.10.353	2.0.10.353	07-13-2015	7/13/2015 9:18:30 PM	17:18:30	2.0.10.248	4	1	1	1	NA	NA	NA	NA	NA	NA	NA	NA	NA	NA	NA	NA	NA	NA	NA	NA	NA	NA	NA	NA	NA	NA	NA	NA	BlockProc	BlockList	NA	4	{RIGHTARROW}	NA	-100	2165	incongruent	NA	NA	NA	NA	NA	NA	NA	NA	NA	NA	NA	NA	NA	NA	NA	NA	NA	NA	NA	NA	NA	NA	TrialProc	TrialList	0	9	321984	17	0	17	319685	1283	1	{RIGHTARROW}	-999999	16	321484	0	{RIGHTARROW}	491	321975	NA	NA	right	llrll.bmp	354	0	NA	0	0	0	0	NA	0	0	0	NA	0	0	0	0	NA	0	0	4	1	4
Arrow Flanker 2014	12416	1	"<?xml version=""1.0""?>\n<Clock xmlns:dt=""urn:schemas-microsoft-com:datatypes""><Description dt:dt=""string"">E-Prime Primary Realtime Clock</Description><StartTime><Timestamp dt:dt=""int"">0</Timestamp><DateUtc dt:dt=""string"">2015-07-13T21:18:30Z</DateUtc></StartTime><FrequencyChanges><FrequencyChange><Frequency dt:dt=""r8"">2825664</Frequency><Timestamp dt:dt=""r8"">7953011866822</Timestamp><Current dt:dt=""r8"">0</Current><DateUtc dt:dt=""string"">2015-07-13T21:18:30Z</DateUtc></FrequencyChange></FrequencyChanges></Clock>\n"	Arrow Flanker 2014-12416-1	60.018	1.0.0.100	1	-1267003554	Professional	2.0.10.353	2.0.10.353	07-13-2015	7/13/2015 9:18:30 PM	17:18:30	2.0.10.248	4	1	1	1	NA	NA	NA	NA	NA	NA	NA	NA	NA	NA	NA	NA	NA	NA	NA	NA	NA	NA	NA	NA	NA	NA	NA	NA	BlockProc	BlockList	NA	5	{RIGHTARROW}	NA	-100	2000	incongruent	NA	NA	NA	NA	NA	NA	NA	NA	NA	NA	NA	NA	NA	NA	NA	NA	NA	NA	NA	NA	NA	NA	TrialProc	TrialList	0	18	324633	17	0	16	322517	1066	1	{RIGHTARROW}	-999999	0	324083	0	{RIGHTARROW}	532	324615	NA	NA	right	llrll.bmp	354	0	NA	0	0	0	0	NA	0	0	0	NA	0	0	0	0	NA	0	0	4	1	5
Arrow Flanker 2014	12416	1	"<?xml version=""1.0""?>\n<Clock xmlns:dt=""urn:schemas-microsoft-com:datatypes""><Description dt:dt=""string"">E-Prime Primary Realtime Clock</Description><StartTime><Timestamp dt:dt=""int"">0</Timestamp><DateUtc dt:dt=""string"">2015-07-13T21:18:30Z</DateUtc></StartTime><FrequencyChanges><FrequencyChange><Frequency dt:dt=""r8"">2825664</Frequency><Timestamp dt:dt=""r8"">7953011866822</Timestamp><Current dt:dt=""r8"">0</Current><DateUtc dt:dt=""string"">2015-07-13T21:18:30Z</DateUtc></FrequencyChange></FrequencyChanges></Clock>\n"	Arrow Flanker 2014-12416-1	60.018	1.0.0.100	1	-1267003554	Professional	2.0.10.353	2.0.10.353	07-13-2015	7/13/2015 9:18:30 PM	17:18:30	2.0.10.248	4	1	1	1	NA	NA	NA	NA	NA	NA	NA	NA	NA	NA	NA	NA	NA	NA	NA	NA	NA	NA	NA	NA	NA	NA	NA	NA	BlockProc	BlockList	NA	6	{LEFTARROW}	NA	-100	1643	incongruent	NA	NA	NA	NA	NA	NA	NA	NA	NA	NA	NA	NA	NA	NA	NA	NA	NA	NA	NA	NA	NA	NA	TrialProc	TrialList	1	16	326999	17	0	16	325166	767	1	{LEFTARROW}	-999999	0	326433	0	{LEFTARROW}	550	326983	NA	NA	left	rrlrr.bmp	354	0	NA	0	0	0	0	NA	0	0	0	NA	0	0	0	0	NA	0	0	3	1	6
Arrow Flanker 2014	12416	1	"<?xml version=""1.0""?>\n<Clock xmlns:dt=""urn:schemas-microsoft-com:datatypes""><Description dt:dt=""string"">E-Prime Primary Realtime Clock</Description><StartTime><Timestamp dt:dt=""int"">0</Timestamp><DateUtc dt:dt=""string"">2015-07-13T21:18:30Z</DateUtc></StartTime><FrequencyChanges><FrequencyChange><Frequency dt:dt=""r8"">2825664</Frequency><Timestamp dt:dt=""r8"">7953011866822</Timestamp><Current dt:dt=""r8"">0</Current><DateUtc dt:dt=""string"">2015-07-13T21:18:30Z</DateUtc></FrequencyChange></FrequencyChanges></Clock>\n"	Arrow Flanker 2014-12416-1	60.018	1.0.0.100	1	-1267003554	Professional	2.0.10.353	2.0.10.353	07-13-2015	7/13/2015 9:18:30 PM	17:18:30	2.0.10.248	4	1	1	1	NA	NA	NA	NA	NA	NA	NA	NA	NA	NA	NA	NA	NA	NA	NA	NA	NA	NA	NA	NA	NA	NA	NA	NA	BlockProc	BlockList	NA	7	{LEFTARROW}	NA	-100	1468	congruent	NA	NA	NA	NA	NA	NA	NA	NA	NA	NA	NA	NA	NA	NA	NA	NA	NA	NA	NA	NA	NA	NA	TrialProc	TrialList	0	14	329365	17	0	16	327532	817	1	{LEFTARROW}	-999999	0	328849	0	{LEFTARROW}	501	329350	NA	NA	left	lllll.bmp	354	0	NA	0	0	0	0	NA	0	0	0	NA	0	0	0	0	NA	0	0	1	1	7
Arrow Flanker 2014	12416	1	"<?xml version=""1.0""?>\n<Clock xmlns:dt=""urn:schemas-microsoft-com:datatypes""><Description dt:dt=""string"">E-Prime Primary Realtime Clock</Description><StartTime><Timestamp dt:dt=""int"">0</Timestamp><DateUtc dt:dt=""string"">2015-07-13T21:18:30Z</DateUtc></StartTime><FrequencyChanges><FrequencyChange><Frequency dt:dt=""r8"">2825664</Frequency><Timestamp dt:dt=""r8"">7953011866822</Timestamp><Current dt:dt=""r8"">0</Current><DateUtc dt:dt=""string"">2015-07-13T21:18:30Z</DateUtc></FrequencyChange></FrequencyChanges></Clock>\n"	Arrow Flanker 2014-12416-1	60.018	1.0.0.100	1	-1267003554	Professional	2.0.10.353	2.0.10.353	07-13-2015	7/13/2015 9:18:30 PM	17:18:30	2.0.10.248	4	1	1	1	NA	NA	NA	NA	NA	NA	NA	NA	NA	NA	NA	NA	NA	NA	NA	NA	NA	NA	NA	NA	NA	NA	NA	NA	BlockProc	BlockList	NA	8	{RIGHTARROW}	NA	-100	1812	congruent	NA	NA	NA	NA	NA	NA	NA	NA	NA	NA	NA	NA	NA	NA	NA	NA	NA	NA	NA	NA	NA	NA	TrialProc	TrialList	0	8	332398	16	0	16	329898	1400	1	{RIGHTARROW}	-999999	0	331798	0	{RIGHTARROW}	592	332390	NA	NA	right	rrrrr.bmp	354	0	NA	0	0	0	0	NA	0	0	0	NA	0	0	0	0	NA	0	0	2	1	8
Arrow Flanker 2014	12416	1	"<?xml version=""1.0""?>\n<Clock xmlns:dt=""urn:schemas-microsoft-com:datatypes""><Description dt:dt=""string"">E-Prime Primary Realtime Clock</Description><StartTime><Timestamp dt:dt=""int"">0</Timestamp><DateUtc dt:dt=""string"">2015-07-13T21:18:30Z</DateUtc></StartTime><FrequencyChanges><FrequencyChange><Frequency dt:dt=""r8"">2825664</Frequency><Timestamp dt:dt=""r8"">7953011866822</Timestamp><Current dt:dt=""r8"">0</Current><DateUtc dt:dt=""string"">2015-07-13T21:18:30Z</DateUtc></FrequencyChange></FrequencyChanges></Clock>\n"	Arrow Flanker 2014-12416-1	60.018	1.0.0.100	1	-1267003554	Professional	2.0.10.353	2.0.10.353	07-13-2015	7/13/2015 9:18:30 PM	17:18:30	2.0.10.248	4	1	1	1	NA	NA	NA	NA	NA	NA	NA	NA	NA	NA	NA	NA	NA	NA	NA	NA	NA	NA	NA	NA	NA	NA	NA	NA	BlockProc	BlockList	NA	9	{RIGHTARROW}	NA	-100	1977	neutral	NA	NA	NA	NA	NA	NA	NA	NA	NA	NA	NA	NA	NA	NA	NA	NA	NA	NA	NA	NA	NA	NA	TrialProc	TrialList	1	11	334913	17	0	17	332931	983	1	{RIGHTARROW}	-999999	0	334414	0	{RIGHTARROW}	488	334902	NA	NA	right	ooroo.bmp	354	0	NA	0	0	0	0	NA	0	0	0	NA	0	0	0	0	NA	0	0	6	1	9
Arrow Flanker 2014	12416	1	"<?xml version=""1.0""?>\n<Clock xmlns:dt=""urn:schemas-microsoft-com:datatypes""><Description dt:dt=""string"">E-Prime Primary Realtime Clock</Description><StartTime><Timestamp dt:dt=""int"">0</Timestamp><DateUtc dt:dt=""string"">2015-07-13T21:18:30Z</DateUtc></StartTime><FrequencyChanges><FrequencyChange><Frequency dt:dt=""r8"">2825664</Frequency><Timestamp dt:dt=""r8"">7953011866822</Timestamp><Current dt:dt=""r8"">0</Current><DateUtc dt:dt=""string"">2015-07-13T21:18:30Z</DateUtc></FrequencyChange></FrequencyChanges></Clock>\n"	Arrow Flanker 2014-12416-1	60.018	1.0.0.100	1	-1267003554	Professional	2.0.10.353	2.0.10.353	07-13-2015	7/13/2015 9:18:30 PM	17:18:30	2.0.10.248	4	1	1	1	NA	NA	NA	NA	NA	NA	NA	NA	NA	NA	NA	NA	NA	NA	NA	NA	NA	NA	NA	NA	NA	NA	NA	NA	BlockProc	BlockList	NA	10	{RIGHTARROW}	NA	-100	1102	congruent	NA	NA	NA	NA	NA	NA	NA	NA	NA	NA	NA	NA	NA	NA	NA	NA	NA	NA	NA	NA	NA	NA	TrialProc	TrialList	0	6	337180	16	0	17	335447	816	1	{RIGHTARROW}	-999999	0	336763	0	{RIGHTARROW}	411	337174	NA	NA	right	rrrrr.bmp	354	0	NA	0	0	0	0	NA	0	0	0	NA	0	0	0	0	NA	0	0	2	1	10
Arrow Flanker 2014	12416	1	"<?xml version=""1.0""?>\n<Clock xmlns:dt=""urn:schemas-microsoft-com:datatypes""><Description dt:dt=""string"">E-Prime Primary Realtime Clock</Description><StartTime><Timestamp dt:dt=""int"">0</Timestamp><DateUtc dt:dt=""string"">2015-07-13T21:18:30Z</DateUtc></StartTime><FrequencyChanges><FrequencyChange><Frequency dt:dt=""r8"">2825664</Frequency><Timestamp dt:dt=""r8"">7953011866822</Timestamp><Current dt:dt=""r8"">0</Current><DateUtc dt:dt=""string"">2015-07-13T21:18:30Z</DateUtc></FrequencyChange></FrequencyChanges></Clock>\n"	Arrow Flanker 2014-12416-1	60.018	1.0.0.100	1	-1267003554	Professional	2.0.10.353	2.0.10.353	07-13-2015	7/13/2015 9:18:30 PM	17:18:30	2.0.10.248	4	1	1	1	NA	NA	NA	NA	NA	NA	NA	NA	NA	NA	NA	NA	NA	NA	NA	NA	NA	NA	NA	NA	NA	NA	NA	NA	BlockProc	BlockList	NA	11	{LEFTARROW}	NA	-100	1018	neutral	NA	NA	NA	NA	NA	NA	NA	NA	NA	NA	NA	NA	NA	NA	NA	NA	NA	NA	NA	NA	NA	NA	TrialProc	TrialList	0	7	339629	16	0	17	337713	983	1	{LEFTARROW}	-999999	16	339212	0	{LEFTARROW}	410	339622	NA	NA	left	ooloo.bmp	354	0	NA	0	0	0	0	NA	0	0	0	NA	0	0	0	0	NA	0	0	5	1	11
Arrow Flanker 2014	12416	1	"<?xml version=""1.0""?>\n<Clock xmlns:dt=""urn:schemas-microsoft-com:datatypes""><Description dt:dt=""string"">E-Prime Primary Realtime Clock</Description><StartTime><Timestamp dt:dt=""int"">0</Timestamp><DateUtc dt:dt=""string"">2015-07-13T21:18:30Z</DateUtc></StartTime><FrequencyChanges><FrequencyChange><Frequency dt:dt=""r8"">2825664</Frequency><Timestamp dt:dt=""r8"">7953011866822</Timestamp><Current dt:dt=""r8"">0</Current><DateUtc dt:dt=""string"">2015-07-13T21:18:30Z</DateUtc></FrequencyChange></FrequencyChanges></Clock>\n"	Arrow Flanker 2014-12416-1	60.018	1.0.0.100	1	-1267003554	Professional	2.0.10.353	2.0.10.353	07-13-2015	7/13/2015 9:18:30 PM	17:18:30	2.0.10.248	4	1	1	1	NA	NA	NA	NA	NA	NA	NA	NA	NA	NA	NA	NA	NA	NA	NA	NA	NA	NA	NA	NA	NA	NA	NA	NA	BlockProc	BlockList	NA	12	{LEFTARROW}	NA	-100	1562	incongruent	NA	NA	NA	NA	NA	NA	NA	NA	NA	NA	NA	NA	NA	NA	NA	NA	NA	NA	NA	NA	NA	NA	TrialProc	TrialList	1	11	342161	17	0	17	340162	1000	1	{LEFTARROW}	-999999	0	341661	0	{LEFTARROW}	489	342150	NA	NA	left	rrlrr.bmp	354	0	NA	0	0	0	0	NA	0	0	0	NA	0	0	0	0	NA	0	0	3	1	12
Arrow Flanker 2014	12416	1	"<?xml version=""1.0""?>\n<Clock xmlns:dt=""urn:schemas-microsoft-com:datatypes""><Description dt:dt=""string"">E-Prime Primary Realtime Clock</Description><StartTime><Timestamp dt:dt=""int"">0</Timestamp><DateUtc dt:dt=""string"">2015-07-13T21:18:30Z</DateUtc></StartTime><FrequencyChanges><FrequencyChange><Frequency dt:dt=""r8"">2825664</Frequency><Timestamp dt:dt=""r8"">7953011866822</Timestamp><Current dt:dt=""r8"">0</Current><DateUtc dt:dt=""string"">2015-07-13T21:18:30Z</DateUtc></FrequencyChange></FrequencyChanges></Clock>\n"	Arrow Flanker 2014-12416-1	60.018	1.0.0.100	1	-1267003554	Professional	2.0.10.353	2.0.10.353	07-13-2015	7/13/2015 9:18:30 PM	17:18:30	2.0.10.248	4	1	1	1	NA	NA	NA	NA	NA	NA	NA	NA	NA	NA	NA	NA	NA	NA	NA	NA	NA	NA	NA	NA	NA	NA	NA	NA	BlockProc	BlockList	NA	13	{LEFTARROW}	NA	-100	1832	neutral	NA	NA	NA	NA	NA	NA	NA	NA	NA	NA	NA	NA	NA	NA	NA	NA	NA	NA	NA	NA	NA	NA	TrialProc	TrialList	0	13	345027	17	0	16	342694	1433	1	{LEFTARROW}	-999999	0	344627	0	{LEFTARROW}	386	345013	NA	NA	left	ooloo.bmp	354	0	NA	0	0	0	0	NA	0	0	0	NA	0	0	0	0	NA	0	0	5	1	13
Arrow Flanker 2014	12416	1	"<?xml version=""1.0""?>\n<Clock xmlns:dt=""urn:schemas-microsoft-com:datatypes""><Description dt:dt=""string"">E-Prime Primary Realtime Clock</Description><StartTime><Timestamp dt:dt=""int"">0</Timestamp><DateUtc dt:dt=""string"">2015-07-13T21:18:30Z</DateUtc></StartTime><FrequencyChanges><FrequencyChange><Frequency dt:dt=""r8"">2825664</Frequency><Timestamp dt:dt=""r8"">7953011866822</Timestamp><Current dt:dt=""r8"">0</Current><DateUtc dt:dt=""string"">2015-07-13T21:18:30Z</DateUtc></FrequencyChange></FrequencyChanges></Clock>\n"	Arrow Flanker 2014-12416-1	60.018	1.0.0.100	1	-1267003554	Professional	2.0.10.353	2.0.10.353	07-13-2015	7/13/2015 9:18:30 PM	17:18:30	2.0.10.248	4	1	1	1	NA	NA	NA	NA	NA	NA	NA	NA	NA	NA	NA	NA	NA	NA	NA	NA	NA	NA	NA	NA	NA	NA	NA	NA	BlockProc	BlockList	NA	14	{RIGHTARROW}	NA	-100	2550	neutral	NA	NA	NA	NA	NA	NA	NA	NA	NA	NA	NA	NA	NA	NA	NA	NA	NA	NA	NA	NA	NA	NA	TrialProc	TrialList	0	20	347993	16	0	16	345560	1466	1	{RIGHTARROW}	-999999	0	347526	0	{RIGHTARROW}	447	347973	NA	NA	right	ooroo.bmp	354	0	NA	0	0	0	0	NA	0	0	0	NA	0	0	0	0	NA	0	0	6	1	14
Arrow Flanker 2014	12416	1	"<?xml version=""1.0""?>\n<Clock xmlns:dt=""urn:schemas-microsoft-com:datatypes""><Description dt:dt=""string"">E-Prime Primary Realtime Clock</Description><StartTime><Timestamp dt:dt=""int"">0</Timestamp><DateUtc dt:dt=""string"">2015-07-13T21:18:30Z</DateUtc></StartTime><FrequencyChanges><FrequencyChange><Frequency dt:dt=""r8"">2825664</Frequency><Timestamp dt:dt=""r8"">7953011866822</Timestamp><Current dt:dt=""r8"">0</Current><DateUtc dt:dt=""string"">2015-07-13T21:18:30Z</DateUtc></FrequencyChange></FrequencyChanges></Clock>\n"	Arrow Flanker 2014-12416-1	60.018	1.0.0.100	1	-1267003554	Professional	2.0.10.353	2.0.10.353	07-13-2015	7/13/2015 9:18:30 PM	17:18:30	2.0.10.248	4	1	1	1	NA	NA	NA	NA	NA	NA	NA	NA	NA	NA	NA	NA	NA	NA	NA	NA	NA	NA	NA	NA	NA	NA	NA	NA	BlockProc	BlockList	NA	15	{RIGHTARROW}	NA	-100	1576	incongruent	NA	NA	NA	NA	NA	NA	NA	NA	NA	NA	NA	NA	NA	NA	NA	NA	NA	NA	NA	NA	NA	NA	TrialProc	TrialList	0	13	351042	17	0	17	348526	1366	1	{RIGHTARROW}	-999999	0	350392	0	{RIGHTARROW}	637	351029	NA	NA	right	llrll.bmp	354	0	NA	0	0	0	0	NA	0	0	0	NA	0	0	0	0	NA	0	0	4	1	15
Arrow Flanker 2014	12416	1	"<?xml version=""1.0""?>\n<Clock xmlns:dt=""urn:schemas-microsoft-com:datatypes""><Description dt:dt=""string"">E-Prime Primary Realtime Clock</Description><StartTime><Timestamp dt:dt=""int"">0</Timestamp><DateUtc dt:dt=""string"">2015-07-13T21:18:30Z</DateUtc></StartTime><FrequencyChanges><FrequencyChange><Frequency dt:dt=""r8"">2825664</Frequency><Timestamp dt:dt=""r8"">7953011866822</Timestamp><Current dt:dt=""r8"">0</Current><DateUtc dt:dt=""string"">2015-07-13T21:18:30Z</DateUtc></FrequencyChange></FrequencyChanges></Clock>\n"	Arrow Flanker 2014-12416-1	60.018	1.0.0.100	1	-1267003554	Professional	2.0.10.353	2.0.10.353	07-13-2015	7/13/2015 9:18:30 PM	17:18:30	2.0.10.248	4	1	1	1	NA	NA	NA	NA	NA	NA	NA	NA	NA	NA	NA	NA	NA	NA	NA	NA	NA	NA	NA	NA	NA	NA	NA	NA	BlockProc	BlockList	NA	16	{RIGHTARROW}	NA	-100	797	neutral	NA	NA	NA	NA	NA	NA	NA	NA	NA	NA	NA	NA	NA	NA	NA	NA	NA	NA	NA	NA	NA	NA	TrialProc	TrialList	0	16	353125	16	0	16	351575	583	1	{RIGHTARROW}	-999999	0	352658	0	{RIGHTARROW}	451	353109	NA	NA	right	ooroo.bmp	354	0	NA	0	0	0	0	NA	0	0	0	NA	0	0	0	0	NA	0	0	6	1	16
Arrow Flanker 2014	12416	1	"<?xml version=""1.0""?>\n<Clock xmlns:dt=""urn:schemas-microsoft-com:datatypes""><Description dt:dt=""string"">E-Prime Primary Realtime Clock</Description><StartTime><Timestamp dt:dt=""int"">0</Timestamp><DateUtc dt:dt=""string"">2015-07-13T21:18:30Z</DateUtc></StartTime><FrequencyChanges><FrequencyChange><Frequency dt:dt=""r8"">2825664</Frequency><Timestamp dt:dt=""r8"">7953011866822</Timestamp><Current dt:dt=""r8"">0</Current><DateUtc dt:dt=""string"">2015-07-13T21:18:30Z</DateUtc></FrequencyChange></FrequencyChanges></Clock>\n"	Arrow Flanker 2014-12416-1	60.018	1.0.0.100	1	-1267003554	Professional	2.0.10.353	2.0.10.353	07-13-2015	7/13/2015 9:18:30 PM	17:18:30	2.0.10.248	4	1	1	1	NA	NA	NA	NA	NA	NA	NA	NA	NA	NA	NA	NA	NA	NA	NA	NA	NA	NA	NA	NA	NA	NA	NA	NA	BlockProc	BlockList	NA	17	{RIGHTARROW}	NA	-100	1470	neutral	NA	NA	NA	NA	NA	NA	NA	NA	NA	NA	NA	NA	NA	NA	NA	NA	NA	NA	NA	NA	NA	NA	TrialProc	TrialList	1	10	355407	17	0	17	353658	766	1	{RIGHTARROW}	-999999	0	354924	0	{RIGHTARROW}	473	355397	NA	NA	right	ooroo.bmp	354	0	NA	0	0	0	0	NA	0	0	0	NA	0	0	0	0	NA	0	0	6	1	17
Arrow Flanker 2014	12416	1	"<?xml version=""1.0""?>\n<Clock xmlns:dt=""urn:schemas-microsoft-com:datatypes""><Description dt:dt=""string"">E-Prime Primary Realtime Clock</Description><StartTime><Timestamp dt:dt=""int"">0</Timestamp><DateUtc dt:dt=""string"">2015-07-13T21:18:30Z</DateUtc></StartTime><FrequencyChanges><FrequencyChange><Frequency dt:dt=""r8"">2825664</Frequency><Timestamp dt:dt=""r8"">7953011866822</Timestamp><Current dt:dt=""r8"">0</Current><DateUtc dt:dt=""string"">2015-07-13T21:18:30Z</DateUtc></FrequencyChange></FrequencyChanges></Clock>\n"	Arrow Flanker 2014-12416-1	60.018	1.0.0.100	1	-1267003554	Professional	2.0.10.353	2.0.10.353	07-13-2015	7/13/2015 9:18:30 PM	17:18:30	2.0.10.248	4	1	1	1	NA	NA	NA	NA	NA	NA	NA	NA	NA	NA	NA	NA	NA	NA	NA	NA	NA	NA	NA	NA	NA	NA	NA	NA	BlockProc	BlockList	NA	18	{RIGHTARROW}	NA	-100	2587	congruent	NA	NA	NA	NA	NA	NA	NA	NA	NA	NA	NA	NA	NA	NA	NA	NA	NA	NA	NA	NA	NA	NA	TrialProc	TrialList	0	15	358340	16	0	16	355940	1400	1	{RIGHTARROW}	-999999	0	357840	0	{RIGHTARROW}	485	358325	NA	NA	right	rrrrr.bmp	354	0	NA	0	0	0	0	NA	0	0	0	NA	0	0	0	0	NA	0	0	2	1	18
Arrow Flanker 2014	12416	1	"<?xml version=""1.0""?>\n<Clock xmlns:dt=""urn:schemas-microsoft-com:datatypes""><Description dt:dt=""string"">E-Prime Primary Realtime Clock</Description><StartTime><Timestamp dt:dt=""int"">0</Timestamp><DateUtc dt:dt=""string"">2015-07-13T21:18:30Z</DateUtc></StartTime><FrequencyChanges><FrequencyChange><Frequency dt:dt=""r8"">2825664</Frequency><Timestamp dt:dt=""r8"">7953011866822</Timestamp><Current dt:dt=""r8"">0</Current><DateUtc dt:dt=""string"">2015-07-13T21:18:30Z</DateUtc></FrequencyChange></FrequencyChanges></Clock>\n"	Arrow Flanker 2014-12416-1	60.018	1.0.0.100	1	-1267003554	Professional	2.0.10.353	2.0.10.353	07-13-2015	7/13/2015 9:18:30 PM	17:18:30	2.0.10.248	4	1	1	1	NA	NA	NA	NA	NA	NA	NA	NA	NA	NA	NA	NA	NA	NA	NA	NA	NA	NA	NA	NA	NA	NA	NA	NA	BlockProc	BlockList	NA	19	{RIGHTARROW}	NA	-100	1325	incongruent	NA	NA	NA	NA	NA	NA	NA	NA	NA	NA	NA	NA	NA	NA	NA	NA	NA	NA	NA	NA	NA	NA	TrialProc	TrialList	0	12	361089	17	0	17	358873	1333	1	{RIGHTARROW}	-999999	0	360706	0	{RIGHTARROW}	370	361076	NA	NA	right	llrll.bmp	354	0	NA	0	0	0	0	NA	0	0	0	NA	0	0	0	0	NA	0	0	4	1	19
Arrow Flanker 2014	12416	1	"<?xml version=""1.0""?>\n<Clock xmlns:dt=""urn:schemas-microsoft-com:datatypes""><Description dt:dt=""string"">E-Prime Primary Realtime Clock</Description><StartTime><Timestamp dt:dt=""int"">0</Timestamp><DateUtc dt:dt=""string"">2015-07-13T21:18:30Z</DateUtc></StartTime><FrequencyChanges><FrequencyChange><Frequency dt:dt=""r8"">2825664</Frequency><Timestamp dt:dt=""r8"">7953011866822</Timestamp><Current dt:dt=""r8"">0</Current><DateUtc dt:dt=""string"">2015-07-13T21:18:30Z</DateUtc></FrequencyChange></FrequencyChanges></Clock>\n"	Arrow Flanker 2014-12416-1	60.018	1.0.0.100	1	-1267003554	Professional	2.0.10.353	2.0.10.353	07-13-2015	7/13/2015 9:18:30 PM	17:18:30	2.0.10.248	4	1	1	1	NA	NA	NA	NA	NA	NA	NA	NA	NA	NA	NA	NA	NA	NA	NA	NA	NA	NA	NA	NA	NA	NA	NA	NA	BlockProc	BlockList	NA	20	{LEFTARROW}	NA	-100	1622	incongruent	NA	NA	NA	NA	NA	NA	NA	NA	NA	NA	NA	NA	NA	NA	NA	NA	NA	NA	NA	NA	NA	NA	TrialProc	TrialList	1	9	363438	17	0	16	361622	850	0	{LEFTARROW}	-999999	0	362972	0	{RIGHTARROW}	456	363428	NA	NA	left	rrlrr.bmp	354	0	NA	0	0	0	0	NA	0	0	0	NA	0	0	0	0	NA	0	0	3	1	20
Arrow Flanker 2014	12416	1	"<?xml version=""1.0""?>\n<Clock xmlns:dt=""urn:schemas-microsoft-com:datatypes""><Description dt:dt=""string"">E-Prime Primary Realtime Clock</Description><StartTime><Timestamp dt:dt=""int"">0</Timestamp><DateUtc dt:dt=""string"">2015-07-13T21:18:30Z</DateUtc></StartTime><FrequencyChanges><FrequencyChange><Frequency dt:dt=""r8"">2825664</Frequency><Timestamp dt:dt=""r8"">7953011866822</Timestamp><Current dt:dt=""r8"">0</Current><DateUtc dt:dt=""string"">2015-07-13T21:18:30Z</DateUtc></FrequencyChange></FrequencyChanges></Clock>\n"	Arrow Flanker 2014-12416-1	60.018	1.0.0.100	1	-1267003554	Professional	2.0.10.353	2.0.10.353	07-13-2015	7/13/2015 9:18:30 PM	17:18:30	2.0.10.248	4	1	1	1	NA	NA	NA	NA	NA	NA	NA	NA	NA	NA	NA	NA	NA	NA	NA	NA	NA	NA	NA	NA	NA	NA	NA	NA	BlockProc	BlockList	NA	21	{RIGHTARROW}	NA	-100	1471	congruent	NA	NA	NA	NA	NA	NA	NA	NA	NA	NA	NA	NA	NA	NA	NA	NA	NA	NA	NA	NA	NA	NA	TrialProc	TrialList	0	15	365971	16	0	16	363971	1050	1	{RIGHTARROW}	-999999	0	365521	0	{RIGHTARROW}	435	365956	NA	NA	right	rrrrr.bmp	354	0	NA	0	0	0	0	NA	0	0	0	NA	0	0	0	0	NA	0	0	2	1	21
Arrow Flanker 2014	12416	1	"<?xml version=""1.0""?>\n<Clock xmlns:dt=""urn:schemas-microsoft-com:datatypes""><Description dt:dt=""string"">E-Prime Primary Realtime Clock</Description><StartTime><Timestamp dt:dt=""int"">0</Timestamp><DateUtc dt:dt=""string"">2015-07-13T21:18:30Z</DateUtc></StartTime><FrequencyChanges><FrequencyChange><Frequency dt:dt=""r8"">2825664</Frequency><Timestamp dt:dt=""r8"">7953011866822</Timestamp><Current dt:dt=""r8"">0</Current><DateUtc dt:dt=""string"">2015-07-13T21:18:30Z</DateUtc></FrequencyChange></FrequencyChanges></Clock>\n"	Arrow Flanker 2014-12416-1	60.018	1.0.0.100	1	-1267003554	Professional	2.0.10.353	2.0.10.353	07-13-2015	7/13/2015 9:18:30 PM	17:18:30	2.0.10.248	4	1	1	1	NA	NA	NA	NA	NA	NA	NA	NA	NA	NA	NA	NA	NA	NA	NA	NA	NA	NA	NA	NA	NA	NA	NA	NA	BlockProc	BlockList	NA	22	{LEFTARROW}	NA	-100	1380	neutral	NA	NA	NA	NA	NA	NA	NA	NA	NA	NA	NA	NA	NA	NA	NA	NA	NA	NA	NA	NA	1	NA	TrialProc	TrialList	0	7	368587	16	0	17	366504	1183	1	{LEFTARROW}	-999999	0	368187	0	{LEFTARROW}	393	368580	NA	NA	left	ooloo.bmp	354	0	NA	-999999	17	369120	0	1	5668	374788	0	NA	0	0	0	0	NA	0	0	5	1	22
Arrow Flanker 2014	12416	1	"<?xml version=""1.0""?>\n<Clock xmlns:dt=""urn:schemas-microsoft-com:datatypes""><Description dt:dt=""string"">E-Prime Primary Realtime Clock</Description><StartTime><Timestamp dt:dt=""int"">0</Timestamp><DateUtc dt:dt=""string"">2015-07-13T21:18:30Z</DateUtc></StartTime><FrequencyChanges><FrequencyChange><Frequency dt:dt=""r8"">2825664</Frequency><Timestamp dt:dt=""r8"">7953011866822</Timestamp><Current dt:dt=""r8"">0</Current><DateUtc dt:dt=""string"">2015-07-13T21:18:30Z</DateUtc></FrequencyChange></FrequencyChanges></Clock>\n"	Arrow Flanker 2014-12416-1	60.018	1.0.0.100	1	-1267003554	Professional	2.0.10.353	2.0.10.353	07-13-2015	7/13/2015 9:18:30 PM	17:18:30	2.0.10.248	4	1	1	1	NA	NA	NA	NA	NA	NA	NA	NA	NA	NA	NA	NA	NA	NA	NA	NA	NA	NA	NA	NA	NA	NA	NA	NA	BlockProc	BlockList	NA	23	{RIGHTARROW}	NA	-100	1920	congruent	NA	NA	NA	NA	NA	NA	NA	NA	NA	NA	NA	NA	NA	NA	NA	NA	NA	NA	NA	NA	NA	NA	TrialProc	TrialList	1	11	378750	17	0	6	376601	1050	1	{RIGHTARROW}	-999999	16	378167	0	{RIGHTARROW}	572	378739	NA	NA	right	rrrrr.bmp	354	0	NA	0	0	0	0	NA	0	0	0	NA	0	0	0	0	NA	0	0	2	1	23
Arrow Flanker 2014	12416	1	"<?xml version=""1.0""?>\n<Clock xmlns:dt=""urn:schemas-microsoft-com:datatypes""><Description dt:dt=""string"">E-Prime Primary Realtime Clock</Description><StartTime><Timestamp dt:dt=""int"">0</Timestamp><DateUtc dt:dt=""string"">2015-07-13T21:18:30Z</DateUtc></StartTime><FrequencyChanges><FrequencyChange><Frequency dt:dt=""r8"">2825664</Frequency><Timestamp dt:dt=""r8"">7953011866822</Timestamp><Current dt:dt=""r8"">0</Current><DateUtc dt:dt=""string"">2015-07-13T21:18:30Z</DateUtc></FrequencyChange></FrequencyChanges></Clock>\n"	Arrow Flanker 2014-12416-1	60.018	1.0.0.100	1	-1267003554	Professional	2.0.10.353	2.0.10.353	07-13-2015	7/13/2015 9:18:30 PM	17:18:30	2.0.10.248	4	1	1	1	NA	NA	NA	NA	NA	NA	NA	NA	NA	NA	NA	NA	NA	NA	NA	NA	NA	NA	NA	NA	NA	NA	NA	NA	BlockProc	BlockList	NA	24	{LEFTARROW}	NA	-100	2035	congruent	NA	NA	NA	NA	NA	NA	NA	NA	NA	NA	NA	NA	NA	NA	NA	NA	NA	NA	NA	NA	NA	NA	TrialProc	TrialList	0	10	381133	17	0	16	379283	867	1	{LEFTARROW}	-999999	0	380650	0	{LEFTARROW}	473	381123	NA	NA	left	lllll.bmp	354	0	NA	0	0	0	0	NA	0	0	0	NA	0	0	0	0	NA	0	0	1	1	24
Arrow Flanker 2014	12416	1	"<?xml version=""1.0""?>\n<Clock xmlns:dt=""urn:schemas-microsoft-com:datatypes""><Description dt:dt=""string"">E-Prime Primary Realtime Clock</Description><StartTime><Timestamp dt:dt=""int"">0</Timestamp><DateUtc dt:dt=""string"">2015-07-13T21:18:30Z</DateUtc></StartTime><FrequencyChanges><FrequencyChange><Frequency dt:dt=""r8"">2825664</Frequency><Timestamp dt:dt=""r8"">7953011866822</Timestamp><Current dt:dt=""r8"">0</Current><DateUtc dt:dt=""string"">2015-07-13T21:18:30Z</DateUtc></FrequencyChange></FrequencyChanges></Clock>\n"	Arrow Flanker 2014-12416-1	60.018	1.0.0.100	1	-1267003554	Professional	2.0.10.353	2.0.10.353	07-13-2015	7/13/2015 9:18:30 PM	17:18:30	2.0.10.248	4	1	1	1	NA	NA	NA	NA	NA	NA	NA	NA	NA	NA	NA	NA	NA	NA	NA	NA	NA	NA	NA	NA	NA	NA	NA	NA	BlockProc	BlockList	NA	25	{RIGHTARROW}	NA	-100	2035	incongruent	NA	NA	NA	NA	NA	NA	NA	NA	NA	NA	NA	NA	NA	NA	NA	NA	NA	NA	NA	NA	NA	NA	TrialProc	TrialList	0	11	383582	17	0	16	381666	866	1	{RIGHTARROW}	-999999	0	383032	0	{RIGHTARROW}	539	383571	NA	NA	right	llrll.bmp	354	0	NA	0	0	0	0	NA	0	0	0	NA	0	0	0	0	NA	0	0	4	1	25
Arrow Flanker 2014	12416	1	"<?xml version=""1.0""?>\n<Clock xmlns:dt=""urn:schemas-microsoft-com:datatypes""><Description dt:dt=""string"">E-Prime Primary Realtime Clock</Description><StartTime><Timestamp dt:dt=""int"">0</Timestamp><DateUtc dt:dt=""string"">2015-07-13T21:18:30Z</DateUtc></StartTime><FrequencyChanges><FrequencyChange><Frequency dt:dt=""r8"">2825664</Frequency><Timestamp dt:dt=""r8"">7953011866822</Timestamp><Current dt:dt=""r8"">0</Current><DateUtc dt:dt=""string"">2015-07-13T21:18:30Z</DateUtc></FrequencyChange></FrequencyChanges></Clock>\n"	Arrow Flanker 2014-12416-1	60.018	1.0.0.100	1	-1267003554	Professional	2.0.10.353	2.0.10.353	07-13-2015	7/13/2015 9:18:30 PM	17:18:30	2.0.10.248	4	1	1	1	NA	NA	NA	NA	NA	NA	NA	NA	NA	NA	NA	NA	NA	NA	NA	NA	NA	NA	NA	NA	NA	NA	NA	NA	BlockProc	BlockList	NA	26	{LEFTARROW}	NA	-100	1822	congruent	NA	NA	NA	NA	NA	NA	NA	NA	NA	NA	NA	NA	NA	NA	NA	NA	NA	NA	NA	NA	NA	NA	TrialProc	TrialList	0	6	385865	16	0	16	384115	0	1	{LEFTARROW}	-999999	0	385448	0	{LEFTARROW}	411	385859	NA	NA	left	lllll.bmp	354	0	NA	0	0	0	0	NA	0	0	0	NA	0	0	0	0	NA	0	0	1	1	26
Arrow Flanker 2014	12416	1	"<?xml version=""1.0""?>\n<Clock xmlns:dt=""urn:schemas-microsoft-com:datatypes""><Description dt:dt=""string"">E-Prime Primary Realtime Clock</Description><StartTime><Timestamp dt:dt=""int"">0</Timestamp><DateUtc dt:dt=""string"">2015-07-13T21:18:30Z</DateUtc></StartTime><FrequencyChanges><FrequencyChange><Frequency dt:dt=""r8"">2825664</Frequency><Timestamp dt:dt=""r8"">7953011866822</Timestamp><Current dt:dt=""r8"">0</Current><DateUtc dt:dt=""string"">2015-07-13T21:18:30Z</DateUtc></FrequencyChange></FrequencyChanges></Clock>\n"	Arrow Flanker 2014-12416-1	60.018	1.0.0.100	1	-1267003554	Professional	2.0.10.353	2.0.10.353	07-13-2015	7/13/2015 9:18:30 PM	17:18:30	2.0.10.248	4	1	1	1	NA	NA	NA	NA	NA	NA	NA	NA	NA	NA	NA	NA	NA	NA	NA	NA	NA	NA	NA	NA	NA	NA	NA	NA	BlockProc	BlockList	NA	27	{LEFTARROW}	NA	-100	2111	neutral	NA	NA	NA	NA	NA	NA	NA	NA	NA	NA	NA	NA	NA	NA	NA	NA	NA	NA	NA	NA	NA	NA	TrialProc	TrialList	1	16	388947	17	0	17	386398	0	1	{LEFTARROW}	-999999	0	388497	0	{LEFTARROW}	434	388931	NA	NA	left	ooloo.bmp	354	0	NA	0	0	0	0	NA	0	0	0	NA	0	0	0	0	NA	0	0	5	1	27
Arrow Flanker 2014	12416	1	"<?xml version=""1.0""?>\n<Clock xmlns:dt=""urn:schemas-microsoft-com:datatypes""><Description dt:dt=""string"">E-Prime Primary Realtime Clock</Description><StartTime><Timestamp dt:dt=""int"">0</Timestamp><DateUtc dt:dt=""string"">2015-07-13T21:18:30Z</DateUtc></StartTime><FrequencyChanges><FrequencyChange><Frequency dt:dt=""r8"">2825664</Frequency><Timestamp dt:dt=""r8"">7953011866822</Timestamp><Current dt:dt=""r8"">0</Current><DateUtc dt:dt=""string"">2015-07-13T21:18:30Z</DateUtc></FrequencyChange></FrequencyChanges></Clock>\n"	Arrow Flanker 2014-12416-1	60.018	1.0.0.100	1	-1267003554	Professional	2.0.10.353	2.0.10.353	07-13-2015	7/13/2015 9:18:30 PM	17:18:30	2.0.10.248	4	1	1	1	NA	NA	NA	NA	NA	NA	NA	NA	NA	NA	NA	NA	NA	NA	NA	NA	NA	NA	NA	NA	NA	NA	NA	NA	BlockProc	BlockList	NA	28	{RIGHTARROW}	NA	-100	1616	incongruent	NA	NA	NA	NA	NA	NA	NA	NA	NA	NA	NA	NA	NA	NA	NA	NA	NA	NA	NA	NA	NA	NA	TrialProc	TrialList	0	9	391980	16	0	16	389480	0	1	{RIGHTARROW}	-999999	0	391413	0	{RIGHTARROW}	557	391970	NA	NA	right	llrll.bmp	354	0	NA	0	0	0	0	NA	0	0	0	NA	0	0	0	0	NA	0	0	4	1	28
Arrow Flanker 2014	12416	1	"<?xml version=""1.0""?>\n<Clock xmlns:dt=""urn:schemas-microsoft-com:datatypes""><Description dt:dt=""string"">E-Prime Primary Realtime Clock</Description><StartTime><Timestamp dt:dt=""int"">0</Timestamp><DateUtc dt:dt=""string"">2015-07-13T21:18:30Z</DateUtc></StartTime><FrequencyChanges><FrequencyChange><Frequency dt:dt=""r8"">2825664</Frequency><Timestamp dt:dt=""r8"">7953011866822</Timestamp><Current dt:dt=""r8"">0</Current><DateUtc dt:dt=""string"">2015-07-13T21:18:30Z</DateUtc></FrequencyChange></FrequencyChanges></Clock>\n"	Arrow Flanker 2014-12416-1	60.018	1.0.0.100	1	-1267003554	Professional	2.0.10.353	2.0.10.353	07-13-2015	7/13/2015 9:18:30 PM	17:18:30	2.0.10.248	4	1	1	1	NA	NA	NA	NA	NA	NA	NA	NA	NA	NA	NA	NA	NA	NA	NA	NA	NA	NA	NA	NA	NA	NA	NA	NA	BlockProc	BlockList	NA	29	{LEFTARROW}	NA	-100	1317	neutral	NA	NA	NA	NA	NA	NA	NA	NA	NA	NA	NA	NA	NA	NA	NA	NA	NA	NA	NA	NA	NA	NA	TrialProc	TrialList	1	12	394062	17	0	17	392513	0	1	{LEFTARROW}	-999999	0	393579	0	{LEFTARROW}	471	394050	NA	NA	left	ooloo.bmp	354	0	NA	0	0	0	0	NA	0	0	0	NA	0	0	0	0	NA	0	0	5	1	29
Arrow Flanker 2014	12416	1	"<?xml version=""1.0""?>\n<Clock xmlns:dt=""urn:schemas-microsoft-com:datatypes""><Description dt:dt=""string"">E-Prime Primary Realtime Clock</Description><StartTime><Timestamp dt:dt=""int"">0</Timestamp><DateUtc dt:dt=""string"">2015-07-13T21:18:30Z</DateUtc></StartTime><FrequencyChanges><FrequencyChange><Frequency dt:dt=""r8"">2825664</Frequency><Timestamp dt:dt=""r8"">7953011866822</Timestamp><Current dt:dt=""r8"">0</Current><DateUtc dt:dt=""string"">2015-07-13T21:18:30Z</DateUtc></FrequencyChange></FrequencyChanges></Clock>\n"	Arrow Flanker 2014-12416-1	60.018	1.0.0.100	1	-1267003554	Professional	2.0.10.353	2.0.10.353	07-13-2015	7/13/2015 9:18:30 PM	17:18:30	2.0.10.248	4	1	1	1	NA	NA	NA	NA	NA	NA	NA	NA	NA	NA	NA	NA	NA	NA	NA	NA	NA	NA	NA	NA	NA	NA	NA	NA	BlockProc	BlockList	NA	30	{RIGHTARROW}	NA	-100	786	neutral	NA	NA	NA	NA	NA	NA	NA	NA	NA	NA	NA	NA	NA	NA	NA	NA	NA	NA	NA	NA	NA	NA	TrialProc	TrialList	0	7	395945	17	0	17	394596	0	1	{RIGHTARROW}	-999999	0	395562	0	{RIGHTARROW}	376	395938	NA	NA	right	ooroo.bmp	354	0	NA	0	0	0	0	NA	0	0	0	NA	0	0	0	0	NA	0	0	6	1	30
Arrow Flanker 2014	12416	1	"<?xml version=""1.0""?>\n<Clock xmlns:dt=""urn:schemas-microsoft-com:datatypes""><Description dt:dt=""string"">E-Prime Primary Realtime Clock</Description><StartTime><Timestamp dt:dt=""int"">0</Timestamp><DateUtc dt:dt=""string"">2015-07-13T21:18:30Z</DateUtc></StartTime><FrequencyChanges><FrequencyChange><Frequency dt:dt=""r8"">2825664</Frequency><Timestamp dt:dt=""r8"">7953011866822</Timestamp><Current dt:dt=""r8"">0</Current><DateUtc dt:dt=""string"">2015-07-13T21:18:30Z</DateUtc></FrequencyChange></FrequencyChanges></Clock>\n"	Arrow Flanker 2014-12416-1	60.018	1.0.0.100	1	-1267003554	Professional	2.0.10.353	2.0.10.353	07-13-2015	7/13/2015 9:18:30 PM	17:18:30	2.0.10.248	4	1	1	1	NA	NA	NA	NA	NA	NA	NA	NA	NA	NA	NA	NA	NA	NA	NA	NA	NA	NA	NA	NA	NA	NA	NA	NA	BlockProc	BlockList	NA	31	{LEFTARROW}	NA	-100	1670	incongruent	NA	NA	NA	NA	NA	NA	NA	NA	NA	NA	NA	NA	NA	NA	NA	NA	NA	NA	NA	NA	NA	NA	TrialProc	TrialList	0	3	398661	17	0	16	396478	0	1	{LEFTARROW}	-999999	0	398178	0	{LEFTARROW}	480	398658	NA	NA	left	rrlrr.bmp	354	0	NA	0	0	0	0	NA	0	0	0	NA	0	0	0	0	NA	0	0	3	1	31
Arrow Flanker 2014	12416	1	"<?xml version=""1.0""?>\n<Clock xmlns:dt=""urn:schemas-microsoft-com:datatypes""><Description dt:dt=""string"">E-Prime Primary Realtime Clock</Description><StartTime><Timestamp dt:dt=""int"">0</Timestamp><DateUtc dt:dt=""string"">2015-07-13T21:18:30Z</DateUtc></StartTime><FrequencyChanges><FrequencyChange><Frequency dt:dt=""r8"">2825664</Frequency><Timestamp dt:dt=""r8"">7953011866822</Timestamp><Current dt:dt=""r8"">0</Current><DateUtc dt:dt=""string"">2015-07-13T21:18:30Z</DateUtc></FrequencyChange></FrequencyChanges></Clock>\n"	Arrow Flanker 2014-12416-1	60.018	1.0.0.100	1	-1267003554	Professional	2.0.10.353	2.0.10.353	07-13-2015	7/13/2015 9:18:30 PM	17:18:30	2.0.10.248	4	1	1	1	NA	NA	NA	NA	NA	NA	NA	NA	NA	NA	NA	NA	NA	NA	NA	NA	NA	NA	NA	NA	NA	NA	NA	NA	BlockProc	BlockList	NA	32	{LEFTARROW}	NA	-100	1126	congruent	NA	NA	NA	NA	NA	NA	NA	NA	NA	NA	NA	NA	NA	NA	NA	NA	NA	NA	NA	NA	NA	NA	TrialProc	TrialList	0	8	400794	16	0	16	399194	0	1	{LEFTARROW}	-999999	0	400327	0	{LEFTARROW}	459	400786	NA	NA	left	lllll.bmp	354	0	NA	0	0	0	0	NA	0	0	0	NA	0	0	0	0	NA	0	0	1	1	32
Arrow Flanker 2014	12416	1	"<?xml version=""1.0""?>\n<Clock xmlns:dt=""urn:schemas-microsoft-com:datatypes""><Description dt:dt=""string"">E-Prime Primary Realtime Clock</Description><StartTime><Timestamp dt:dt=""int"">0</Timestamp><DateUtc dt:dt=""string"">2015-07-13T21:18:30Z</DateUtc></StartTime><FrequencyChanges><FrequencyChange><Frequency dt:dt=""r8"">2825664</Frequency><Timestamp dt:dt=""r8"">7953011866822</Timestamp><Current dt:dt=""r8"">0</Current><DateUtc dt:dt=""string"">2015-07-13T21:18:30Z</DateUtc></FrequencyChange></FrequencyChanges></Clock>\n"	Arrow Flanker 2014-12416-1	60.018	1.0.0.100	1	-1267003554	Professional	2.0.10.353	2.0.10.353	07-13-2015	7/13/2015 9:18:30 PM	17:18:30	2.0.10.248	4	1	1	1	NA	NA	NA	NA	NA	NA	NA	NA	NA	NA	NA	NA	NA	NA	NA	NA	NA	NA	NA	NA	NA	NA	NA	NA	BlockProc	BlockList	NA	33	{LEFTARROW}	NA	-100	1416	neutral	NA	NA	NA	NA	NA	NA	NA	NA	NA	NA	NA	NA	NA	NA	NA	NA	NA	NA	NA	NA	NA	NA	TrialProc	TrialList	0	15	403393	17	0	17	401327	0	1	{LEFTARROW}	-999999	0	402960	0	{LEFTARROW}	418	403378	NA	NA	left	ooloo.bmp	354	0	NA	0	0	0	0	NA	0	0	0	NA	0	0	0	0	NA	0	0	5	1	33
Arrow Flanker 2014	12416	1	"<?xml version=""1.0""?>\n<Clock xmlns:dt=""urn:schemas-microsoft-com:datatypes""><Description dt:dt=""string"">E-Prime Primary Realtime Clock</Description><StartTime><Timestamp dt:dt=""int"">0</Timestamp><DateUtc dt:dt=""string"">2015-07-13T21:18:30Z</DateUtc></StartTime><FrequencyChanges><FrequencyChange><Frequency dt:dt=""r8"">2825664</Frequency><Timestamp dt:dt=""r8"">7953011866822</Timestamp><Current dt:dt=""r8"">0</Current><DateUtc dt:dt=""string"">2015-07-13T21:18:30Z</DateUtc></FrequencyChange></FrequencyChanges></Clock>\n"	Arrow Flanker 2014-12416-1	60.018	1.0.0.100	1	-1267003554	Professional	2.0.10.353	2.0.10.353	07-13-2015	7/13/2015 9:18:30 PM	17:18:30	2.0.10.248	4	1	1	1	NA	NA	NA	NA	NA	NA	NA	NA	NA	NA	NA	NA	NA	NA	NA	NA	NA	NA	NA	NA	NA	NA	NA	NA	BlockProc	BlockList	NA	34	{RIGHTARROW}	NA	-100	1723	neutral	NA	NA	NA	NA	NA	NA	NA	NA	NA	NA	NA	NA	NA	NA	NA	NA	NA	NA	NA	NA	NA	NA	TrialProc	TrialList	0	7	405609	17	0	16	403926	0	1	{RIGHTARROW}	-999999	0	405109	0	{RIGHTARROW}	493	405602	NA	NA	right	ooroo.bmp	354	0	NA	0	0	0	0	NA	0	0	0	NA	0	0	0	0	NA	0	0	6	1	34
Arrow Flanker 2014	12416	1	"<?xml version=""1.0""?>\n<Clock xmlns:dt=""urn:schemas-microsoft-com:datatypes""><Description dt:dt=""string"">E-Prime Primary Realtime Clock</Description><StartTime><Timestamp dt:dt=""int"">0</Timestamp><DateUtc dt:dt=""string"">2015-07-13T21:18:30Z</DateUtc></StartTime><FrequencyChanges><FrequencyChange><Frequency dt:dt=""r8"">2825664</Frequency><Timestamp dt:dt=""r8"">7953011866822</Timestamp><Current dt:dt=""r8"">0</Current><DateUtc dt:dt=""string"">2015-07-13T21:18:30Z</DateUtc></FrequencyChange></FrequencyChanges></Clock>\n"	Arrow Flanker 2014-12416-1	60.018	1.0.0.100	1	-1267003554	Professional	2.0.10.353	2.0.10.353	07-13-2015	7/13/2015 9:18:30 PM	17:18:30	2.0.10.248	4	1	1	1	NA	NA	NA	NA	NA	NA	NA	NA	NA	NA	NA	NA	NA	NA	NA	NA	NA	NA	NA	NA	NA	NA	NA	NA	BlockProc	BlockList	NA	35	{RIGHTARROW}	NA	-100	2066	congruent	NA	NA	NA	NA	NA	NA	NA	NA	NA	NA	NA	NA	NA	NA	NA	NA	NA	NA	NA	NA	NA	NA	TrialProc	TrialList	0	2	408308	17	0	16	406142	0	1	{RIGHTARROW}	-999999	0	407875	0	{RIGHTARROW}	430	408305	NA	NA	right	rrrrr.bmp	354	0	NA	0	0	0	0	NA	0	0	0	NA	0	0	0	0	NA	0	0	2	1	35
Arrow Flanker 2014	12416	1	"<?xml version=""1.0""?>\n<Clock xmlns:dt=""urn:schemas-microsoft-com:datatypes""><Description dt:dt=""string"">E-Prime Primary Realtime Clock</Description><StartTime><Timestamp dt:dt=""int"">0</Timestamp><DateUtc dt:dt=""string"">2015-07-13T21:18:30Z</DateUtc></StartTime><FrequencyChanges><FrequencyChange><Frequency dt:dt=""r8"">2825664</Frequency><Timestamp dt:dt=""r8"">7953011866822</Timestamp><Current dt:dt=""r8"">0</Current><DateUtc dt:dt=""string"">2015-07-13T21:18:30Z</DateUtc></FrequencyChange></FrequencyChanges></Clock>\n"	Arrow Flanker 2014-12416-1	60.018	1.0.0.100	1	-1267003554	Professional	2.0.10.353	2.0.10.353	07-13-2015	7/13/2015 9:18:30 PM	17:18:30	2.0.10.248	4	1	1	1	NA	NA	NA	NA	NA	NA	NA	NA	NA	NA	NA	NA	NA	NA	NA	NA	NA	NA	NA	NA	NA	NA	NA	NA	BlockProc	BlockList	NA	36	{RIGHTARROW}	NA	-100	2239	neutral	NA	NA	NA	NA	NA	NA	NA	NA	NA	NA	NA	NA	NA	NA	NA	NA	NA	NA	NA	NA	NA	NA	TrialProc	TrialList	0	9	410874	17	0	16	408841	0	1	{RIGHTARROW}	-999999	16	410424	0	{RIGHTARROW}	441	410865	NA	NA	right	ooroo.bmp	354	0	NA	0	0	0	0	NA	0	0	0	NA	0	0	0	0	NA	0	0	6	1	36
Arrow Flanker 2014	12416	1	"<?xml version=""1.0""?>\n<Clock xmlns:dt=""urn:schemas-microsoft-com:datatypes""><Description dt:dt=""string"">E-Prime Primary Realtime Clock</Description><StartTime><Timestamp dt:dt=""int"">0</Timestamp><DateUtc dt:dt=""string"">2015-07-13T21:18:30Z</DateUtc></StartTime><FrequencyChanges><FrequencyChange><Frequency dt:dt=""r8"">2825664</Frequency><Timestamp dt:dt=""r8"">7953011866822</Timestamp><Current dt:dt=""r8"">0</Current><DateUtc dt:dt=""string"">2015-07-13T21:18:30Z</DateUtc></FrequencyChange></FrequencyChanges></Clock>\n"	Arrow Flanker 2014-12416-1	60.018	1.0.0.100	1	-1267003554	Professional	2.0.10.353	2.0.10.353	07-13-2015	7/13/2015 9:18:30 PM	17:18:30	2.0.10.248	4	1	1	1	NA	NA	NA	NA	NA	NA	NA	NA	NA	NA	NA	NA	NA	NA	NA	NA	NA	NA	NA	NA	NA	NA	NA	NA	BlockProc	BlockList	NA	37	{RIGHTARROW}	NA	-100	2570	incongruent	NA	NA	NA	NA	NA	NA	NA	NA	NA	NA	NA	NA	NA	NA	NA	NA	NA	NA	NA	NA	2	1	TrialProc	TrialList	1	17	413906	17	0	16	411407	0	1	{RIGHTARROW}	-999999	0	413423	0	{RIGHTARROW}	466	413889	NA	NA	right	llrll.bmp	354	0	NA	-999999	17	414440	0	1	2993	417433	0	NA	-999999	22	417455	0	1	8281	425736	4	1	37
Arrow Flanker 2014	12416	1	"<?xml version=""1.0""?>\n<Clock xmlns:dt=""urn:schemas-microsoft-com:datatypes""><Description dt:dt=""string"">E-Prime Primary Realtime Clock</Description><StartTime><Timestamp dt:dt=""int"">0</Timestamp><DateUtc dt:dt=""string"">2015-07-13T21:18:30Z</DateUtc></StartTime><FrequencyChanges><FrequencyChange><Frequency dt:dt=""r8"">2825664</Frequency><Timestamp dt:dt=""r8"">7953011866822</Timestamp><Current dt:dt=""r8"">0</Current><DateUtc dt:dt=""string"">2015-07-13T21:18:30Z</DateUtc></FrequencyChange></FrequencyChanges></Clock>\n"	Arrow Flanker 2014-12416-1	60.018	1.0.0.100	1	-1267003554	Professional	2.0.10.353	2.0.10.353	07-13-2015	7/13/2015 9:18:30 PM	17:18:30	2.0.10.248	4	1	1	1	NA	NA	NA	NA	NA	NA	NA	NA	NA	NA	NA	NA	NA	NA	NA	NA	NA	NA	NA	NA	NA	NA	NA	NA	BlockProc	BlockList	NA	38	{LEFTARROW}	NA	-100	2045	incongruent	NA	NA	NA	NA	NA	NA	NA	NA	NA	NA	NA	NA	NA	NA	NA	NA	NA	NA	NA	NA	NA	NA	TrialProc	TrialList	0	15	429935	17	0	5	427653	0	1	{LEFTARROW}	-999999	-1	429218	0	{LEFTARROW}	702	429920	NA	NA	left	rrlrr.bmp	354	0	NA	0	0	0	0	NA	0	0	0	NA	0	0	0	0	NA	0	0	3	1	38
Arrow Flanker 2014	12416	1	"<?xml version=""1.0""?>\n<Clock xmlns:dt=""urn:schemas-microsoft-com:datatypes""><Description dt:dt=""string"">E-Prime Primary Realtime Clock</Description><StartTime><Timestamp dt:dt=""int"">0</Timestamp><DateUtc dt:dt=""string"">2015-07-13T21:18:30Z</DateUtc></StartTime><FrequencyChanges><FrequencyChange><Frequency dt:dt=""r8"">2825664</Frequency><Timestamp dt:dt=""r8"">7953011866822</Timestamp><Current dt:dt=""r8"">0</Current><DateUtc dt:dt=""string"">2015-07-13T21:18:30Z</DateUtc></FrequencyChange></FrequencyChanges></Clock>\n"	Arrow Flanker 2014-12416-1	60.018	1.0.0.100	1	-1267003554	Professional	2.0.10.353	2.0.10.353	07-13-2015	7/13/2015 9:18:30 PM	17:18:30	2.0.10.248	4	1	1	1	NA	NA	NA	NA	NA	NA	NA	NA	NA	NA	NA	NA	NA	NA	NA	NA	NA	NA	NA	NA	NA	NA	NA	NA	BlockProc	BlockList	NA	39	{LEFTARROW}	NA	-100	1494	incongruent	NA	NA	NA	NA	NA	NA	NA	NA	NA	NA	NA	NA	NA	NA	NA	NA	NA	NA	NA	NA	NA	NA	TrialProc	TrialList	0	3	432451	17	0	16	430468	0	1	{LEFTARROW}	-999999	0	431918	0	{LEFTARROW}	530	432448	NA	NA	left	rrlrr.bmp	354	0	NA	0	0	0	0	NA	0	0	0	NA	0	0	0	0	NA	0	0	3	1	39
Arrow Flanker 2014	12416	1	"<?xml version=""1.0""?>\n<Clock xmlns:dt=""urn:schemas-microsoft-com:datatypes""><Description dt:dt=""string"">E-Prime Primary Realtime Clock</Description><StartTime><Timestamp dt:dt=""int"">0</Timestamp><DateUtc dt:dt=""string"">2015-07-13T21:18:30Z</DateUtc></StartTime><FrequencyChanges><FrequencyChange><Frequency dt:dt=""r8"">2825664</Frequency><Timestamp dt:dt=""r8"">7953011866822</Timestamp><Current dt:dt=""r8"">0</Current><DateUtc dt:dt=""string"">2015-07-13T21:18:30Z</DateUtc></FrequencyChange></FrequencyChanges></Clock>\n"	Arrow Flanker 2014-12416-1	60.018	1.0.0.100	1	-1267003554	Professional	2.0.10.353	2.0.10.353	07-13-2015	7/13/2015 9:18:30 PM	17:18:30	2.0.10.248	4	1	1	1	NA	NA	NA	NA	NA	NA	NA	NA	NA	NA	NA	NA	NA	NA	NA	NA	NA	NA	NA	NA	NA	NA	NA	NA	BlockProc	BlockList	NA	40	{RIGHTARROW}	NA	-100	1225	neutral	NA	NA	NA	NA	NA	NA	NA	NA	NA	NA	NA	NA	NA	NA	NA	NA	NA	NA	NA	NA	NA	NA	TrialProc	TrialList	1	14	434750	17	0	16	432984	0	1	{RIGHTARROW}	-999999	0	434317	0	{RIGHTARROW}	419	434736	NA	NA	right	ooroo.bmp	354	0	NA	0	0	0	0	NA	0	0	0	NA	0	0	0	0	NA	0	0	6	1	40
Arrow Flanker 2014	12416	1	"<?xml version=""1.0""?>\n<Clock xmlns:dt=""urn:schemas-microsoft-com:datatypes""><Description dt:dt=""string"">E-Prime Primary Realtime Clock</Description><StartTime><Timestamp dt:dt=""int"">0</Timestamp><DateUtc dt:dt=""string"">2015-07-13T21:18:30Z</DateUtc></StartTime><FrequencyChanges><FrequencyChange><Frequency dt:dt=""r8"">2825664</Frequency><Timestamp dt:dt=""r8"">7953011866822</Timestamp><Current dt:dt=""r8"">0</Current><DateUtc dt:dt=""string"">2015-07-13T21:18:30Z</DateUtc></FrequencyChange></FrequencyChanges></Clock>\n"	Arrow Flanker 2014-12416-1	60.018	1.0.0.100	1	-1267003554	Professional	2.0.10.353	2.0.10.353	07-13-2015	7/13/2015 9:18:30 PM	17:18:30	2.0.10.248	4	1	1	1	NA	NA	NA	NA	NA	NA	NA	NA	NA	NA	NA	NA	NA	NA	NA	NA	NA	NA	NA	NA	NA	NA	NA	NA	BlockProc	BlockList	NA	41	{LEFTARROW}	NA	-100	1744	incongruent	NA	NA	NA	NA	NA	NA	NA	NA	NA	NA	NA	NA	NA	NA	NA	NA	NA	NA	NA	NA	NA	NA	TrialProc	TrialList	0	12	437516	17	0	16	435283	0	1	{LEFTARROW}	-999999	0	436983	0	{LEFTARROW}	521	437504	NA	NA	left	rrlrr.bmp	354	0	NA	0	0	0	0	NA	0	0	0	NA	0	0	0	0	NA	0	0	3	1	41
Arrow Flanker 2014	12416	1	"<?xml version=""1.0""?>\n<Clock xmlns:dt=""urn:schemas-microsoft-com:datatypes""><Description dt:dt=""string"">E-Prime Primary Realtime Clock</Description><StartTime><Timestamp dt:dt=""int"">0</Timestamp><DateUtc dt:dt=""string"">2015-07-13T21:18:30Z</DateUtc></StartTime><FrequencyChanges><FrequencyChange><Frequency dt:dt=""r8"">2825664</Frequency><Timestamp dt:dt=""r8"">7953011866822</Timestamp><Current dt:dt=""r8"">0</Current><DateUtc dt:dt=""string"">2015-07-13T21:18:30Z</DateUtc></FrequencyChange></FrequencyChanges></Clock>\n"	Arrow Flanker 2014-12416-1	60.018	1.0.0.100	1	-1267003554	Professional	2.0.10.353	2.0.10.353	07-13-2015	7/13/2015 9:18:30 PM	17:18:30	2.0.10.248	4	1	1	1	NA	NA	NA	NA	NA	NA	NA	NA	NA	NA	NA	NA	NA	NA	NA	NA	NA	NA	NA	NA	NA	NA	NA	NA	BlockProc	BlockList	NA	42	{RIGHTARROW}	NA	-100	1776	congruent	NA	NA	NA	NA	NA	NA	NA	NA	NA	NA	NA	NA	NA	NA	NA	NA	NA	NA	NA	NA	NA	NA	TrialProc	TrialList	1	11	440315	17	0	16	438049	0	1	{RIGHTARROW}	-999999	0	439882	0	{RIGHTARROW}	421	440303	NA	NA	right	rrrrr.bmp	354	0	NA	0	0	0	0	NA	0	0	0	NA	0	0	0	0	NA	0	0	2	1	42
Arrow Flanker 2014	12416	1	"<?xml version=""1.0""?>\n<Clock xmlns:dt=""urn:schemas-microsoft-com:datatypes""><Description dt:dt=""string"">E-Prime Primary Realtime Clock</Description><StartTime><Timestamp dt:dt=""int"">0</Timestamp><DateUtc dt:dt=""string"">2015-07-13T21:18:30Z</DateUtc></StartTime><FrequencyChanges><FrequencyChange><Frequency dt:dt=""r8"">2825664</Frequency><Timestamp dt:dt=""r8"">7953011866822</Timestamp><Current dt:dt=""r8"">0</Current><DateUtc dt:dt=""string"">2015-07-13T21:18:30Z</DateUtc></FrequencyChange></FrequencyChanges></Clock>\n"	Arrow Flanker 2014-12416-1	60.018	1.0.0.100	1	-1267003554	Professional	2.0.10.353	2.0.10.353	07-13-2015	7/13/2015 9:18:30 PM	17:18:30	2.0.10.248	4	1	1	1	NA	NA	NA	NA	NA	NA	NA	NA	NA	NA	NA	NA	NA	NA	NA	NA	NA	NA	NA	NA	NA	NA	NA	NA	BlockProc	BlockList	NA	43	{LEFTARROW}	NA	-100	1734	incongruent	NA	NA	NA	NA	NA	NA	NA	NA	NA	NA	NA	NA	NA	NA	NA	NA	NA	NA	NA	NA	NA	NA	TrialProc	TrialList	0	13	443148	16	0	16	440848	0	1	{LEFTARROW}	-999999	0	442648	0	{LEFTARROW}	487	443135	NA	NA	left	rrlrr.bmp	354	0	NA	0	0	0	0	NA	0	0	0	NA	0	0	0	0	NA	0	0	3	1	43
Arrow Flanker 2014	12416	1	"<?xml version=""1.0""?>\n<Clock xmlns:dt=""urn:schemas-microsoft-com:datatypes""><Description dt:dt=""string"">E-Prime Primary Realtime Clock</Description><StartTime><Timestamp dt:dt=""int"">0</Timestamp><DateUtc dt:dt=""string"">2015-07-13T21:18:30Z</DateUtc></StartTime><FrequencyChanges><FrequencyChange><Frequency dt:dt=""r8"">2825664</Frequency><Timestamp dt:dt=""r8"">7953011866822</Timestamp><Current dt:dt=""r8"">0</Current><DateUtc dt:dt=""string"">2015-07-13T21:18:30Z</DateUtc></FrequencyChange></FrequencyChanges></Clock>\n"	Arrow Flanker 2014-12416-1	60.018	1.0.0.100	1	-1267003554	Professional	2.0.10.353	2.0.10.353	07-13-2015	7/13/2015 9:18:30 PM	17:18:30	2.0.10.248	4	1	1	1	NA	NA	NA	NA	NA	NA	NA	NA	NA	NA	NA	NA	NA	NA	NA	NA	NA	NA	NA	NA	NA	NA	NA	NA	BlockProc	BlockList	NA	44	{RIGHTARROW}	NA	-100	1171	incongruent	NA	NA	NA	NA	NA	NA	NA	NA	NA	NA	NA	NA	NA	NA	NA	NA	NA	NA	NA	NA	NA	NA	TrialProc	TrialList	0	8	445447	17	0	17	443681	0	1	{RIGHTARROW}	-999999	0	444914	0	{RIGHTARROW}	525	445439	NA	NA	right	llrll.bmp	354	0	NA	0	0	0	0	NA	0	0	0	NA	0	0	0	0	NA	0	0	4	1	44
Arrow Flanker 2014	12416	1	"<?xml version=""1.0""?>\n<Clock xmlns:dt=""urn:schemas-microsoft-com:datatypes""><Description dt:dt=""string"">E-Prime Primary Realtime Clock</Description><StartTime><Timestamp dt:dt=""int"">0</Timestamp><DateUtc dt:dt=""string"">2015-07-13T21:18:30Z</DateUtc></StartTime><FrequencyChanges><FrequencyChange><Frequency dt:dt=""r8"">2825664</Frequency><Timestamp dt:dt=""r8"">7953011866822</Timestamp><Current dt:dt=""r8"">0</Current><DateUtc dt:dt=""string"">2015-07-13T21:18:30Z</DateUtc></FrequencyChange></FrequencyChanges></Clock>\n"	Arrow Flanker 2014-12416-1	60.018	1.0.0.100	1	-1267003554	Professional	2.0.10.353	2.0.10.353	07-13-2015	7/13/2015 9:18:30 PM	17:18:30	2.0.10.248	4	1	1	1	NA	NA	NA	NA	NA	NA	NA	NA	NA	NA	NA	NA	NA	NA	NA	NA	NA	NA	NA	NA	NA	NA	NA	NA	BlockProc	BlockList	NA	45	{LEFTARROW}	NA	-100	1340	congruent	NA	NA	NA	NA	NA	NA	NA	NA	NA	NA	NA	NA	NA	NA	NA	NA	NA	NA	NA	NA	NA	NA	TrialProc	TrialList	1	5	447796	17	0	16	445980	0	1	{LEFTARROW}	-999999	0	447413	0	{LEFTARROW}	378	447791	NA	NA	left	lllll.bmp	354	0	NA	0	0	0	0	NA	0	0	0	NA	0	0	0	0	NA	0	0	1	1	45
Arrow Flanker 2014	12416	1	"<?xml version=""1.0""?>\n<Clock xmlns:dt=""urn:schemas-microsoft-com:datatypes""><Description dt:dt=""string"">E-Prime Primary Realtime Clock</Description><StartTime><Timestamp dt:dt=""int"">0</Timestamp><DateUtc dt:dt=""string"">2015-07-13T21:18:30Z</DateUtc></StartTime><FrequencyChanges><FrequencyChange><Frequency dt:dt=""r8"">2825664</Frequency><Timestamp dt:dt=""r8"">7953011866822</Timestamp><Current dt:dt=""r8"">0</Current><DateUtc dt:dt=""string"">2015-07-13T21:18:30Z</DateUtc></FrequencyChange></FrequencyChanges></Clock>\n"	Arrow Flanker 2014-12416-1	60.018	1.0.0.100	1	-1267003554	Professional	2.0.10.353	2.0.10.353	07-13-2015	7/13/2015 9:18:30 PM	17:18:30	2.0.10.248	4	1	1	1	NA	NA	NA	NA	NA	NA	NA	NA	NA	NA	NA	NA	NA	NA	NA	NA	NA	NA	NA	NA	NA	NA	NA	NA	BlockProc	BlockList	NA	46	{RIGHTARROW}	NA	-100	764	neutral	NA	NA	NA	NA	NA	NA	NA	NA	NA	NA	NA	NA	NA	NA	NA	NA	NA	NA	NA	NA	NA	NA	TrialProc	TrialList	0	12	449979	17	0	16	448329	0	1	{RIGHTARROW}	-999999	16	449529	0	{RIGHTARROW}	438	449967	NA	NA	right	ooroo.bmp	354	0	NA	0	0	0	0	NA	0	0	0	NA	0	0	0	0	NA	0	0	6	1	46
Arrow Flanker 2014	12416	1	"<?xml version=""1.0""?>\n<Clock xmlns:dt=""urn:schemas-microsoft-com:datatypes""><Description dt:dt=""string"">E-Prime Primary Realtime Clock</Description><StartTime><Timestamp dt:dt=""int"">0</Timestamp><DateUtc dt:dt=""string"">2015-07-13T21:18:30Z</DateUtc></StartTime><FrequencyChanges><FrequencyChange><Frequency dt:dt=""r8"">2825664</Frequency><Timestamp dt:dt=""r8"">7953011866822</Timestamp><Current dt:dt=""r8"">0</Current><DateUtc dt:dt=""string"">2015-07-13T21:18:30Z</DateUtc></FrequencyChange></FrequencyChanges></Clock>\n"	Arrow Flanker 2014-12416-1	60.018	1.0.0.100	1	-1267003554	Professional	2.0.10.353	2.0.10.353	07-13-2015	7/13/2015 9:18:30 PM	17:18:30	2.0.10.248	4	1	1	1	NA	NA	NA	NA	NA	NA	NA	NA	NA	NA	NA	NA	NA	NA	NA	NA	NA	NA	NA	NA	NA	NA	NA	NA	BlockProc	BlockList	NA	47	{LEFTARROW}	NA	-100	1323	incongruent	NA	NA	NA	NA	NA	NA	NA	NA	NA	NA	NA	NA	NA	NA	NA	NA	NA	NA	NA	NA	NA	NA	TrialProc	TrialList	0	6	451845	17	0	16	450512	0	1	{LEFTARROW}	-999999	0	451495	0	{LEFTARROW}	344	451839	NA	NA	left	rrlrr.bmp	354	0	NA	0	0	0	0	NA	0	0	0	NA	0	0	0	0	NA	0	0	3	1	47
Arrow Flanker 2014	12416	1	"<?xml version=""1.0""?>\n<Clock xmlns:dt=""urn:schemas-microsoft-com:datatypes""><Description dt:dt=""string"">E-Prime Primary Realtime Clock</Description><StartTime><Timestamp dt:dt=""int"">0</Timestamp><DateUtc dt:dt=""string"">2015-07-13T21:18:30Z</DateUtc></StartTime><FrequencyChanges><FrequencyChange><Frequency dt:dt=""r8"">2825664</Frequency><Timestamp dt:dt=""r8"">7953011866822</Timestamp><Current dt:dt=""r8"">0</Current><DateUtc dt:dt=""string"">2015-07-13T21:18:30Z</DateUtc></FrequencyChange></FrequencyChanges></Clock>\n"	Arrow Flanker 2014-12416-1	60.018	1.0.0.100	1	-1267003554	Professional	2.0.10.353	2.0.10.353	07-13-2015	7/13/2015 9:18:30 PM	17:18:30	2.0.10.248	4	1	1	1	NA	NA	NA	NA	NA	NA	NA	NA	NA	NA	NA	NA	NA	NA	NA	NA	NA	NA	NA	NA	NA	NA	NA	NA	BlockProc	BlockList	NA	48	{LEFTARROW}	NA	-100	2519	incongruent	NA	NA	NA	NA	NA	NA	NA	NA	NA	NA	NA	NA	NA	NA	NA	NA	NA	NA	NA	NA	NA	NA	TrialProc	TrialList	1	13	454844	17	0	16	452378	0	1	{LEFTARROW}	-999999	0	454294	0	{LEFTARROW}	537	454831	NA	NA	left	rrlrr.bmp	354	0	NA	0	0	0	0	NA	0	0	0	NA	0	0	0	0	NA	0	0	3	1	48
Arrow Flanker 2014	12416	1	"<?xml version=""1.0""?>\n<Clock xmlns:dt=""urn:schemas-microsoft-com:datatypes""><Description dt:dt=""string"">E-Prime Primary Realtime Clock</Description><StartTime><Timestamp dt:dt=""int"">0</Timestamp><DateUtc dt:dt=""string"">2015-07-13T21:18:30Z</DateUtc></StartTime><FrequencyChanges><FrequencyChange><Frequency dt:dt=""r8"">2825664</Frequency><Timestamp dt:dt=""r8"">7953011866822</Timestamp><Current dt:dt=""r8"">0</Current><DateUtc dt:dt=""string"">2015-07-13T21:18:30Z</DateUtc></FrequencyChange></FrequencyChanges></Clock>\n"	Arrow Flanker 2014-12416-1	60.018	1.0.0.100	1	-1267003554	Professional	2.0.10.353	2.0.10.353	07-13-2015	7/13/2015 9:18:30 PM	17:18:30	2.0.10.248	4	1	1	1	NA	NA	NA	NA	NA	NA	NA	NA	NA	NA	NA	NA	NA	NA	NA	NA	NA	NA	NA	NA	NA	NA	NA	NA	BlockProc	BlockList	NA	49	{RIGHTARROW}	NA	-100	2210	congruent	NA	NA	NA	NA	NA	NA	NA	NA	NA	NA	NA	NA	NA	NA	NA	NA	NA	NA	NA	NA	NA	NA	TrialProc	TrialList	0	11	457977	16	0	16	455377	0	1	{RIGHTARROW}	-999999	0	457427	0	{RIGHTARROW}	539	457966	NA	NA	right	rrrrr.bmp	354	0	NA	0	0	0	0	NA	0	0	0	NA	0	0	0	0	NA	0	0	2	1	49
Arrow Flanker 2014	12416	1	"<?xml version=""1.0""?>\n<Clock xmlns:dt=""urn:schemas-microsoft-com:datatypes""><Description dt:dt=""string"">E-Prime Primary Realtime Clock</Description><StartTime><Timestamp dt:dt=""int"">0</Timestamp><DateUtc dt:dt=""string"">2015-07-13T21:18:30Z</DateUtc></StartTime><FrequencyChanges><FrequencyChange><Frequency dt:dt=""r8"">2825664</Frequency><Timestamp dt:dt=""r8"">7953011866822</Timestamp><Current dt:dt=""r8"">0</Current><DateUtc dt:dt=""string"">2015-07-13T21:18:30Z</DateUtc></FrequencyChange></FrequencyChanges></Clock>\n"	Arrow Flanker 2014-12416-1	60.018	1.0.0.100	1	-1267003554	Professional	2.0.10.353	2.0.10.353	07-13-2015	7/13/2015 9:18:30 PM	17:18:30	2.0.10.248	4	1	1	1	NA	NA	NA	NA	NA	NA	NA	NA	NA	NA	NA	NA	NA	NA	NA	NA	NA	NA	NA	NA	NA	NA	NA	NA	BlockProc	BlockList	NA	50	{RIGHTARROW}	NA	-100	1258	incongruent	NA	NA	NA	NA	NA	NA	NA	NA	NA	NA	NA	NA	NA	NA	NA	NA	NA	NA	NA	NA	NA	NA	TrialProc	TrialList	0	17	460559	17	0	17	458510	0	1	{RIGHTARROW}	-999999	0	460026	0	{RIGHTARROW}	516	460542	NA	NA	right	llrll.bmp	354	0	NA	0	0	0	0	NA	0	0	0	NA	0	0	0	0	NA	0	0	4	1	50
Arrow Flanker 2014	12416	1	"<?xml version=""1.0""?>\n<Clock xmlns:dt=""urn:schemas-microsoft-com:datatypes""><Description dt:dt=""string"">E-Prime Primary Realtime Clock</Description><StartTime><Timestamp dt:dt=""int"">0</Timestamp><DateUtc dt:dt=""string"">2015-07-13T21:18:30Z</DateUtc></StartTime><FrequencyChanges><FrequencyChange><Frequency dt:dt=""r8"">2825664</Frequency><Timestamp dt:dt=""r8"">7953011866822</Timestamp><Current dt:dt=""r8"">0</Current><DateUtc dt:dt=""string"">2015-07-13T21:18:30Z</DateUtc></FrequencyChange></FrequencyChanges></Clock>\n"	Arrow Flanker 2014-12416-1	60.018	1.0.0.100	1	-1267003554	Professional	2.0.10.353	2.0.10.353	07-13-2015	7/13/2015 9:18:30 PM	17:18:30	2.0.10.248	4	1	1	1	NA	NA	NA	NA	NA	NA	NA	NA	NA	NA	NA	NA	NA	NA	NA	NA	NA	NA	NA	NA	NA	NA	NA	NA	BlockProc	BlockList	NA	51	{RIGHTARROW}	NA	-100	897	incongruent	NA	NA	NA	NA	NA	NA	NA	NA	NA	NA	NA	NA	NA	NA	NA	NA	NA	NA	NA	NA	NA	NA	TrialProc	TrialList	1	3	462625	17	0	16	461092	0	1	{RIGHTARROW}	-999999	0	462009	0	{RIGHTARROW}	613	462622	NA	NA	right	llrll.bmp	354	0	NA	0	0	0	0	NA	0	0	0	NA	0	0	0	0	NA	0	0	4	1	51
Arrow Flanker 2014	12416	1	"<?xml version=""1.0""?>\n<Clock xmlns:dt=""urn:schemas-microsoft-com:datatypes""><Description dt:dt=""string"">E-Prime Primary Realtime Clock</Description><StartTime><Timestamp dt:dt=""int"">0</Timestamp><DateUtc dt:dt=""string"">2015-07-13T21:18:30Z</DateUtc></StartTime><FrequencyChanges><FrequencyChange><Frequency dt:dt=""r8"">2825664</Frequency><Timestamp dt:dt=""r8"">7953011866822</Timestamp><Current dt:dt=""r8"">0</Current><DateUtc dt:dt=""string"">2015-07-13T21:18:30Z</DateUtc></FrequencyChange></FrequencyChanges></Clock>\n"	Arrow Flanker 2014-12416-1	60.018	1.0.0.100	1	-1267003554	Professional	2.0.10.353	2.0.10.353	07-13-2015	7/13/2015 9:18:30 PM	17:18:30	2.0.10.248	4	1	1	1	NA	NA	NA	NA	NA	NA	NA	NA	NA	NA	NA	NA	NA	NA	NA	NA	NA	NA	NA	NA	NA	NA	NA	NA	BlockProc	BlockList	NA	52	{RIGHTARROW}	NA	-100	1525	incongruent	NA	NA	NA	NA	NA	NA	NA	NA	NA	NA	NA	NA	NA	NA	NA	NA	NA	NA	NA	NA	NA	NA	TrialProc	TrialList	0	12	465258	16	0	16	463158	0	1	{RIGHTARROW}	-999999	0	464741	0	{RIGHTARROW}	505	465246	NA	NA	right	llrll.bmp	354	0	NA	0	0	0	0	NA	0	0	0	NA	0	0	0	0	NA	0	0	4	1	52
Arrow Flanker 2014	12416	1	"<?xml version=""1.0""?>\n<Clock xmlns:dt=""urn:schemas-microsoft-com:datatypes""><Description dt:dt=""string"">E-Prime Primary Realtime Clock</Description><StartTime><Timestamp dt:dt=""int"">0</Timestamp><DateUtc dt:dt=""string"">2015-07-13T21:18:30Z</DateUtc></StartTime><FrequencyChanges><FrequencyChange><Frequency dt:dt=""r8"">2825664</Frequency><Timestamp dt:dt=""r8"">7953011866822</Timestamp><Current dt:dt=""r8"">0</Current><DateUtc dt:dt=""string"">2015-07-13T21:18:30Z</DateUtc></FrequencyChange></FrequencyChanges></Clock>\n"	Arrow Flanker 2014-12416-1	60.018	1.0.0.100	1	-1267003554	Professional	2.0.10.353	2.0.10.353	07-13-2015	7/13/2015 9:18:30 PM	17:18:30	2.0.10.248	4	1	1	1	NA	NA	NA	NA	NA	NA	NA	NA	NA	NA	NA	NA	NA	NA	NA	NA	NA	NA	NA	NA	NA	NA	NA	NA	BlockProc	BlockList	NA	53	{LEFTARROW}	NA	-100	1468	neutral	NA	NA	NA	NA	NA	NA	NA	NA	NA	NA	NA	NA	NA	NA	NA	NA	NA	NA	NA	NA	NA	NA	TrialProc	TrialList	0	9	468007	17	0	17	465791	0	1	{LEFTARROW}	-999999	0	467507	0	{LEFTARROW}	491	467998	NA	NA	left	ooloo.bmp	354	0	NA	0	0	0	0	NA	0	0	0	NA	0	0	0	0	NA	0	0	5	1	53
Arrow Flanker 2014	12416	1	"<?xml version=""1.0""?>\n<Clock xmlns:dt=""urn:schemas-microsoft-com:datatypes""><Description dt:dt=""string"">E-Prime Primary Realtime Clock</Description><StartTime><Timestamp dt:dt=""int"">0</Timestamp><DateUtc dt:dt=""string"">2015-07-13T21:18:30Z</DateUtc></StartTime><FrequencyChanges><FrequencyChange><Frequency dt:dt=""r8"">2825664</Frequency><Timestamp dt:dt=""r8"">7953011866822</Timestamp><Current dt:dt=""r8"">0</Current><DateUtc dt:dt=""string"">2015-07-13T21:18:30Z</DateUtc></FrequencyChange></FrequencyChanges></Clock>\n"	Arrow Flanker 2014-12416-1	60.018	1.0.0.100	1	-1267003554	Professional	2.0.10.353	2.0.10.353	07-13-2015	7/13/2015 9:18:30 PM	17:18:30	2.0.10.248	4	1	1	1	NA	NA	NA	NA	NA	NA	NA	NA	NA	NA	NA	NA	NA	NA	NA	NA	NA	NA	NA	NA	NA	NA	NA	NA	BlockProc	BlockList	NA	54	{LEFTARROW}	NA	-100	1036	neutral	NA	NA	NA	NA	NA	NA	NA	NA	NA	NA	NA	NA	NA	NA	NA	NA	NA	NA	NA	NA	1	NA	TrialProc	TrialList	1	13	470539	17	0	16	468540	0	1	{LEFTARROW}	-999999	0	470090	0	{LEFTARROW}	436	470526	NA	NA	left	ooloo.bmp	354	0	NA	-999999	17	471073	0	1	2117	473190	0	NA	0	0	0	0	NA	0	0	5	1	54
Arrow Flanker 2014	12416	1	"<?xml version=""1.0""?>\n<Clock xmlns:dt=""urn:schemas-microsoft-com:datatypes""><Description dt:dt=""string"">E-Prime Primary Realtime Clock</Description><StartTime><Timestamp dt:dt=""int"">0</Timestamp><DateUtc dt:dt=""string"">2015-07-13T21:18:30Z</DateUtc></StartTime><FrequencyChanges><FrequencyChange><Frequency dt:dt=""r8"">2825664</Frequency><Timestamp dt:dt=""r8"">7953011866822</Timestamp><Current dt:dt=""r8"">0</Current><DateUtc dt:dt=""string"">2015-07-13T21:18:30Z</DateUtc></FrequencyChange></FrequencyChanges></Clock>\n"	Arrow Flanker 2014-12416-1	60.018	1.0.0.100	1	-1267003554	Professional	2.0.10.353	2.0.10.353	07-13-2015	7/13/2015 9:18:30 PM	17:18:30	2.0.10.248	4	1	1	1	NA	NA	NA	NA	NA	NA	NA	NA	NA	NA	NA	NA	NA	NA	NA	NA	NA	NA	NA	NA	NA	NA	NA	NA	BlockProc	BlockList	NA	55	{RIGHTARROW}	NA	-100	1471	neutral	NA	NA	NA	NA	NA	NA	NA	NA	NA	NA	NA	NA	NA	NA	NA	NA	NA	NA	NA	NA	NA	NA	TrialProc	TrialList	0	5	477154	17	0	5	474722	0	1	{RIGHTARROW}	-999999	0	476638	0	{RIGHTARROW}	511	477149	NA	NA	right	ooroo.bmp	354	0	NA	0	0	0	0	NA	0	0	0	NA	0	0	0	0	NA	0	0	6	1	55
Arrow Flanker 2014	12416	1	"<?xml version=""1.0""?>\n<Clock xmlns:dt=""urn:schemas-microsoft-com:datatypes""><Description dt:dt=""string"">E-Prime Primary Realtime Clock</Description><StartTime><Timestamp dt:dt=""int"">0</Timestamp><DateUtc dt:dt=""string"">2015-07-13T21:18:30Z</DateUtc></StartTime><FrequencyChanges><FrequencyChange><Frequency dt:dt=""r8"">2825664</Frequency><Timestamp dt:dt=""r8"">7953011866822</Timestamp><Current dt:dt=""r8"">0</Current><DateUtc dt:dt=""string"">2015-07-13T21:18:30Z</DateUtc></FrequencyChange></FrequencyChanges></Clock>\n"	Arrow Flanker 2014-12416-1	60.018	1.0.0.100	1	-1267003554	Professional	2.0.10.353	2.0.10.353	07-13-2015	7/13/2015 9:18:30 PM	17:18:30	2.0.10.248	4	1	1	1	NA	NA	NA	NA	NA	NA	NA	NA	NA	NA	NA	NA	NA	NA	NA	NA	NA	NA	NA	NA	NA	NA	NA	NA	BlockProc	BlockList	NA	56	{RIGHTARROW}	NA	-100	1689	congruent	NA	NA	NA	NA	NA	NA	NA	NA	NA	NA	NA	NA	NA	NA	NA	NA	NA	NA	NA	NA	NA	NA	TrialProc	TrialList	0	3	479920	17	0	16	477687	0	1	{RIGHTARROW}	-999999	0	479520	0	{RIGHTARROW}	397	479917	NA	NA	right	rrrrr.bmp	354	0	NA	0	0	0	0	NA	0	0	0	NA	0	0	0	0	NA	0	0	2	1	56
Arrow Flanker 2014	12416	1	"<?xml version=""1.0""?>\n<Clock xmlns:dt=""urn:schemas-microsoft-com:datatypes""><Description dt:dt=""string"">E-Prime Primary Realtime Clock</Description><StartTime><Timestamp dt:dt=""int"">0</Timestamp><DateUtc dt:dt=""string"">2015-07-13T21:18:30Z</DateUtc></StartTime><FrequencyChanges><FrequencyChange><Frequency dt:dt=""r8"">2825664</Frequency><Timestamp dt:dt=""r8"">7953011866822</Timestamp><Current dt:dt=""r8"">0</Current><DateUtc dt:dt=""string"">2015-07-13T21:18:30Z</DateUtc></FrequencyChange></FrequencyChanges></Clock>\n"	Arrow Flanker 2014-12416-1	60.018	1.0.0.100	1	-1267003554	Professional	2.0.10.353	2.0.10.353	07-13-2015	7/13/2015 9:18:30 PM	17:18:30	2.0.10.248	4	1	1	1	NA	NA	NA	NA	NA	NA	NA	NA	NA	NA	NA	NA	NA	NA	NA	NA	NA	NA	NA	NA	NA	NA	NA	NA	BlockProc	BlockList	NA	57	{LEFTARROW}	NA	-100	895	congruent	NA	NA	NA	NA	NA	NA	NA	NA	NA	NA	NA	NA	NA	NA	NA	NA	NA	NA	NA	NA	NA	NA	TrialProc	TrialList	1	16	481869	17	0	16	480453	0	1	{LEFTARROW}	-999999	0	481403	0	{LEFTARROW}	450	481853	NA	NA	left	lllll.bmp	354	0	NA	0	0	0	0	NA	0	0	0	NA	0	0	0	0	NA	0	0	1	1	57
Arrow Flanker 2014	12416	1	"<?xml version=""1.0""?>\n<Clock xmlns:dt=""urn:schemas-microsoft-com:datatypes""><Description dt:dt=""string"">E-Prime Primary Realtime Clock</Description><StartTime><Timestamp dt:dt=""int"">0</Timestamp><DateUtc dt:dt=""string"">2015-07-13T21:18:30Z</DateUtc></StartTime><FrequencyChanges><FrequencyChange><Frequency dt:dt=""r8"">2825664</Frequency><Timestamp dt:dt=""r8"">7953011866822</Timestamp><Current dt:dt=""r8"">0</Current><DateUtc dt:dt=""string"">2015-07-13T21:18:30Z</DateUtc></FrequencyChange></FrequencyChanges></Clock>\n"	Arrow Flanker 2014-12416-1	60.018	1.0.0.100	1	-1267003554	Professional	2.0.10.353	2.0.10.353	07-13-2015	7/13/2015 9:18:30 PM	17:18:30	2.0.10.248	4	1	1	1	NA	NA	NA	NA	NA	NA	NA	NA	NA	NA	NA	NA	NA	NA	NA	NA	NA	NA	NA	NA	NA	NA	NA	NA	BlockProc	BlockList	NA	58	{RIGHTARROW}	NA	-100	1599	incongruent	NA	NA	NA	NA	NA	NA	NA	NA	NA	NA	NA	NA	NA	NA	NA	NA	NA	NA	NA	NA	NA	NA	TrialProc	TrialList	0	5	484402	17	0	17	482403	983	1	{RIGHTARROW}	-999999	-1	483885	0	{RIGHTARROW}	512	484397	NA	NA	right	llrll.bmp	354	0	NA	0	0	0	0	NA	0	0	0	NA	0	0	0	0	NA	0	0	4	1	58
Arrow Flanker 2014	12416	1	"<?xml version=""1.0""?>\n<Clock xmlns:dt=""urn:schemas-microsoft-com:datatypes""><Description dt:dt=""string"">E-Prime Primary Realtime Clock</Description><StartTime><Timestamp dt:dt=""int"">0</Timestamp><DateUtc dt:dt=""string"">2015-07-13T21:18:30Z</DateUtc></StartTime><FrequencyChanges><FrequencyChange><Frequency dt:dt=""r8"">2825664</Frequency><Timestamp dt:dt=""r8"">7953011866822</Timestamp><Current dt:dt=""r8"">0</Current><DateUtc dt:dt=""string"">2015-07-13T21:18:30Z</DateUtc></FrequencyChange></FrequencyChanges></Clock>\n"	Arrow Flanker 2014-12416-1	60.018	1.0.0.100	1	-1267003554	Professional	2.0.10.353	2.0.10.353	07-13-2015	7/13/2015 9:18:30 PM	17:18:30	2.0.10.248	4	1	1	1	NA	NA	NA	NA	NA	NA	NA	NA	NA	NA	NA	NA	NA	NA	NA	NA	NA	NA	NA	NA	NA	NA	NA	NA	BlockProc	BlockList	NA	59	{LEFTARROW}	NA	-100	1462	congruent	NA	NA	NA	NA	NA	NA	NA	NA	NA	NA	NA	NA	NA	NA	NA	NA	NA	NA	NA	NA	NA	NA	TrialProc	TrialList	1	2	487151	17	0	16	484935	0	1	{LEFTARROW}	-999999	0	486651	0	{LEFTARROW}	498	487149	NA	NA	left	lllll.bmp	354	0	NA	0	0	0	0	NA	0	0	0	NA	0	0	0	0	NA	0	0	1	1	59
Arrow Flanker 2014	12416	1	"<?xml version=""1.0""?>\n<Clock xmlns:dt=""urn:schemas-microsoft-com:datatypes""><Description dt:dt=""string"">E-Prime Primary Realtime Clock</Description><StartTime><Timestamp dt:dt=""int"">0</Timestamp><DateUtc dt:dt=""string"">2015-07-13T21:18:30Z</DateUtc></StartTime><FrequencyChanges><FrequencyChange><Frequency dt:dt=""r8"">2825664</Frequency><Timestamp dt:dt=""r8"">7953011866822</Timestamp><Current dt:dt=""r8"">0</Current><DateUtc dt:dt=""string"">2015-07-13T21:18:30Z</DateUtc></FrequencyChange></FrequencyChanges></Clock>\n"	Arrow Flanker 2014-12416-1	60.018	1.0.0.100	1	-1267003554	Professional	2.0.10.353	2.0.10.353	07-13-2015	7/13/2015 9:18:30 PM	17:18:30	2.0.10.248	4	1	1	1	NA	NA	NA	NA	NA	NA	NA	NA	NA	NA	NA	NA	NA	NA	NA	NA	NA	NA	NA	NA	NA	NA	NA	NA	BlockProc	BlockList	NA	60	{RIGHTARROW}	NA	-100	1725	incongruent	NA	NA	NA	NA	NA	NA	NA	NA	NA	NA	NA	NA	NA	NA	NA	NA	NA	NA	NA	NA	NA	NA	TrialProc	TrialList	0	4	489984	16	0	16	487684	0	1	{RIGHTARROW}	-999999	0	489484	0	{RIGHTARROW}	496	489980	NA	NA	right	llrll.bmp	354	0	NA	0	0	0	0	NA	0	0	0	NA	0	0	0	0	NA	0	0	4	1	60
Arrow Flanker 2014	12416	1	"<?xml version=""1.0""?>\n<Clock xmlns:dt=""urn:schemas-microsoft-com:datatypes""><Description dt:dt=""string"">E-Prime Primary Realtime Clock</Description><StartTime><Timestamp dt:dt=""int"">0</Timestamp><DateUtc dt:dt=""string"">2015-07-13T21:18:30Z</DateUtc></StartTime><FrequencyChanges><FrequencyChange><Frequency dt:dt=""r8"">2825664</Frequency><Timestamp dt:dt=""r8"">7953011866822</Timestamp><Current dt:dt=""r8"">0</Current><DateUtc dt:dt=""string"">2015-07-13T21:18:30Z</DateUtc></FrequencyChange></FrequencyChanges></Clock>\n"	Arrow Flanker 2014-12416-1	60.018	1.0.0.100	1	-1267003554	Professional	2.0.10.353	2.0.10.353	07-13-2015	7/13/2015 9:18:30 PM	17:18:30	2.0.10.248	4	1	1	1	NA	NA	NA	NA	NA	NA	NA	NA	NA	NA	NA	NA	NA	NA	NA	NA	NA	NA	NA	NA	NA	NA	NA	NA	BlockProc	BlockList	NA	61	{LEFTARROW}	NA	-100	1098	incongruent	NA	NA	NA	NA	NA	NA	NA	NA	NA	NA	NA	NA	NA	NA	NA	NA	NA	NA	NA	NA	NA	NA	TrialProc	TrialList	0	16	492300	16	0	17	490517	0	1	{LEFTARROW}	-999999	0	491850	0	{LEFTARROW}	434	492284	NA	NA	left	rrlrr.bmp	354	0	NA	0	0	0	0	NA	0	0	0	NA	0	0	0	0	NA	0	0	3	1	61
Arrow Flanker 2014	12416	1	"<?xml version=""1.0""?>\n<Clock xmlns:dt=""urn:schemas-microsoft-com:datatypes""><Description dt:dt=""string"">E-Prime Primary Realtime Clock</Description><StartTime><Timestamp dt:dt=""int"">0</Timestamp><DateUtc dt:dt=""string"">2015-07-13T21:18:30Z</DateUtc></StartTime><FrequencyChanges><FrequencyChange><Frequency dt:dt=""r8"">2825664</Frequency><Timestamp dt:dt=""r8"">7953011866822</Timestamp><Current dt:dt=""r8"">0</Current><DateUtc dt:dt=""string"">2015-07-13T21:18:30Z</DateUtc></FrequencyChange></FrequencyChanges></Clock>\n"	Arrow Flanker 2014-12416-1	60.018	1.0.0.100	1	-1267003554	Professional	2.0.10.353	2.0.10.353	07-13-2015	7/13/2015 9:18:30 PM	17:18:30	2.0.10.248	4	1	1	1	NA	NA	NA	NA	NA	NA	NA	NA	NA	NA	NA	NA	NA	NA	NA	NA	NA	NA	NA	NA	NA	NA	NA	NA	BlockProc	BlockList	NA	62	{RIGHTARROW}	NA	-100	2208	neutral	NA	NA	NA	NA	NA	NA	NA	NA	NA	NA	NA	NA	NA	NA	NA	NA	NA	NA	NA	NA	NA	NA	TrialProc	TrialList	1	7	495315	17	0	17	492833	0	1	{RIGHTARROW}	-999999	0	494832	0	{RIGHTARROW}	476	495308	NA	NA	right	ooroo.bmp	354	0	NA	0	0	0	0	NA	0	0	0	NA	0	0	0	0	NA	0	0	6	1	62
Arrow Flanker 2014	12416	1	"<?xml version=""1.0""?>\n<Clock xmlns:dt=""urn:schemas-microsoft-com:datatypes""><Description dt:dt=""string"">E-Prime Primary Realtime Clock</Description><StartTime><Timestamp dt:dt=""int"">0</Timestamp><DateUtc dt:dt=""string"">2015-07-13T21:18:30Z</DateUtc></StartTime><FrequencyChanges><FrequencyChange><Frequency dt:dt=""r8"">2825664</Frequency><Timestamp dt:dt=""r8"">7953011866822</Timestamp><Current dt:dt=""r8"">0</Current><DateUtc dt:dt=""string"">2015-07-13T21:18:30Z</DateUtc></FrequencyChange></FrequencyChanges></Clock>\n"	Arrow Flanker 2014-12416-1	60.018	1.0.0.100	1	-1267003554	Professional	2.0.10.353	2.0.10.353	07-13-2015	7/13/2015 9:18:30 PM	17:18:30	2.0.10.248	4	1	1	1	NA	NA	NA	NA	NA	NA	NA	NA	NA	NA	NA	NA	NA	NA	NA	NA	NA	NA	NA	NA	NA	NA	NA	NA	BlockProc	BlockList	NA	63	{RIGHTARROW}	NA	-100	1731	congruent	NA	NA	NA	NA	NA	NA	NA	NA	NA	NA	NA	NA	NA	NA	NA	NA	NA	NA	NA	NA	NA	NA	TrialProc	TrialList	1	7	497331	17	0	17	495849	0	1	{RIGHTARROW}	-999999	0	496932	0	{RIGHTARROW}	392	497324	NA	NA	right	rrrrr.bmp	354	0	NA	0	0	0	0	NA	0	0	0	NA	0	0	0	0	NA	0	0	2	1	63
Arrow Flanker 2014	12416	1	"<?xml version=""1.0""?>\n<Clock xmlns:dt=""urn:schemas-microsoft-com:datatypes""><Description dt:dt=""string"">E-Prime Primary Realtime Clock</Description><StartTime><Timestamp dt:dt=""int"">0</Timestamp><DateUtc dt:dt=""string"">2015-07-13T21:18:30Z</DateUtc></StartTime><FrequencyChanges><FrequencyChange><Frequency dt:dt=""r8"">2825664</Frequency><Timestamp dt:dt=""r8"">7953011866822</Timestamp><Current dt:dt=""r8"">0</Current><DateUtc dt:dt=""string"">2015-07-13T21:18:30Z</DateUtc></FrequencyChange></FrequencyChanges></Clock>\n"	Arrow Flanker 2014-12416-1	60.018	1.0.0.100	1	-1267003554	Professional	2.0.10.353	2.0.10.353	07-13-2015	7/13/2015 9:18:30 PM	17:18:30	2.0.10.248	4	1	1	1	NA	NA	NA	NA	NA	NA	NA	NA	NA	NA	NA	NA	NA	NA	NA	NA	NA	NA	NA	NA	NA	NA	NA	NA	BlockProc	BlockList	NA	64	{RIGHTARROW}	NA	-100	1275	neutral	NA	NA	NA	NA	NA	NA	NA	NA	NA	NA	NA	NA	NA	NA	NA	NA	NA	NA	NA	NA	NA	NA	TrialProc	TrialList	0	9	499781	16	0	17	497865	0	1	{RIGHTARROW}	-999999	0	499348	0	{RIGHTARROW}	424	499772	NA	NA	right	ooroo.bmp	354	0	NA	0	0	0	0	NA	0	0	0	NA	0	0	0	0	NA	0	0	6	1	64
Arrow Flanker 2014	12416	1	"<?xml version=""1.0""?>\n<Clock xmlns:dt=""urn:schemas-microsoft-com:datatypes""><Description dt:dt=""string"">E-Prime Primary Realtime Clock</Description><StartTime><Timestamp dt:dt=""int"">0</Timestamp><DateUtc dt:dt=""string"">2015-07-13T21:18:30Z</DateUtc></StartTime><FrequencyChanges><FrequencyChange><Frequency dt:dt=""r8"">2825664</Frequency><Timestamp dt:dt=""r8"">7953011866822</Timestamp><Current dt:dt=""r8"">0</Current><DateUtc dt:dt=""string"">2015-07-13T21:18:30Z</DateUtc></FrequencyChange></FrequencyChanges></Clock>\n"	Arrow Flanker 2014-12416-1	60.018	1.0.0.100	1	-1267003554	Professional	2.0.10.353	2.0.10.353	07-13-2015	7/13/2015 9:18:30 PM	17:18:30	2.0.10.248	4	1	1	1	NA	NA	NA	NA	NA	NA	NA	NA	NA	NA	NA	NA	NA	NA	NA	NA	NA	NA	NA	NA	NA	NA	NA	NA	BlockProc	BlockList	NA	65	{RIGHTARROW}	NA	-100	1668	neutral	NA	NA	NA	NA	NA	NA	NA	NA	NA	NA	NA	NA	NA	NA	NA	NA	NA	NA	NA	NA	NA	NA	TrialProc	TrialList	0	3	502447	16	0	17	500314	0	1	{RIGHTARROW}	-999999	0	502047	0	{RIGHTARROW}	397	502444	NA	NA	right	ooroo.bmp	354	0	NA	0	0	0	0	NA	0	0	0	NA	0	0	0	0	NA	0	0	6	1	65
Arrow Flanker 2014	12416	1	"<?xml version=""1.0""?>\n<Clock xmlns:dt=""urn:schemas-microsoft-com:datatypes""><Description dt:dt=""string"">E-Prime Primary Realtime Clock</Description><StartTime><Timestamp dt:dt=""int"">0</Timestamp><DateUtc dt:dt=""string"">2015-07-13T21:18:30Z</DateUtc></StartTime><FrequencyChanges><FrequencyChange><Frequency dt:dt=""r8"">2825664</Frequency><Timestamp dt:dt=""r8"">7953011866822</Timestamp><Current dt:dt=""r8"">0</Current><DateUtc dt:dt=""string"">2015-07-13T21:18:30Z</DateUtc></FrequencyChange></FrequencyChanges></Clock>\n"	Arrow Flanker 2014-12416-1	60.018	1.0.0.100	1	-1267003554	Professional	2.0.10.353	2.0.10.353	07-13-2015	7/13/2015 9:18:30 PM	17:18:30	2.0.10.248	4	1	1	1	NA	NA	NA	NA	NA	NA	NA	NA	NA	NA	NA	NA	NA	NA	NA	NA	NA	NA	NA	NA	NA	NA	NA	NA	BlockProc	BlockList	NA	66	{LEFTARROW}	NA	-100	730	congruent	NA	NA	NA	NA	NA	NA	NA	NA	NA	NA	NA	NA	NA	NA	NA	NA	NA	NA	NA	NA	NA	NA	TrialProc	TrialList	0	6	504546	17	0	17	502980	0	1	{LEFTARROW}	-999999	0	504096	0	{LEFTARROW}	444	504540	NA	NA	left	lllll.bmp	354	0	NA	0	0	0	0	NA	0	0	0	NA	0	0	0	0	NA	0	0	1	1	66
