ExperimentName	Subject	Session	Clock.Information	DataFile.Basename	Display.RefreshRate	ExperimentVersion	Group	RandomSeed	RuntimeCapabilities	RuntimeVersion	RuntimeVersionExpected	SessionDate	SessionStartDateTimeUtc	SessionTime	StudioVersion	Block	BlockList	BlockList.Cycle	BlockList.Sample	Both	CompletelyMW	CongMeanRT	CongTotal	Fragmented	GoodByeList	GoodByeList.Cycle	GoodByeList.Sample	IncongMeanRT	IncongTotal	MapBlockList	MapBlockList.Cycle	MapBlockList.Sample	Mindwandering	MostlyMW	MostlyOT	NeutralMeanRT	NeutralTotal	NumberProbes1	NumberProbes2	OnTask	PracBlockList	PracBlockList.Cycle	PracBlockList.Sample	Procedure[Block]	Running[Block]	Sequential	Trial	CorrectAnswer	CuePositionY	CuePositionY2	DurationOfFixation	FlankerType	MapTrialList	MapTrialList.Cycle	MapTrialList.Sample	PracSlideFixationStart.DurationError	PracSlideFixationStart.OnsetDelay	PracSlideFixationStart.OnsetTime	PracSlideFixationStart.OnsetToOnsetTime	PracSlideTarget.ACC	PracSlideTarget.CRESP	PracSlideTarget.DurationError	PracSlideTarget.OnsetDelay	PracSlideTarget.OnsetTime	PracSlideTarget.OnsetToOnsetTime	PracSlideTarget.RESP	PracSlideTarget.RT	PracSlideTarget.RTTime	PracSlideTarget.Tag	PracTrialList	PracTrialList.Cycle	PracTrialList.Sample	Probe1Resp	Probe2Resp	Procedure[Trial]	Running[Trial]	SlideFixationEnd.DurationError	SlideFixationEnd.OnsetDelay	SlideFixationEnd.OnsetTime	SlideFixationEnd.OnsetToOnsetTime	SlideFixationStart.DurationError	SlideFixationStart.OnsetDelay	SlideFixationStart.OnsetTime	SlideFixationStart.OnsetToOnsetTime	SlideTarget.ACC	SlideTarget.CRESP	SlideTarget.DurationError	SlideTarget.OnsetDelay	SlideTarget.OnsetTime	SlideTarget.OnsetToOnsetTime	SlideTarget.RESP	SlideTarget.RT	SlideTarget.RTTime	SlideTarget.Tag	TargerDirection	TargetDirection	TargetImage	TargetPosition	ThoughtProbe1.ACC	ThoughtProbe1.CRESP	ThoughtProbe1.DurationError	ThoughtProbe1.OnsetDelay	ThoughtProbe1.OnsetTime	ThoughtProbe1.OnsetToOnsetTime	ThoughtProbe1.RESP	ThoughtProbe1.RT	ThoughtProbe1.RTTime	ThoughtProbe2.ACC	ThoughtProbe2.CRESP	ThoughtProbe2.DurationError	ThoughtProbe2.OnsetDelay	ThoughtProbe2.OnsetTime	ThoughtProbe2.OnsetToOnsetTime	ThoughtProbe2.RESP	ThoughtProbe2.RT	ThoughtProbe2.RTTime	TrialList	TrialList.Cycle	TrialList.Sample
Arrow Flanker 2014	12417	1	"<?xml version=""1.0""?>\n<Clock xmlns:dt=""urn:schemas-microsoft-com:datatypes""><Description dt:dt=""string"">E-Prime Primary Realtime Clock</Description><StartTime><Timestamp dt:dt=""int"">0</Timestamp><DateUtc dt:dt=""string"">2015-07-14T15:22:22Z</DateUtc></StartTime><FrequencyChanges><FrequencyChange><Frequency dt:dt=""r8"">2825703</Frequency><Timestamp dt:dt=""r8"">8381909281289</Timestamp><Current dt:dt=""r8"">0</Current><DateUtc dt:dt=""string"">2015-07-14T15:22:22Z</DateUtc></FrequencyChange></FrequencyChanges></Clock>\n"	Arrow Flanker 2014-12417-1	60.019	1.0.0.98	1	-1866323318	Professional	2.0.10.353	2.0.10.353	07-14-2015	7/14/2015 3:22:22 PM	11:22:22	2.0.10.248	1	NA	NA	NA	NA	NA	NA	NA	NA	NA	NA	NA	NA	NA	1	1	1	NA	NA	NA	NA	NA	NA	NA	NA	NA	NA	NA	MapBlockProc	MapBlockList	NA	1	{RIGHTARROW}	-100	NA	955	NA	2	1	1	0	9	368964	966	0	{RIGHTARROW}	0	0	370430	1699	NA	0	0	NA	NA	NA	NA	NA	NA	MapTrialProc	MapTrialList	NA	NA	NA	NA	NA	NA	NA	NA	NA	NA	NA	NA	NA	NA	NA	NA	NA	NA	right	NA	R.bmp	354	NA	NA	NA	NA	NA	NA	NA	NA	NA	NA	NA	NA	NA	NA	NA	NA	NA	NA	NA	NA	NA
Arrow Flanker 2014	12417	1	"<?xml version=""1.0""?>\n<Clock xmlns:dt=""urn:schemas-microsoft-com:datatypes""><Description dt:dt=""string"">E-Prime Primary Realtime Clock</Description><StartTime><Timestamp dt:dt=""int"">0</Timestamp><DateUtc dt:dt=""string"">2015-07-14T15:22:22Z</DateUtc></StartTime><FrequencyChanges><FrequencyChange><Frequency dt:dt=""r8"">2825703</Frequency><Timestamp dt:dt=""r8"">8381909281289</Timestamp><Current dt:dt=""r8"">0</Current><DateUtc dt:dt=""string"">2015-07-14T15:22:22Z</DateUtc></FrequencyChange></FrequencyChanges></Clock>\n"	Arrow Flanker 2014-12417-1	60.019	1.0.0.98	1	-1866323318	Professional	2.0.10.353	2.0.10.353	07-14-2015	7/14/2015 3:22:22 PM	11:22:22	2.0.10.248	1	NA	NA	NA	NA	NA	NA	NA	NA	NA	NA	NA	NA	NA	1	1	1	NA	NA	NA	NA	NA	NA	NA	NA	NA	NA	NA	MapBlockProc	MapBlockList	NA	2	{LEFTARROW}	-100	NA	1471	NA	1	1	2	0	17	373646	1483	0	{LEFTARROW}	0	0	375628	1700	NA	0	0	NA	NA	NA	NA	NA	NA	MapTrialProc	MapTrialList	NA	NA	NA	NA	NA	NA	NA	NA	NA	NA	NA	NA	NA	NA	NA	NA	NA	NA	left	NA	L.bmp	354	NA	NA	NA	NA	NA	NA	NA	NA	NA	NA	NA	NA	NA	NA	NA	NA	NA	NA	NA	NA	NA
Arrow Flanker 2014	12417	1	"<?xml version=""1.0""?>\n<Clock xmlns:dt=""urn:schemas-microsoft-com:datatypes""><Description dt:dt=""string"">E-Prime Primary Realtime Clock</Description><StartTime><Timestamp dt:dt=""int"">0</Timestamp><DateUtc dt:dt=""string"">2015-07-14T15:22:22Z</DateUtc></StartTime><FrequencyChanges><FrequencyChange><Frequency dt:dt=""r8"">2825703</Frequency><Timestamp dt:dt=""r8"">8381909281289</Timestamp><Current dt:dt=""r8"">0</Current><DateUtc dt:dt=""string"">2015-07-14T15:22:22Z</DateUtc></FrequencyChange></FrequencyChanges></Clock>\n"	Arrow Flanker 2014-12417-1	60.019	1.0.0.98	1	-1866323318	Professional	2.0.10.353	2.0.10.353	07-14-2015	7/14/2015 3:22:22 PM	11:22:22	2.0.10.248	1	NA	NA	NA	NA	NA	NA	NA	NA	NA	NA	NA	NA	NA	1	1	1	NA	NA	NA	NA	NA	NA	NA	NA	NA	NA	NA	MapBlockProc	MapBlockList	NA	3	{LEFTARROW}	-100	NA	922	NA	1	1	3	0	16	378844	933	0	{LEFTARROW}	0	0	380277	1716	NA	0	0	NA	NA	NA	NA	NA	NA	MapTrialProc	MapTrialList	NA	NA	NA	NA	NA	NA	NA	NA	NA	NA	NA	NA	NA	NA	NA	NA	NA	NA	left	NA	L.bmp	354	NA	NA	NA	NA	NA	NA	NA	NA	NA	NA	NA	NA	NA	NA	NA	NA	NA	NA	NA	NA	NA
Arrow Flanker 2014	12417	1	"<?xml version=""1.0""?>\n<Clock xmlns:dt=""urn:schemas-microsoft-com:datatypes""><Description dt:dt=""string"">E-Prime Primary Realtime Clock</Description><StartTime><Timestamp dt:dt=""int"">0</Timestamp><DateUtc dt:dt=""string"">2015-07-14T15:22:22Z</DateUtc></StartTime><FrequencyChanges><FrequencyChange><Frequency dt:dt=""r8"">2825703</Frequency><Timestamp dt:dt=""r8"">8381909281289</Timestamp><Current dt:dt=""r8"">0</Current><DateUtc dt:dt=""string"">2015-07-14T15:22:22Z</DateUtc></FrequencyChange></FrequencyChanges></Clock>\n"	Arrow Flanker 2014-12417-1	60.019	1.0.0.98	1	-1866323318	Professional	2.0.10.353	2.0.10.353	07-14-2015	7/14/2015 3:22:22 PM	11:22:22	2.0.10.248	1	NA	NA	NA	NA	NA	NA	NA	NA	NA	NA	NA	NA	NA	1	1	1	NA	NA	NA	NA	NA	NA	NA	NA	NA	NA	NA	MapBlockProc	MapBlockList	NA	4	{RIGHTARROW}	-100	NA	1068	NA	2	1	4	0	16	383509	1083	0	{RIGHTARROW}	0	0	385092	1700	NA	0	0	NA	NA	NA	NA	NA	NA	MapTrialProc	MapTrialList	NA	NA	NA	NA	NA	NA	NA	NA	NA	NA	NA	NA	NA	NA	NA	NA	NA	NA	right	NA	R.bmp	354	NA	NA	NA	NA	NA	NA	NA	NA	NA	NA	NA	NA	NA	NA	NA	NA	NA	NA	NA	NA	NA
Arrow Flanker 2014	12417	1	"<?xml version=""1.0""?>\n<Clock xmlns:dt=""urn:schemas-microsoft-com:datatypes""><Description dt:dt=""string"">E-Prime Primary Realtime Clock</Description><StartTime><Timestamp dt:dt=""int"">0</Timestamp><DateUtc dt:dt=""string"">2015-07-14T15:22:22Z</DateUtc></StartTime><FrequencyChanges><FrequencyChange><Frequency dt:dt=""r8"">2825703</Frequency><Timestamp dt:dt=""r8"">8381909281289</Timestamp><Current dt:dt=""r8"">0</Current><DateUtc dt:dt=""string"">2015-07-14T15:22:22Z</DateUtc></FrequencyChange></FrequencyChanges></Clock>\n"	Arrow Flanker 2014-12417-1	60.019	1.0.0.98	1	-1866323318	Professional	2.0.10.353	2.0.10.353	07-14-2015	7/14/2015 3:22:22 PM	11:22:22	2.0.10.248	1	NA	NA	NA	NA	NA	NA	NA	NA	NA	NA	NA	NA	NA	1	1	1	NA	NA	NA	NA	NA	NA	NA	NA	NA	NA	NA	MapBlockProc	MapBlockList	NA	5	{RIGHTARROW}	-100	NA	1573	NA	2	1	5	0	16	388308	1583	0	{RIGHTARROW}	0	-1	390390	1700	NA	0	0	NA	NA	NA	NA	NA	NA	MapTrialProc	MapTrialList	NA	NA	NA	NA	NA	NA	NA	NA	NA	NA	NA	NA	NA	NA	NA	NA	NA	NA	right	NA	R.bmp	354	NA	NA	NA	NA	NA	NA	NA	NA	NA	NA	NA	NA	NA	NA	NA	NA	NA	NA	NA	NA	NA
Arrow Flanker 2014	12417	1	"<?xml version=""1.0""?>\n<Clock xmlns:dt=""urn:schemas-microsoft-com:datatypes""><Description dt:dt=""string"">E-Prime Primary Realtime Clock</Description><StartTime><Timestamp dt:dt=""int"">0</Timestamp><DateUtc dt:dt=""string"">2015-07-14T15:22:22Z</DateUtc></StartTime><FrequencyChanges><FrequencyChange><Frequency dt:dt=""r8"">2825703</Frequency><Timestamp dt:dt=""r8"">8381909281289</Timestamp><Current dt:dt=""r8"">0</Current><DateUtc dt:dt=""string"">2015-07-14T15:22:22Z</DateUtc></FrequencyChange></FrequencyChanges></Clock>\n"	Arrow Flanker 2014-12417-1	60.019	1.0.0.98	1	-1866323318	Professional	2.0.10.353	2.0.10.353	07-14-2015	7/14/2015 3:22:22 PM	11:22:22	2.0.10.248	1	NA	NA	NA	NA	NA	NA	NA	NA	NA	NA	NA	NA	NA	1	1	1	NA	NA	NA	NA	NA	NA	NA	NA	NA	NA	NA	MapBlockProc	MapBlockList	NA	6	{LEFTARROW}	-100	NA	1364	NA	1	1	6	0	16	393606	1366	0	{LEFTARROW}	0	0	395472	1700	NA	0	0	NA	NA	NA	NA	NA	NA	MapTrialProc	MapTrialList	NA	NA	NA	NA	NA	NA	NA	NA	NA	NA	NA	NA	NA	NA	NA	NA	NA	NA	left	NA	L.bmp	354	NA	NA	NA	NA	NA	NA	NA	NA	NA	NA	NA	NA	NA	NA	NA	NA	NA	NA	NA	NA	NA
Arrow Flanker 2014	12417	1	"<?xml version=""1.0""?>\n<Clock xmlns:dt=""urn:schemas-microsoft-com:datatypes""><Description dt:dt=""string"">E-Prime Primary Realtime Clock</Description><StartTime><Timestamp dt:dt=""int"">0</Timestamp><DateUtc dt:dt=""string"">2015-07-14T15:22:22Z</DateUtc></StartTime><FrequencyChanges><FrequencyChange><Frequency dt:dt=""r8"">2825703</Frequency><Timestamp dt:dt=""r8"">8381909281289</Timestamp><Current dt:dt=""r8"">0</Current><DateUtc dt:dt=""string"">2015-07-14T15:22:22Z</DateUtc></FrequencyChange></FrequencyChanges></Clock>\n"	Arrow Flanker 2014-12417-1	60.019	1.0.0.98	1	-1866323318	Professional	2.0.10.353	2.0.10.353	07-14-2015	7/14/2015 3:22:22 PM	11:22:22	2.0.10.248	1	NA	NA	NA	NA	NA	NA	NA	NA	NA	NA	NA	NA	NA	1	1	1	NA	NA	NA	NA	NA	NA	NA	NA	NA	NA	NA	MapBlockProc	MapBlockList	NA	7	{RIGHTARROW}	-100	NA	1515	NA	2	1	7	0	16	398688	1516	0	{RIGHTARROW}	0	0	400704	1716	NA	0	0	NA	NA	NA	NA	NA	NA	MapTrialProc	MapTrialList	NA	NA	NA	NA	NA	NA	NA	NA	NA	NA	NA	NA	NA	NA	NA	NA	NA	NA	right	NA	R.bmp	354	NA	NA	NA	NA	NA	NA	NA	NA	NA	NA	NA	NA	NA	NA	NA	NA	NA	NA	NA	NA	NA
Arrow Flanker 2014	12417	1	"<?xml version=""1.0""?>\n<Clock xmlns:dt=""urn:schemas-microsoft-com:datatypes""><Description dt:dt=""string"">E-Prime Primary Realtime Clock</Description><StartTime><Timestamp dt:dt=""int"">0</Timestamp><DateUtc dt:dt=""string"">2015-07-14T15:22:22Z</DateUtc></StartTime><FrequencyChanges><FrequencyChange><Frequency dt:dt=""r8"">2825703</Frequency><Timestamp dt:dt=""r8"">8381909281289</Timestamp><Current dt:dt=""r8"">0</Current><DateUtc dt:dt=""string"">2015-07-14T15:22:22Z</DateUtc></FrequencyChange></FrequencyChanges></Clock>\n"	Arrow Flanker 2014-12417-1	60.019	1.0.0.98	1	-1866323318	Professional	2.0.10.353	2.0.10.353	07-14-2015	7/14/2015 3:22:22 PM	11:22:22	2.0.10.248	1	NA	NA	NA	NA	NA	NA	NA	NA	NA	NA	NA	NA	NA	1	1	1	NA	NA	NA	NA	NA	NA	NA	NA	NA	NA	NA	MapBlockProc	MapBlockList	NA	8	{LEFTARROW}	-100	NA	698	NA	1	1	8	0	16	403936	700	0	{LEFTARROW}	0	0	405136	1716	NA	0	0	NA	NA	NA	NA	NA	NA	MapTrialProc	MapTrialList	NA	NA	NA	NA	NA	NA	NA	NA	NA	NA	NA	NA	NA	NA	NA	NA	NA	NA	left	NA	L.bmp	354	NA	NA	NA	NA	NA	NA	NA	NA	NA	NA	NA	NA	NA	NA	NA	NA	NA	NA	NA	NA	NA
Arrow Flanker 2014	12417	1	"<?xml version=""1.0""?>\n<Clock xmlns:dt=""urn:schemas-microsoft-com:datatypes""><Description dt:dt=""string"">E-Prime Primary Realtime Clock</Description><StartTime><Timestamp dt:dt=""int"">0</Timestamp><DateUtc dt:dt=""string"">2015-07-14T15:22:22Z</DateUtc></StartTime><FrequencyChanges><FrequencyChange><Frequency dt:dt=""r8"">2825703</Frequency><Timestamp dt:dt=""r8"">8381909281289</Timestamp><Current dt:dt=""r8"">0</Current><DateUtc dt:dt=""string"">2015-07-14T15:22:22Z</DateUtc></FrequencyChange></FrequencyChanges></Clock>\n"	Arrow Flanker 2014-12417-1	60.019	1.0.0.98	1	-1866323318	Professional	2.0.10.353	2.0.10.353	07-14-2015	7/14/2015 3:22:22 PM	11:22:22	2.0.10.248	1	NA	NA	NA	NA	NA	NA	NA	NA	NA	NA	NA	NA	NA	1	1	1	NA	NA	NA	NA	NA	NA	NA	NA	NA	NA	NA	MapBlockProc	MapBlockList	NA	9	{LEFTARROW}	-100	NA	1342	NA	1	1	9	0	16	408368	1350	1	{LEFTARROW}	-999999	0	410218	0	{LEFTARROW}	294	410512	NA	NA	NA	NA	NA	NA	MapTrialProc	MapTrialList	NA	NA	NA	NA	NA	NA	NA	NA	NA	NA	NA	NA	NA	NA	NA	NA	NA	NA	left	NA	L.bmp	354	NA	NA	NA	NA	NA	NA	NA	NA	NA	NA	NA	NA	NA	NA	NA	NA	NA	NA	NA	NA	NA
Arrow Flanker 2014	12417	1	"<?xml version=""1.0""?>\n<Clock xmlns:dt=""urn:schemas-microsoft-com:datatypes""><Description dt:dt=""string"">E-Prime Primary Realtime Clock</Description><StartTime><Timestamp dt:dt=""int"">0</Timestamp><DateUtc dt:dt=""string"">2015-07-14T15:22:22Z</DateUtc></StartTime><FrequencyChanges><FrequencyChange><Frequency dt:dt=""r8"">2825703</Frequency><Timestamp dt:dt=""r8"">8381909281289</Timestamp><Current dt:dt=""r8"">0</Current><DateUtc dt:dt=""string"">2015-07-14T15:22:22Z</DateUtc></FrequencyChange></FrequencyChanges></Clock>\n"	Arrow Flanker 2014-12417-1	60.019	1.0.0.98	1	-1866323318	Professional	2.0.10.353	2.0.10.353	07-14-2015	7/14/2015 3:22:22 PM	11:22:22	2.0.10.248	1	NA	NA	NA	NA	NA	NA	NA	NA	NA	NA	NA	NA	NA	1	1	1	NA	NA	NA	NA	NA	NA	NA	NA	NA	NA	NA	MapBlockProc	MapBlockList	NA	10	{RIGHTARROW}	-100	NA	650	NA	2	1	10	0	16	412050	650	1	{RIGHTARROW}	-999999	0	413200	0	{RIGHTARROW}	1103	414303	NA	NA	NA	NA	NA	NA	MapTrialProc	MapTrialList	NA	NA	NA	NA	NA	NA	NA	NA	NA	NA	NA	NA	NA	NA	NA	NA	NA	NA	right	NA	R.bmp	354	NA	NA	NA	NA	NA	NA	NA	NA	NA	NA	NA	NA	NA	NA	NA	NA	NA	NA	NA	NA	NA
Arrow Flanker 2014	12417	1	"<?xml version=""1.0""?>\n<Clock xmlns:dt=""urn:schemas-microsoft-com:datatypes""><Description dt:dt=""string"">E-Prime Primary Realtime Clock</Description><StartTime><Timestamp dt:dt=""int"">0</Timestamp><DateUtc dt:dt=""string"">2015-07-14T15:22:22Z</DateUtc></StartTime><FrequencyChanges><FrequencyChange><Frequency dt:dt=""r8"">2825703</Frequency><Timestamp dt:dt=""r8"">8381909281289</Timestamp><Current dt:dt=""r8"">0</Current><DateUtc dt:dt=""string"">2015-07-14T15:22:22Z</DateUtc></FrequencyChange></FrequencyChanges></Clock>\n"	Arrow Flanker 2014-12417-1	60.019	1.0.0.98	1	-1866323318	Professional	2.0.10.353	2.0.10.353	07-14-2015	7/14/2015 3:22:22 PM	11:22:22	2.0.10.248	2	NA	NA	NA	NA	NA	NA	NA	NA	NA	NA	NA	NA	NA	NA	NA	NA	NA	NA	NA	NA	NA	NA	NA	NA	1	1	1	PracBlockProc	PracBlockList	NA	1	{LEFTARROW}	-100	NA	1010	neutral	NA	NA	NA	0	6	443091	1016	1	{LEFTARROW}	-999999	0	444607	0	{LEFTARROW}	654	445261	NA	3	1	1	NA	NA	PracTrialProc	PracTrialList	NA	NA	NA	NA	NA	NA	NA	NA	NA	NA	NA	NA	NA	NA	NA	NA	NA	NA	left	NA	ooloo.bmp	354	NA	NA	NA	NA	NA	NA	NA	NA	NA	NA	NA	NA	NA	NA	NA	NA	NA	NA	NA	NA	NA
Arrow Flanker 2014	12417	1	"<?xml version=""1.0""?>\n<Clock xmlns:dt=""urn:schemas-microsoft-com:datatypes""><Description dt:dt=""string"">E-Prime Primary Realtime Clock</Description><StartTime><Timestamp dt:dt=""int"">0</Timestamp><DateUtc dt:dt=""string"">2015-07-14T15:22:22Z</DateUtc></StartTime><FrequencyChanges><FrequencyChange><Frequency dt:dt=""r8"">2825703</Frequency><Timestamp dt:dt=""r8"">8381909281289</Timestamp><Current dt:dt=""r8"">0</Current><DateUtc dt:dt=""string"">2015-07-14T15:22:22Z</DateUtc></FrequencyChange></FrequencyChanges></Clock>\n"	Arrow Flanker 2014-12417-1	60.019	1.0.0.98	1	-1866323318	Professional	2.0.10.353	2.0.10.353	07-14-2015	7/14/2015 3:22:22 PM	11:22:22	2.0.10.248	2	NA	NA	NA	NA	NA	NA	NA	NA	NA	NA	NA	NA	NA	NA	NA	NA	NA	NA	NA	NA	NA	NA	NA	NA	1	1	1	PracBlockProc	PracBlockList	NA	2	{RIGHTARROW}	-100	NA	1546	congruent	NA	NA	NA	0	16	446789	1550	1	{RIGHTARROW}	-999999	0	448839	0	{RIGHTARROW}	758	449597	NA	4	1	2	NA	NA	PracTrialProc	PracTrialList	NA	NA	NA	NA	NA	NA	NA	NA	NA	NA	NA	NA	NA	NA	NA	NA	NA	NA	right	NA	rrrrr.bmp	354	NA	NA	NA	NA	NA	NA	NA	NA	NA	NA	NA	NA	NA	NA	NA	NA	NA	NA	NA	NA	NA
Arrow Flanker 2014	12417	1	"<?xml version=""1.0""?>\n<Clock xmlns:dt=""urn:schemas-microsoft-com:datatypes""><Description dt:dt=""string"">E-Prime Primary Realtime Clock</Description><StartTime><Timestamp dt:dt=""int"">0</Timestamp><DateUtc dt:dt=""string"">2015-07-14T15:22:22Z</DateUtc></StartTime><FrequencyChanges><FrequencyChange><Frequency dt:dt=""r8"">2825703</Frequency><Timestamp dt:dt=""r8"">8381909281289</Timestamp><Current dt:dt=""r8"">0</Current><DateUtc dt:dt=""string"">2015-07-14T15:22:22Z</DateUtc></FrequencyChange></FrequencyChanges></Clock>\n"	Arrow Flanker 2014-12417-1	60.019	1.0.0.98	1	-1866323318	Professional	2.0.10.353	2.0.10.353	07-14-2015	7/14/2015 3:22:22 PM	11:22:22	2.0.10.248	2	NA	NA	NA	NA	NA	NA	NA	NA	NA	NA	NA	NA	NA	NA	NA	NA	NA	NA	NA	NA	NA	NA	NA	NA	1	1	1	PracBlockProc	PracBlockList	NA	3	{RIGHTARROW}	-100	NA	1563	neutral	NA	NA	NA	0	16	451138	1566	1	{RIGHTARROW}	-999999	0	453204	0	{RIGHTARROW}	960	454164	NA	6	1	3	NA	NA	PracTrialProc	PracTrialList	NA	NA	NA	NA	NA	NA	NA	NA	NA	NA	NA	NA	NA	NA	NA	NA	NA	NA	right	NA	ooroo.bmp	354	NA	NA	NA	NA	NA	NA	NA	NA	NA	NA	NA	NA	NA	NA	NA	NA	NA	NA	NA	NA	NA
Arrow Flanker 2014	12417	1	"<?xml version=""1.0""?>\n<Clock xmlns:dt=""urn:schemas-microsoft-com:datatypes""><Description dt:dt=""string"">E-Prime Primary Realtime Clock</Description><StartTime><Timestamp dt:dt=""int"">0</Timestamp><DateUtc dt:dt=""string"">2015-07-14T15:22:22Z</DateUtc></StartTime><FrequencyChanges><FrequencyChange><Frequency dt:dt=""r8"">2825703</Frequency><Timestamp dt:dt=""r8"">8381909281289</Timestamp><Current dt:dt=""r8"">0</Current><DateUtc dt:dt=""string"">2015-07-14T15:22:22Z</DateUtc></FrequencyChange></FrequencyChanges></Clock>\n"	Arrow Flanker 2014-12417-1	60.019	1.0.0.98	1	-1866323318	Professional	2.0.10.353	2.0.10.353	07-14-2015	7/14/2015 3:22:22 PM	11:22:22	2.0.10.248	2	NA	NA	NA	NA	NA	NA	NA	NA	NA	NA	NA	NA	NA	NA	NA	NA	NA	NA	NA	NA	NA	NA	NA	NA	1	1	1	PracBlockProc	PracBlockList	NA	4	{LEFTARROW}	-100	NA	1356	incongruent	NA	NA	NA	0	16	455703	1367	0	{LEFTARROW}	-999999	16	457586	0	{RIGHTARROW}	546	458132	NA	2	1	4	NA	NA	PracTrialProc	PracTrialList	NA	NA	NA	NA	NA	NA	NA	NA	NA	NA	NA	NA	NA	NA	NA	NA	NA	NA	left	NA	rrlrr.bmp	354	NA	NA	NA	NA	NA	NA	NA	NA	NA	NA	NA	NA	NA	NA	NA	NA	NA	NA	NA	NA	NA
Arrow Flanker 2014	12417	1	"<?xml version=""1.0""?>\n<Clock xmlns:dt=""urn:schemas-microsoft-com:datatypes""><Description dt:dt=""string"">E-Prime Primary Realtime Clock</Description><StartTime><Timestamp dt:dt=""int"">0</Timestamp><DateUtc dt:dt=""string"">2015-07-14T15:22:22Z</DateUtc></StartTime><FrequencyChanges><FrequencyChange><Frequency dt:dt=""r8"">2825703</Frequency><Timestamp dt:dt=""r8"">8381909281289</Timestamp><Current dt:dt=""r8"">0</Current><DateUtc dt:dt=""string"">2015-07-14T15:22:22Z</DateUtc></FrequencyChange></FrequencyChanges></Clock>\n"	Arrow Flanker 2014-12417-1	60.019	1.0.0.98	1	-1866323318	Professional	2.0.10.353	2.0.10.353	07-14-2015	7/14/2015 3:22:22 PM	11:22:22	2.0.10.248	2	NA	NA	NA	NA	NA	NA	NA	NA	NA	NA	NA	NA	NA	NA	NA	NA	NA	NA	NA	NA	NA	NA	NA	NA	1	1	1	PracBlockProc	PracBlockList	NA	5	{LEFTARROW}	-100	NA	1030	congruent	NA	NA	NA	0	16	459669	1033	1	{LEFTARROW}	-999999	0	461202	0	{LEFTARROW}	730	461932	NA	1	1	5	NA	NA	PracTrialProc	PracTrialList	NA	NA	NA	NA	NA	NA	NA	NA	NA	NA	NA	NA	NA	NA	NA	NA	NA	NA	left	NA	lllll.bmp	354	NA	NA	NA	NA	NA	NA	NA	NA	NA	NA	NA	NA	NA	NA	NA	NA	NA	NA	NA	NA	NA
Arrow Flanker 2014	12417	1	"<?xml version=""1.0""?>\n<Clock xmlns:dt=""urn:schemas-microsoft-com:datatypes""><Description dt:dt=""string"">E-Prime Primary Realtime Clock</Description><StartTime><Timestamp dt:dt=""int"">0</Timestamp><DateUtc dt:dt=""string"">2015-07-14T15:22:22Z</DateUtc></StartTime><FrequencyChanges><FrequencyChange><Frequency dt:dt=""r8"">2825703</Frequency><Timestamp dt:dt=""r8"">8381909281289</Timestamp><Current dt:dt=""r8"">0</Current><DateUtc dt:dt=""string"">2015-07-14T15:22:22Z</DateUtc></FrequencyChange></FrequencyChanges></Clock>\n"	Arrow Flanker 2014-12417-1	60.019	1.0.0.98	1	-1866323318	Professional	2.0.10.353	2.0.10.353	07-14-2015	7/14/2015 3:22:22 PM	11:22:22	2.0.10.248	2	NA	NA	NA	NA	NA	NA	NA	NA	NA	NA	NA	NA	NA	NA	NA	NA	NA	NA	NA	NA	NA	NA	NA	NA	1	1	1	PracBlockProc	PracBlockList	NA	6	{RIGHTARROW}	-100	NA	703	incongruent	NA	NA	NA	0	17	463468	716	0	{RIGHTARROW}	0	0	464684	0	{LEFTARROW}	1640	466324	NA	5	1	6	NA	NA	PracTrialProc	PracTrialList	NA	NA	NA	NA	NA	NA	NA	NA	NA	NA	NA	NA	NA	NA	NA	NA	NA	NA	right	NA	llrll.bmp	354	NA	NA	NA	NA	NA	NA	NA	NA	NA	NA	NA	NA	NA	NA	NA	NA	NA	NA	NA	NA	NA
Arrow Flanker 2014	12417	1	"<?xml version=""1.0""?>\n<Clock xmlns:dt=""urn:schemas-microsoft-com:datatypes""><Description dt:dt=""string"">E-Prime Primary Realtime Clock</Description><StartTime><Timestamp dt:dt=""int"">0</Timestamp><DateUtc dt:dt=""string"">2015-07-14T15:22:22Z</DateUtc></StartTime><FrequencyChanges><FrequencyChange><Frequency dt:dt=""r8"">2825703</Frequency><Timestamp dt:dt=""r8"">8381909281289</Timestamp><Current dt:dt=""r8"">0</Current><DateUtc dt:dt=""string"">2015-07-14T15:22:22Z</DateUtc></FrequencyChange></FrequencyChanges></Clock>\n"	Arrow Flanker 2014-12417-1	60.019	1.0.0.98	1	-1866323318	Professional	2.0.10.353	2.0.10.353	07-14-2015	7/14/2015 3:22:22 PM	11:22:22	2.0.10.248	3	NA	NA	NA	NA	NA	NA	NA	NA	NA	NA	NA	NA	NA	NA	NA	NA	NA	NA	NA	NA	NA	NA	NA	NA	1	2	2	PracBlockProc	PracBlockList	NA	1	{LEFTARROW}	-100	NA	1123	congruent	NA	NA	NA	0	20	470615	1133	1	{LEFTARROW}	-999999	0	472248	0	{LEFTARROW}	659	472907	NA	1	2	7	NA	NA	PracTrialProc	PracTrialList	NA	NA	NA	NA	NA	NA	NA	NA	NA	NA	NA	NA	NA	NA	NA	NA	NA	NA	left	NA	lllll.bmp	354	NA	NA	NA	NA	NA	NA	NA	NA	NA	NA	NA	NA	NA	NA	NA	NA	NA	NA	NA	NA	NA
Arrow Flanker 2014	12417	1	"<?xml version=""1.0""?>\n<Clock xmlns:dt=""urn:schemas-microsoft-com:datatypes""><Description dt:dt=""string"">E-Prime Primary Realtime Clock</Description><StartTime><Timestamp dt:dt=""int"">0</Timestamp><DateUtc dt:dt=""string"">2015-07-14T15:22:22Z</DateUtc></StartTime><FrequencyChanges><FrequencyChange><Frequency dt:dt=""r8"">2825703</Frequency><Timestamp dt:dt=""r8"">8381909281289</Timestamp><Current dt:dt=""r8"">0</Current><DateUtc dt:dt=""string"">2015-07-14T15:22:22Z</DateUtc></FrequencyChange></FrequencyChanges></Clock>\n"	Arrow Flanker 2014-12417-1	60.019	1.0.0.98	1	-1866323318	Professional	2.0.10.353	2.0.10.353	07-14-2015	7/14/2015 3:22:22 PM	11:22:22	2.0.10.248	3	NA	NA	NA	NA	NA	NA	NA	NA	NA	NA	NA	NA	NA	NA	NA	NA	NA	NA	NA	NA	NA	NA	NA	NA	1	2	2	PracBlockProc	PracBlockList	NA	2	{LEFTARROW}	-100	NA	1041	incongruent	NA	NA	NA	0	17	474448	1049	1	{LEFTARROW}	-999999	0	475997	0	{LEFTARROW}	1190	477187	NA	2	2	8	NA	NA	PracTrialProc	PracTrialList	NA	NA	NA	NA	NA	NA	NA	NA	NA	NA	NA	NA	NA	NA	NA	NA	NA	NA	left	NA	rrlrr.bmp	354	NA	NA	NA	NA	NA	NA	NA	NA	NA	NA	NA	NA	NA	NA	NA	NA	NA	NA	NA	NA	NA
Arrow Flanker 2014	12417	1	"<?xml version=""1.0""?>\n<Clock xmlns:dt=""urn:schemas-microsoft-com:datatypes""><Description dt:dt=""string"">E-Prime Primary Realtime Clock</Description><StartTime><Timestamp dt:dt=""int"">0</Timestamp><DateUtc dt:dt=""string"">2015-07-14T15:22:22Z</DateUtc></StartTime><FrequencyChanges><FrequencyChange><Frequency dt:dt=""r8"">2825703</Frequency><Timestamp dt:dt=""r8"">8381909281289</Timestamp><Current dt:dt=""r8"">0</Current><DateUtc dt:dt=""string"">2015-07-14T15:22:22Z</DateUtc></FrequencyChange></FrequencyChanges></Clock>\n"	Arrow Flanker 2014-12417-1	60.019	1.0.0.98	1	-1866323318	Professional	2.0.10.353	2.0.10.353	07-14-2015	7/14/2015 3:22:22 PM	11:22:22	2.0.10.248	3	NA	NA	NA	NA	NA	NA	NA	NA	NA	NA	NA	NA	NA	NA	NA	NA	NA	NA	NA	NA	NA	NA	NA	NA	1	2	2	PracBlockProc	PracBlockList	NA	3	{LEFTARROW}	-100	NA	654	neutral	NA	NA	NA	0	16	478713	666	0	{LEFTARROW}	-999999	0	479879	0	{RIGHTARROW}	820	480699	NA	3	2	9	NA	NA	PracTrialProc	PracTrialList	NA	NA	NA	NA	NA	NA	NA	NA	NA	NA	NA	NA	NA	NA	NA	NA	NA	NA	left	NA	ooloo.bmp	354	NA	NA	NA	NA	NA	NA	NA	NA	NA	NA	NA	NA	NA	NA	NA	NA	NA	NA	NA	NA	NA
Arrow Flanker 2014	12417	1	"<?xml version=""1.0""?>\n<Clock xmlns:dt=""urn:schemas-microsoft-com:datatypes""><Description dt:dt=""string"">E-Prime Primary Realtime Clock</Description><StartTime><Timestamp dt:dt=""int"">0</Timestamp><DateUtc dt:dt=""string"">2015-07-14T15:22:22Z</DateUtc></StartTime><FrequencyChanges><FrequencyChange><Frequency dt:dt=""r8"">2825703</Frequency><Timestamp dt:dt=""r8"">8381909281289</Timestamp><Current dt:dt=""r8"">0</Current><DateUtc dt:dt=""string"">2015-07-14T15:22:22Z</DateUtc></FrequencyChange></FrequencyChanges></Clock>\n"	Arrow Flanker 2014-12417-1	60.019	1.0.0.98	1	-1866323318	Professional	2.0.10.353	2.0.10.353	07-14-2015	7/14/2015 3:22:22 PM	11:22:22	2.0.10.248	3	NA	NA	NA	NA	NA	NA	NA	NA	NA	NA	NA	NA	NA	NA	NA	NA	NA	NA	NA	NA	NA	NA	NA	NA	1	2	2	PracBlockProc	PracBlockList	NA	4	{RIGHTARROW}	-100	NA	489	incongruent	NA	NA	NA	0	16	482228	500	1	{RIGHTARROW}	-999999	0	483228	0	{RIGHTARROW}	1350	484578	NA	5	2	10	NA	NA	PracTrialProc	PracTrialList	NA	NA	NA	NA	NA	NA	NA	NA	NA	NA	NA	NA	NA	NA	NA	NA	NA	NA	right	NA	llrll.bmp	354	NA	NA	NA	NA	NA	NA	NA	NA	NA	NA	NA	NA	NA	NA	NA	NA	NA	NA	NA	NA	NA
Arrow Flanker 2014	12417	1	"<?xml version=""1.0""?>\n<Clock xmlns:dt=""urn:schemas-microsoft-com:datatypes""><Description dt:dt=""string"">E-Prime Primary Realtime Clock</Description><StartTime><Timestamp dt:dt=""int"">0</Timestamp><DateUtc dt:dt=""string"">2015-07-14T15:22:22Z</DateUtc></StartTime><FrequencyChanges><FrequencyChange><Frequency dt:dt=""r8"">2825703</Frequency><Timestamp dt:dt=""r8"">8381909281289</Timestamp><Current dt:dt=""r8"">0</Current><DateUtc dt:dt=""string"">2015-07-14T15:22:22Z</DateUtc></FrequencyChange></FrequencyChanges></Clock>\n"	Arrow Flanker 2014-12417-1	60.019	1.0.0.98	1	-1866323318	Professional	2.0.10.353	2.0.10.353	07-14-2015	7/14/2015 3:22:22 PM	11:22:22	2.0.10.248	3	NA	NA	NA	NA	NA	NA	NA	NA	NA	NA	NA	NA	NA	NA	NA	NA	NA	NA	NA	NA	NA	NA	NA	NA	1	2	2	PracBlockProc	PracBlockList	NA	5	{RIGHTARROW}	-100	NA	895	neutral	NA	NA	NA	0	17	486111	899	1	{RIGHTARROW}	0	0	487510	0	{RIGHTARROW}	1636	489146	NA	6	2	11	NA	NA	PracTrialProc	PracTrialList	NA	NA	NA	NA	NA	NA	NA	NA	NA	NA	NA	NA	NA	NA	NA	NA	NA	NA	right	NA	ooroo.bmp	354	NA	NA	NA	NA	NA	NA	NA	NA	NA	NA	NA	NA	NA	NA	NA	NA	NA	NA	NA	NA	NA
Arrow Flanker 2014	12417	1	"<?xml version=""1.0""?>\n<Clock xmlns:dt=""urn:schemas-microsoft-com:datatypes""><Description dt:dt=""string"">E-Prime Primary Realtime Clock</Description><StartTime><Timestamp dt:dt=""int"">0</Timestamp><DateUtc dt:dt=""string"">2015-07-14T15:22:22Z</DateUtc></StartTime><FrequencyChanges><FrequencyChange><Frequency dt:dt=""r8"">2825703</Frequency><Timestamp dt:dt=""r8"">8381909281289</Timestamp><Current dt:dt=""r8"">0</Current><DateUtc dt:dt=""string"">2015-07-14T15:22:22Z</DateUtc></FrequencyChange></FrequencyChanges></Clock>\n"	Arrow Flanker 2014-12417-1	60.019	1.0.0.98	1	-1866323318	Professional	2.0.10.353	2.0.10.353	07-14-2015	7/14/2015 3:22:22 PM	11:22:22	2.0.10.248	3	NA	NA	NA	NA	NA	NA	NA	NA	NA	NA	NA	NA	NA	NA	NA	NA	NA	NA	NA	NA	NA	NA	NA	NA	1	2	2	PracBlockProc	PracBlockList	NA	6	{RIGHTARROW}	-100	NA	1135	congruent	NA	NA	NA	0	16	490676	1149	1	{RIGHTARROW}	-999999	0	492325	0	{RIGHTARROW}	780	493105	NA	4	2	12	NA	NA	PracTrialProc	PracTrialList	NA	NA	NA	NA	NA	NA	NA	NA	NA	NA	NA	NA	NA	NA	NA	NA	NA	NA	right	NA	rrrrr.bmp	354	NA	NA	NA	NA	NA	NA	NA	NA	NA	NA	NA	NA	NA	NA	NA	NA	NA	NA	NA	NA	NA
Arrow Flanker 2014	12417	1	"<?xml version=""1.0""?>\n<Clock xmlns:dt=""urn:schemas-microsoft-com:datatypes""><Description dt:dt=""string"">E-Prime Primary Realtime Clock</Description><StartTime><Timestamp dt:dt=""int"">0</Timestamp><DateUtc dt:dt=""string"">2015-07-14T15:22:22Z</DateUtc></StartTime><FrequencyChanges><FrequencyChange><Frequency dt:dt=""r8"">2825703</Frequency><Timestamp dt:dt=""r8"">8381909281289</Timestamp><Current dt:dt=""r8"">0</Current><DateUtc dt:dt=""string"">2015-07-14T15:22:22Z</DateUtc></FrequencyChange></FrequencyChanges></Clock>\n"	Arrow Flanker 2014-12417-1	60.019	1.0.0.98	1	-1866323318	Professional	2.0.10.353	2.0.10.353	07-14-2015	7/14/2015 3:22:22 PM	11:22:22	2.0.10.248	4	NA	NA	NA	NA	NA	NA	NA	NA	NA	NA	NA	NA	NA	NA	NA	NA	NA	NA	NA	NA	NA	NA	NA	NA	1	3	3	PracBlockProc	PracBlockList	NA	1	{LEFTARROW}	-100	NA	1289	neutral	NA	NA	NA	0	16	509553	1300	1	{LEFTARROW}	-999999	0	511353	0	{LEFTARROW}	1119	512472	NA	3	3	13	NA	NA	PracTrialProc	PracTrialList	NA	NA	NA	NA	NA	NA	NA	NA	NA	NA	NA	NA	NA	NA	NA	NA	NA	NA	left	NA	ooloo.bmp	354	NA	NA	NA	NA	NA	NA	NA	NA	NA	NA	NA	NA	NA	NA	NA	NA	NA	NA	NA	NA	NA
Arrow Flanker 2014	12417	1	"<?xml version=""1.0""?>\n<Clock xmlns:dt=""urn:schemas-microsoft-com:datatypes""><Description dt:dt=""string"">E-Prime Primary Realtime Clock</Description><StartTime><Timestamp dt:dt=""int"">0</Timestamp><DateUtc dt:dt=""string"">2015-07-14T15:22:22Z</DateUtc></StartTime><FrequencyChanges><FrequencyChange><Frequency dt:dt=""r8"">2825703</Frequency><Timestamp dt:dt=""r8"">8381909281289</Timestamp><Current dt:dt=""r8"">0</Current><DateUtc dt:dt=""string"">2015-07-14T15:22:22Z</DateUtc></FrequencyChange></FrequencyChanges></Clock>\n"	Arrow Flanker 2014-12417-1	60.019	1.0.0.98	1	-1866323318	Professional	2.0.10.353	2.0.10.353	07-14-2015	7/14/2015 3:22:22 PM	11:22:22	2.0.10.248	4	NA	NA	NA	NA	NA	NA	NA	NA	NA	NA	NA	NA	NA	NA	NA	NA	NA	NA	NA	NA	NA	NA	NA	NA	1	3	3	PracBlockProc	PracBlockList	NA	2	{LEFTARROW}	-100	NA	1289	congruent	NA	NA	NA	0	16	514002	1299	1	{LEFTARROW}	-999999	0	515801	0	{LEFTARROW}	911	516712	NA	1	3	14	NA	NA	PracTrialProc	PracTrialList	NA	NA	NA	NA	NA	NA	NA	NA	NA	NA	NA	NA	NA	NA	NA	NA	NA	NA	left	NA	lllll.bmp	354	NA	NA	NA	NA	NA	NA	NA	NA	NA	NA	NA	NA	NA	NA	NA	NA	NA	NA	NA	NA	NA
Arrow Flanker 2014	12417	1	"<?xml version=""1.0""?>\n<Clock xmlns:dt=""urn:schemas-microsoft-com:datatypes""><Description dt:dt=""string"">E-Prime Primary Realtime Clock</Description><StartTime><Timestamp dt:dt=""int"">0</Timestamp><DateUtc dt:dt=""string"">2015-07-14T15:22:22Z</DateUtc></StartTime><FrequencyChanges><FrequencyChange><Frequency dt:dt=""r8"">2825703</Frequency><Timestamp dt:dt=""r8"">8381909281289</Timestamp><Current dt:dt=""r8"">0</Current><DateUtc dt:dt=""string"">2015-07-14T15:22:22Z</DateUtc></FrequencyChange></FrequencyChanges></Clock>\n"	Arrow Flanker 2014-12417-1	60.019	1.0.0.98	1	-1866323318	Professional	2.0.10.353	2.0.10.353	07-14-2015	7/14/2015 3:22:22 PM	11:22:22	2.0.10.248	4	NA	NA	NA	NA	NA	NA	NA	NA	NA	NA	NA	NA	NA	NA	NA	NA	NA	NA	NA	NA	NA	NA	NA	NA	1	3	3	PracBlockProc	PracBlockList	NA	3	{LEFTARROW}	-100	NA	500	incongruent	NA	NA	NA	0	16	518250	500	0	{LEFTARROW}	-999999	0	519250	0	{RIGHTARROW}	1373	520623	NA	2	3	15	NA	NA	PracTrialProc	PracTrialList	NA	NA	NA	NA	NA	NA	NA	NA	NA	NA	NA	NA	NA	NA	NA	NA	NA	NA	left	NA	rrlrr.bmp	354	NA	NA	NA	NA	NA	NA	NA	NA	NA	NA	NA	NA	NA	NA	NA	NA	NA	NA	NA	NA	NA
Arrow Flanker 2014	12417	1	"<?xml version=""1.0""?>\n<Clock xmlns:dt=""urn:schemas-microsoft-com:datatypes""><Description dt:dt=""string"">E-Prime Primary Realtime Clock</Description><StartTime><Timestamp dt:dt=""int"">0</Timestamp><DateUtc dt:dt=""string"">2015-07-14T15:22:22Z</DateUtc></StartTime><FrequencyChanges><FrequencyChange><Frequency dt:dt=""r8"">2825703</Frequency><Timestamp dt:dt=""r8"">8381909281289</Timestamp><Current dt:dt=""r8"">0</Current><DateUtc dt:dt=""string"">2015-07-14T15:22:22Z</DateUtc></FrequencyChange></FrequencyChanges></Clock>\n"	Arrow Flanker 2014-12417-1	60.019	1.0.0.98	1	-1866323318	Professional	2.0.10.353	2.0.10.353	07-14-2015	7/14/2015 3:22:22 PM	11:22:22	2.0.10.248	4	NA	NA	NA	NA	NA	NA	NA	NA	NA	NA	NA	NA	NA	NA	NA	NA	NA	NA	NA	NA	NA	NA	NA	NA	1	3	3	PracBlockProc	PracBlockList	NA	4	{RIGHTARROW}	-100	NA	861	incongruent	NA	NA	NA	0	16	522166	866	0	{RIGHTARROW}	-999999	0	523532	0	{LEFTARROW}	1339	524871	NA	5	3	16	NA	NA	PracTrialProc	PracTrialList	NA	NA	NA	NA	NA	NA	NA	NA	NA	NA	NA	NA	NA	NA	NA	NA	NA	NA	right	NA	llrll.bmp	354	NA	NA	NA	NA	NA	NA	NA	NA	NA	NA	NA	NA	NA	NA	NA	NA	NA	NA	NA	NA	NA
Arrow Flanker 2014	12417	1	"<?xml version=""1.0""?>\n<Clock xmlns:dt=""urn:schemas-microsoft-com:datatypes""><Description dt:dt=""string"">E-Prime Primary Realtime Clock</Description><StartTime><Timestamp dt:dt=""int"">0</Timestamp><DateUtc dt:dt=""string"">2015-07-14T15:22:22Z</DateUtc></StartTime><FrequencyChanges><FrequencyChange><Frequency dt:dt=""r8"">2825703</Frequency><Timestamp dt:dt=""r8"">8381909281289</Timestamp><Current dt:dt=""r8"">0</Current><DateUtc dt:dt=""string"">2015-07-14T15:22:22Z</DateUtc></FrequencyChange></FrequencyChanges></Clock>\n"	Arrow Flanker 2014-12417-1	60.019	1.0.0.98	1	-1866323318	Professional	2.0.10.353	2.0.10.353	07-14-2015	7/14/2015 3:22:22 PM	11:22:22	2.0.10.248	4	NA	NA	NA	NA	NA	NA	NA	NA	NA	NA	NA	NA	NA	NA	NA	NA	NA	NA	NA	NA	NA	NA	NA	NA	1	3	3	PracBlockProc	PracBlockList	NA	5	{RIGHTARROW}	-100	NA	667	congruent	NA	NA	NA	0	16	526398	0	1	{RIGHTARROW}	-999999	0	527581	0	{RIGHTARROW}	746	528327	NA	4	3	17	NA	NA	PracTrialProc	PracTrialList	NA	NA	NA	NA	NA	NA	NA	NA	NA	NA	NA	NA	NA	NA	NA	NA	NA	NA	right	NA	rrrrr.bmp	354	NA	NA	NA	NA	NA	NA	NA	NA	NA	NA	NA	NA	NA	NA	NA	NA	NA	NA	NA	NA	NA
Arrow Flanker 2014	12417	1	"<?xml version=""1.0""?>\n<Clock xmlns:dt=""urn:schemas-microsoft-com:datatypes""><Description dt:dt=""string"">E-Prime Primary Realtime Clock</Description><StartTime><Timestamp dt:dt=""int"">0</Timestamp><DateUtc dt:dt=""string"">2015-07-14T15:22:22Z</DateUtc></StartTime><FrequencyChanges><FrequencyChange><Frequency dt:dt=""r8"">2825703</Frequency><Timestamp dt:dt=""r8"">8381909281289</Timestamp><Current dt:dt=""r8"">0</Current><DateUtc dt:dt=""string"">2015-07-14T15:22:22Z</DateUtc></FrequencyChange></FrequencyChanges></Clock>\n"	Arrow Flanker 2014-12417-1	60.019	1.0.0.98	1	-1866323318	Professional	2.0.10.353	2.0.10.353	07-14-2015	7/14/2015 3:22:22 PM	11:22:22	2.0.10.248	4	NA	NA	NA	NA	NA	NA	NA	NA	NA	NA	NA	NA	NA	NA	NA	NA	NA	NA	NA	NA	NA	NA	NA	NA	1	3	3	PracBlockProc	PracBlockList	NA	6	{RIGHTARROW}	-100	NA	1304	neutral	NA	NA	NA	0	16	529863	0	1	{RIGHTARROW}	0	0	531680	0	{RIGHTARROW}	1695	533375	NA	6	3	18	NA	NA	PracTrialProc	PracTrialList	NA	NA	NA	NA	NA	NA	NA	NA	NA	NA	NA	NA	NA	NA	NA	NA	NA	NA	right	NA	ooroo.bmp	354	NA	NA	NA	NA	NA	NA	NA	NA	NA	NA	NA	NA	NA	NA	NA	NA	NA	NA	NA	NA	NA
Arrow Flanker 2014	12417	1	"<?xml version=""1.0""?>\n<Clock xmlns:dt=""urn:schemas-microsoft-com:datatypes""><Description dt:dt=""string"">E-Prime Primary Realtime Clock</Description><StartTime><Timestamp dt:dt=""int"">0</Timestamp><DateUtc dt:dt=""string"">2015-07-14T15:22:22Z</DateUtc></StartTime><FrequencyChanges><FrequencyChange><Frequency dt:dt=""r8"">2825703</Frequency><Timestamp dt:dt=""r8"">8381909281289</Timestamp><Current dt:dt=""r8"">0</Current><DateUtc dt:dt=""string"">2015-07-14T15:22:22Z</DateUtc></FrequencyChange></FrequencyChanges></Clock>\n"	Arrow Flanker 2014-12417-1	60.019	1.0.0.98	1	-1866323318	Professional	2.0.10.353	2.0.10.353	07-14-2015	7/14/2015 3:22:22 PM	11:22:22	2.0.10.248	5	NA	NA	NA	NA	NA	NA	NA	NA	NA	NA	NA	NA	NA	NA	NA	NA	NA	NA	NA	NA	NA	NA	NA	NA	1	4	4	PracBlockProc	PracBlockList	NA	1	{LEFTARROW}	-100	NA	533	neutral	NA	NA	NA	0	14	535628	0	1	{LEFTARROW}	-999999	16	536678	0	{LEFTARROW}	1144	537822	NA	3	4	19	NA	NA	PracTrialProc	PracTrialList	NA	NA	NA	NA	NA	NA	NA	NA	NA	NA	NA	NA	NA	NA	NA	NA	NA	NA	left	NA	ooloo.bmp	354	NA	NA	NA	NA	NA	NA	NA	NA	NA	NA	NA	NA	NA	NA	NA	NA	NA	NA	NA	NA	NA
Arrow Flanker 2014	12417	1	"<?xml version=""1.0""?>\n<Clock xmlns:dt=""urn:schemas-microsoft-com:datatypes""><Description dt:dt=""string"">E-Prime Primary Realtime Clock</Description><StartTime><Timestamp dt:dt=""int"">0</Timestamp><DateUtc dt:dt=""string"">2015-07-14T15:22:22Z</DateUtc></StartTime><FrequencyChanges><FrequencyChange><Frequency dt:dt=""r8"">2825703</Frequency><Timestamp dt:dt=""r8"">8381909281289</Timestamp><Current dt:dt=""r8"">0</Current><DateUtc dt:dt=""string"">2015-07-14T15:22:22Z</DateUtc></FrequencyChange></FrequencyChanges></Clock>\n"	Arrow Flanker 2014-12417-1	60.019	1.0.0.98	1	-1866323318	Professional	2.0.10.353	2.0.10.353	07-14-2015	7/14/2015 3:22:22 PM	11:22:22	2.0.10.248	5	NA	NA	NA	NA	NA	NA	NA	NA	NA	NA	NA	NA	NA	NA	NA	NA	NA	NA	NA	NA	NA	NA	NA	NA	1	4	4	PracBlockProc	PracBlockList	NA	2	{RIGHTARROW}	-100	NA	1234	congruent	NA	NA	NA	0	17	539361	0	1	{RIGHTARROW}	-999999	0	541110	0	{RIGHTARROW}	744	541854	NA	4	4	20	NA	NA	PracTrialProc	PracTrialList	NA	NA	NA	NA	NA	NA	NA	NA	NA	NA	NA	NA	NA	NA	NA	NA	NA	NA	right	NA	rrrrr.bmp	354	NA	NA	NA	NA	NA	NA	NA	NA	NA	NA	NA	NA	NA	NA	NA	NA	NA	NA	NA	NA	NA
Arrow Flanker 2014	12417	1	"<?xml version=""1.0""?>\n<Clock xmlns:dt=""urn:schemas-microsoft-com:datatypes""><Description dt:dt=""string"">E-Prime Primary Realtime Clock</Description><StartTime><Timestamp dt:dt=""int"">0</Timestamp><DateUtc dt:dt=""string"">2015-07-14T15:22:22Z</DateUtc></StartTime><FrequencyChanges><FrequencyChange><Frequency dt:dt=""r8"">2825703</Frequency><Timestamp dt:dt=""r8"">8381909281289</Timestamp><Current dt:dt=""r8"">0</Current><DateUtc dt:dt=""string"">2015-07-14T15:22:22Z</DateUtc></FrequencyChange></FrequencyChanges></Clock>\n"	Arrow Flanker 2014-12417-1	60.019	1.0.0.98	1	-1866323318	Professional	2.0.10.353	2.0.10.353	07-14-2015	7/14/2015 3:22:22 PM	11:22:22	2.0.10.248	5	NA	NA	NA	NA	NA	NA	NA	NA	NA	NA	NA	NA	NA	NA	NA	NA	NA	NA	NA	NA	NA	NA	NA	NA	1	4	4	PracBlockProc	PracBlockList	NA	3	{LEFTARROW}	-100	NA	1252	congruent	NA	NA	NA	0	17	543393	0	1	{LEFTARROW}	-999999	0	545159	0	{LEFTARROW}	431	545590	NA	1	4	21	NA	NA	PracTrialProc	PracTrialList	NA	NA	NA	NA	NA	NA	NA	NA	NA	NA	NA	NA	NA	NA	NA	NA	NA	NA	left	NA	lllll.bmp	354	NA	NA	NA	NA	NA	NA	NA	NA	NA	NA	NA	NA	NA	NA	NA	NA	NA	NA	NA	NA	NA
Arrow Flanker 2014	12417	1	"<?xml version=""1.0""?>\n<Clock xmlns:dt=""urn:schemas-microsoft-com:datatypes""><Description dt:dt=""string"">E-Prime Primary Realtime Clock</Description><StartTime><Timestamp dt:dt=""int"">0</Timestamp><DateUtc dt:dt=""string"">2015-07-14T15:22:22Z</DateUtc></StartTime><FrequencyChanges><FrequencyChange><Frequency dt:dt=""r8"">2825703</Frequency><Timestamp dt:dt=""r8"">8381909281289</Timestamp><Current dt:dt=""r8"">0</Current><DateUtc dt:dt=""string"">2015-07-14T15:22:22Z</DateUtc></FrequencyChange></FrequencyChanges></Clock>\n"	Arrow Flanker 2014-12417-1	60.019	1.0.0.98	1	-1866323318	Professional	2.0.10.353	2.0.10.353	07-14-2015	7/14/2015 3:22:22 PM	11:22:22	2.0.10.248	5	NA	NA	NA	NA	NA	NA	NA	NA	NA	NA	NA	NA	NA	NA	NA	NA	NA	NA	NA	NA	NA	NA	NA	NA	1	4	4	PracBlockProc	PracBlockList	NA	4	{LEFTARROW}	-100	NA	442	incongruent	NA	NA	NA	0	16	547125	0	1	{LEFTARROW}	-999999	16	548091	0	{LEFTARROW}	970	549061	NA	2	4	22	NA	NA	PracTrialProc	PracTrialList	NA	NA	NA	NA	NA	NA	NA	NA	NA	NA	NA	NA	NA	NA	NA	NA	NA	NA	left	NA	rrlrr.bmp	354	NA	NA	NA	NA	NA	NA	NA	NA	NA	NA	NA	NA	NA	NA	NA	NA	NA	NA	NA	NA	NA
Arrow Flanker 2014	12417	1	"<?xml version=""1.0""?>\n<Clock xmlns:dt=""urn:schemas-microsoft-com:datatypes""><Description dt:dt=""string"">E-Prime Primary Realtime Clock</Description><StartTime><Timestamp dt:dt=""int"">0</Timestamp><DateUtc dt:dt=""string"">2015-07-14T15:22:22Z</DateUtc></StartTime><FrequencyChanges><FrequencyChange><Frequency dt:dt=""r8"">2825703</Frequency><Timestamp dt:dt=""r8"">8381909281289</Timestamp><Current dt:dt=""r8"">0</Current><DateUtc dt:dt=""string"">2015-07-14T15:22:22Z</DateUtc></FrequencyChange></FrequencyChanges></Clock>\n"	Arrow Flanker 2014-12417-1	60.019	1.0.0.98	1	-1866323318	Professional	2.0.10.353	2.0.10.353	07-14-2015	7/14/2015 3:22:22 PM	11:22:22	2.0.10.248	5	NA	NA	NA	NA	NA	NA	NA	NA	NA	NA	NA	NA	NA	NA	NA	NA	NA	NA	NA	NA	NA	NA	NA	NA	1	4	4	PracBlockProc	PracBlockList	NA	5	{RIGHTARROW}	-100	NA	446	incongruent	NA	NA	NA	0	16	550590	0	0	{RIGHTARROW}	-999999	0	551540	0	{LEFTARROW}	1089	552629	NA	5	4	23	NA	NA	PracTrialProc	PracTrialList	NA	NA	NA	NA	NA	NA	NA	NA	NA	NA	NA	NA	NA	NA	NA	NA	NA	NA	right	NA	llrll.bmp	354	NA	NA	NA	NA	NA	NA	NA	NA	NA	NA	NA	NA	NA	NA	NA	NA	NA	NA	NA	NA	NA
Arrow Flanker 2014	12417	1	"<?xml version=""1.0""?>\n<Clock xmlns:dt=""urn:schemas-microsoft-com:datatypes""><Description dt:dt=""string"">E-Prime Primary Realtime Clock</Description><StartTime><Timestamp dt:dt=""int"">0</Timestamp><DateUtc dt:dt=""string"">2015-07-14T15:22:22Z</DateUtc></StartTime><FrequencyChanges><FrequencyChange><Frequency dt:dt=""r8"">2825703</Frequency><Timestamp dt:dt=""r8"">8381909281289</Timestamp><Current dt:dt=""r8"">0</Current><DateUtc dt:dt=""string"">2015-07-14T15:22:22Z</DateUtc></FrequencyChange></FrequencyChanges></Clock>\n"	Arrow Flanker 2014-12417-1	60.019	1.0.0.98	1	-1866323318	Professional	2.0.10.353	2.0.10.353	07-14-2015	7/14/2015 3:22:22 PM	11:22:22	2.0.10.248	5	NA	NA	NA	NA	NA	NA	NA	NA	NA	NA	NA	NA	NA	NA	NA	NA	NA	NA	NA	NA	NA	NA	NA	NA	1	4	4	PracBlockProc	PracBlockList	NA	6	{RIGHTARROW}	-100	NA	944	neutral	NA	NA	NA	0	16	554156	0	1	{RIGHTARROW}	-999999	16	555622	0	{RIGHTARROW}	839	556461	NA	6	4	24	NA	NA	PracTrialProc	PracTrialList	NA	NA	NA	NA	NA	NA	NA	NA	NA	NA	NA	NA	NA	NA	NA	NA	NA	NA	right	NA	ooroo.bmp	354	NA	NA	NA	NA	NA	NA	NA	NA	NA	NA	NA	NA	NA	NA	NA	NA	NA	NA	NA	NA	NA
Arrow Flanker 2014	12417	1	"<?xml version=""1.0""?>\n<Clock xmlns:dt=""urn:schemas-microsoft-com:datatypes""><Description dt:dt=""string"">E-Prime Primary Realtime Clock</Description><StartTime><Timestamp dt:dt=""int"">0</Timestamp><DateUtc dt:dt=""string"">2015-07-14T15:22:22Z</DateUtc></StartTime><FrequencyChanges><FrequencyChange><Frequency dt:dt=""r8"">2825703</Frequency><Timestamp dt:dt=""r8"">8381909281289</Timestamp><Current dt:dt=""r8"">0</Current><DateUtc dt:dt=""string"">2015-07-14T15:22:22Z</DateUtc></FrequencyChange></FrequencyChanges></Clock>\n"	Arrow Flanker 2014-12417-1	60.019	1.0.0.98	1	-1866323318	Professional	2.0.10.353	2.0.10.353	07-14-2015	7/14/2015 3:22:22 PM	11:22:22	2.0.10.248	6	NA	NA	NA	NA	NA	NA	NA	NA	NA	NA	NA	NA	NA	NA	NA	NA	NA	NA	NA	NA	NA	NA	NA	NA	1	5	5	PracBlockProc	PracBlockList	NA	1	{RIGHTARROW}	-100	NA	667	incongruent	NA	NA	NA	0	11	562087	0	0	{RIGHTARROW}	-999999	0	563270	0	{LEFTARROW}	1254	564524	NA	5	5	25	NA	NA	PracTrialProc	PracTrialList	NA	NA	NA	NA	NA	NA	NA	NA	NA	NA	NA	NA	NA	NA	NA	NA	NA	NA	right	NA	llrll.bmp	354	NA	NA	NA	NA	NA	NA	NA	NA	NA	NA	NA	NA	NA	NA	NA	NA	NA	NA	NA	NA	NA
Arrow Flanker 2014	12417	1	"<?xml version=""1.0""?>\n<Clock xmlns:dt=""urn:schemas-microsoft-com:datatypes""><Description dt:dt=""string"">E-Prime Primary Realtime Clock</Description><StartTime><Timestamp dt:dt=""int"">0</Timestamp><DateUtc dt:dt=""string"">2015-07-14T15:22:22Z</DateUtc></StartTime><FrequencyChanges><FrequencyChange><Frequency dt:dt=""r8"">2825703</Frequency><Timestamp dt:dt=""r8"">8381909281289</Timestamp><Current dt:dt=""r8"">0</Current><DateUtc dt:dt=""string"">2015-07-14T15:22:22Z</DateUtc></FrequencyChange></FrequencyChanges></Clock>\n"	Arrow Flanker 2014-12417-1	60.019	1.0.0.98	1	-1866323318	Professional	2.0.10.353	2.0.10.353	07-14-2015	7/14/2015 3:22:22 PM	11:22:22	2.0.10.248	6	NA	NA	NA	NA	NA	NA	NA	NA	NA	NA	NA	NA	NA	NA	NA	NA	NA	NA	NA	NA	NA	NA	NA	NA	1	5	5	PracBlockProc	PracBlockList	NA	2	{LEFTARROW}	-100	NA	680	neutral	NA	NA	NA	0	16	566052	0	1	{LEFTARROW}	-999999	0	567235	0	{LEFTARROW}	769	568004	NA	3	5	26	NA	NA	PracTrialProc	PracTrialList	NA	NA	NA	NA	NA	NA	NA	NA	NA	NA	NA	NA	NA	NA	NA	NA	NA	NA	left	NA	ooloo.bmp	354	NA	NA	NA	NA	NA	NA	NA	NA	NA	NA	NA	NA	NA	NA	NA	NA	NA	NA	NA	NA	NA
Arrow Flanker 2014	12417	1	"<?xml version=""1.0""?>\n<Clock xmlns:dt=""urn:schemas-microsoft-com:datatypes""><Description dt:dt=""string"">E-Prime Primary Realtime Clock</Description><StartTime><Timestamp dt:dt=""int"">0</Timestamp><DateUtc dt:dt=""string"">2015-07-14T15:22:22Z</DateUtc></StartTime><FrequencyChanges><FrequencyChange><Frequency dt:dt=""r8"">2825703</Frequency><Timestamp dt:dt=""r8"">8381909281289</Timestamp><Current dt:dt=""r8"">0</Current><DateUtc dt:dt=""string"">2015-07-14T15:22:22Z</DateUtc></FrequencyChange></FrequencyChanges></Clock>\n"	Arrow Flanker 2014-12417-1	60.019	1.0.0.98	1	-1866323318	Professional	2.0.10.353	2.0.10.353	07-14-2015	7/14/2015 3:22:22 PM	11:22:22	2.0.10.248	6	NA	NA	NA	NA	NA	NA	NA	NA	NA	NA	NA	NA	NA	NA	NA	NA	NA	NA	NA	NA	NA	NA	NA	NA	1	5	5	PracBlockProc	PracBlockList	NA	3	{LEFTARROW}	-100	NA	1285	congruent	NA	NA	NA	0	16	569534	0	1	{LEFTARROW}	-999999	0	571334	0	{LEFTARROW}	838	572172	NA	1	5	27	NA	NA	PracTrialProc	PracTrialList	NA	NA	NA	NA	NA	NA	NA	NA	NA	NA	NA	NA	NA	NA	NA	NA	NA	NA	left	NA	lllll.bmp	354	NA	NA	NA	NA	NA	NA	NA	NA	NA	NA	NA	NA	NA	NA	NA	NA	NA	NA	NA	NA	NA
Arrow Flanker 2014	12417	1	"<?xml version=""1.0""?>\n<Clock xmlns:dt=""urn:schemas-microsoft-com:datatypes""><Description dt:dt=""string"">E-Prime Primary Realtime Clock</Description><StartTime><Timestamp dt:dt=""int"">0</Timestamp><DateUtc dt:dt=""string"">2015-07-14T15:22:22Z</DateUtc></StartTime><FrequencyChanges><FrequencyChange><Frequency dt:dt=""r8"">2825703</Frequency><Timestamp dt:dt=""r8"">8381909281289</Timestamp><Current dt:dt=""r8"">0</Current><DateUtc dt:dt=""string"">2015-07-14T15:22:22Z</DateUtc></FrequencyChange></FrequencyChanges></Clock>\n"	Arrow Flanker 2014-12417-1	60.019	1.0.0.98	1	-1866323318	Professional	2.0.10.353	2.0.10.353	07-14-2015	7/14/2015 3:22:22 PM	11:22:22	2.0.10.248	6	NA	NA	NA	NA	NA	NA	NA	NA	NA	NA	NA	NA	NA	NA	NA	NA	NA	NA	NA	NA	NA	NA	NA	NA	1	5	5	PracBlockProc	PracBlockList	NA	4	{LEFTARROW}	-100	NA	638	incongruent	NA	NA	NA	0	16	573700	0	1	{LEFTARROW}	-999999	16	574866	0	{LEFTARROW}	1225	576091	NA	2	5	28	NA	NA	PracTrialProc	PracTrialList	NA	NA	NA	NA	NA	NA	NA	NA	NA	NA	NA	NA	NA	NA	NA	NA	NA	NA	left	NA	rrlrr.bmp	354	NA	NA	NA	NA	NA	NA	NA	NA	NA	NA	NA	NA	NA	NA	NA	NA	NA	NA	NA	NA	NA
Arrow Flanker 2014	12417	1	"<?xml version=""1.0""?>\n<Clock xmlns:dt=""urn:schemas-microsoft-com:datatypes""><Description dt:dt=""string"">E-Prime Primary Realtime Clock</Description><StartTime><Timestamp dt:dt=""int"">0</Timestamp><DateUtc dt:dt=""string"">2015-07-14T15:22:22Z</DateUtc></StartTime><FrequencyChanges><FrequencyChange><Frequency dt:dt=""r8"">2825703</Frequency><Timestamp dt:dt=""r8"">8381909281289</Timestamp><Current dt:dt=""r8"">0</Current><DateUtc dt:dt=""string"">2015-07-14T15:22:22Z</DateUtc></FrequencyChange></FrequencyChanges></Clock>\n"	Arrow Flanker 2014-12417-1	60.019	1.0.0.98	1	-1866323318	Professional	2.0.10.353	2.0.10.353	07-14-2015	7/14/2015 3:22:22 PM	11:22:22	2.0.10.248	6	NA	NA	NA	NA	NA	NA	NA	NA	NA	NA	NA	NA	NA	NA	NA	NA	NA	NA	NA	NA	NA	NA	NA	NA	1	5	5	PracBlockProc	PracBlockList	NA	5	{RIGHTARROW}	-100	NA	635	neutral	NA	NA	NA	0	16	577632	0	1	{RIGHTARROW}	-999999	-1	578781	0	{RIGHTARROW}	1206	579987	NA	6	5	29	NA	NA	PracTrialProc	PracTrialList	NA	NA	NA	NA	NA	NA	NA	NA	NA	NA	NA	NA	NA	NA	NA	NA	NA	NA	right	NA	ooroo.bmp	354	NA	NA	NA	NA	NA	NA	NA	NA	NA	NA	NA	NA	NA	NA	NA	NA	NA	NA	NA	NA	NA
Arrow Flanker 2014	12417	1	"<?xml version=""1.0""?>\n<Clock xmlns:dt=""urn:schemas-microsoft-com:datatypes""><Description dt:dt=""string"">E-Prime Primary Realtime Clock</Description><StartTime><Timestamp dt:dt=""int"">0</Timestamp><DateUtc dt:dt=""string"">2015-07-14T15:22:22Z</DateUtc></StartTime><FrequencyChanges><FrequencyChange><Frequency dt:dt=""r8"">2825703</Frequency><Timestamp dt:dt=""r8"">8381909281289</Timestamp><Current dt:dt=""r8"">0</Current><DateUtc dt:dt=""string"">2015-07-14T15:22:22Z</DateUtc></FrequencyChange></FrequencyChanges></Clock>\n"	Arrow Flanker 2014-12417-1	60.019	1.0.0.98	1	-1866323318	Professional	2.0.10.353	2.0.10.353	07-14-2015	7/14/2015 3:22:22 PM	11:22:22	2.0.10.248	6	NA	NA	NA	NA	NA	NA	NA	NA	NA	NA	NA	NA	NA	NA	NA	NA	NA	NA	NA	NA	NA	NA	NA	NA	1	5	5	PracBlockProc	PracBlockList	NA	6	{RIGHTARROW}	-100	NA	1441	congruent	NA	NA	NA	0	16	581514	0	1	{RIGHTARROW}	-999999	0	583463	0	{RIGHTARROW}	756	584219	NA	4	5	30	NA	NA	PracTrialProc	PracTrialList	NA	NA	NA	NA	NA	NA	NA	NA	NA	NA	NA	NA	NA	NA	NA	NA	NA	NA	right	NA	rrrrr.bmp	354	NA	NA	NA	NA	NA	NA	NA	NA	NA	NA	NA	NA	NA	NA	NA	NA	NA	NA	NA	NA	NA
Arrow Flanker 2014	12417	1	"<?xml version=""1.0""?>\n<Clock xmlns:dt=""urn:schemas-microsoft-com:datatypes""><Description dt:dt=""string"">E-Prime Primary Realtime Clock</Description><StartTime><Timestamp dt:dt=""int"">0</Timestamp><DateUtc dt:dt=""string"">2015-07-14T15:22:22Z</DateUtc></StartTime><FrequencyChanges><FrequencyChange><Frequency dt:dt=""r8"">2825703</Frequency><Timestamp dt:dt=""r8"">8381909281289</Timestamp><Current dt:dt=""r8"">0</Current><DateUtc dt:dt=""string"">2015-07-14T15:22:22Z</DateUtc></FrequencyChange></FrequencyChanges></Clock>\n"	Arrow Flanker 2014-12417-1	60.019	1.0.0.98	1	-1866323318	Professional	2.0.10.353	2.0.10.353	07-14-2015	7/14/2015 3:22:22 PM	11:22:22	2.0.10.248	7	NA	NA	NA	NA	NA	NA	NA	NA	NA	NA	NA	NA	NA	NA	NA	NA	NA	NA	NA	NA	NA	NA	NA	NA	1	6	6	PracBlockProc	PracBlockList	NA	1	{LEFTARROW}	-100	NA	1424	congruent	NA	NA	NA	0	13	592711	0	1	{LEFTARROW}	-999999	0	594643	0	{LEFTARROW}	719	595362	NA	1	6	31	NA	NA	PracTrialProc	PracTrialList	NA	NA	NA	NA	NA	NA	NA	NA	NA	NA	NA	NA	NA	NA	NA	NA	NA	NA	left	NA	lllll.bmp	354	NA	NA	NA	NA	NA	NA	NA	NA	NA	NA	NA	NA	NA	NA	NA	NA	NA	NA	NA	NA	NA
Arrow Flanker 2014	12417	1	"<?xml version=""1.0""?>\n<Clock xmlns:dt=""urn:schemas-microsoft-com:datatypes""><Description dt:dt=""string"">E-Prime Primary Realtime Clock</Description><StartTime><Timestamp dt:dt=""int"">0</Timestamp><DateUtc dt:dt=""string"">2015-07-14T15:22:22Z</DateUtc></StartTime><FrequencyChanges><FrequencyChange><Frequency dt:dt=""r8"">2825703</Frequency><Timestamp dt:dt=""r8"">8381909281289</Timestamp><Current dt:dt=""r8"">0</Current><DateUtc dt:dt=""string"">2015-07-14T15:22:22Z</DateUtc></FrequencyChange></FrequencyChanges></Clock>\n"	Arrow Flanker 2014-12417-1	60.019	1.0.0.98	1	-1866323318	Professional	2.0.10.353	2.0.10.353	07-14-2015	7/14/2015 3:22:22 PM	11:22:22	2.0.10.248	7	NA	NA	NA	NA	NA	NA	NA	NA	NA	NA	NA	NA	NA	NA	NA	NA	NA	NA	NA	NA	NA	NA	NA	NA	1	6	6	PracBlockProc	PracBlockList	NA	2	{RIGHTARROW}	-100	NA	403	neutral	NA	NA	NA	0	17	596893	0	1	{RIGHTARROW}	-999999	0	597809	0	{RIGHTARROW}	753	598562	NA	6	6	32	NA	NA	PracTrialProc	PracTrialList	NA	NA	NA	NA	NA	NA	NA	NA	NA	NA	NA	NA	NA	NA	NA	NA	NA	NA	right	NA	ooroo.bmp	354	NA	NA	NA	NA	NA	NA	NA	NA	NA	NA	NA	NA	NA	NA	NA	NA	NA	NA	NA	NA	NA
Arrow Flanker 2014	12417	1	"<?xml version=""1.0""?>\n<Clock xmlns:dt=""urn:schemas-microsoft-com:datatypes""><Description dt:dt=""string"">E-Prime Primary Realtime Clock</Description><StartTime><Timestamp dt:dt=""int"">0</Timestamp><DateUtc dt:dt=""string"">2015-07-14T15:22:22Z</DateUtc></StartTime><FrequencyChanges><FrequencyChange><Frequency dt:dt=""r8"">2825703</Frequency><Timestamp dt:dt=""r8"">8381909281289</Timestamp><Current dt:dt=""r8"">0</Current><DateUtc dt:dt=""string"">2015-07-14T15:22:22Z</DateUtc></FrequencyChange></FrequencyChanges></Clock>\n"	Arrow Flanker 2014-12417-1	60.019	1.0.0.98	1	-1866323318	Professional	2.0.10.353	2.0.10.353	07-14-2015	7/14/2015 3:22:22 PM	11:22:22	2.0.10.248	7	NA	NA	NA	NA	NA	NA	NA	NA	NA	NA	NA	NA	NA	NA	NA	NA	NA	NA	NA	NA	NA	NA	NA	NA	1	6	6	PracBlockProc	PracBlockList	NA	3	{RIGHTARROW}	-100	NA	1011	incongruent	NA	NA	NA	0	17	600092	0	0	{RIGHTARROW}	-999999	0	601608	0	{LEFTARROW}	1529	603137	NA	5	6	33	NA	NA	PracTrialProc	PracTrialList	NA	NA	NA	NA	NA	NA	NA	NA	NA	NA	NA	NA	NA	NA	NA	NA	NA	NA	right	NA	llrll.bmp	354	NA	NA	NA	NA	NA	NA	NA	NA	NA	NA	NA	NA	NA	NA	NA	NA	NA	NA	NA	NA	NA
Arrow Flanker 2014	12417	1	"<?xml version=""1.0""?>\n<Clock xmlns:dt=""urn:schemas-microsoft-com:datatypes""><Description dt:dt=""string"">E-Prime Primary Realtime Clock</Description><StartTime><Timestamp dt:dt=""int"">0</Timestamp><DateUtc dt:dt=""string"">2015-07-14T15:22:22Z</DateUtc></StartTime><FrequencyChanges><FrequencyChange><Frequency dt:dt=""r8"">2825703</Frequency><Timestamp dt:dt=""r8"">8381909281289</Timestamp><Current dt:dt=""r8"">0</Current><DateUtc dt:dt=""string"">2015-07-14T15:22:22Z</DateUtc></FrequencyChange></FrequencyChanges></Clock>\n"	Arrow Flanker 2014-12417-1	60.019	1.0.0.98	1	-1866323318	Professional	2.0.10.353	2.0.10.353	07-14-2015	7/14/2015 3:22:22 PM	11:22:22	2.0.10.248	7	NA	NA	NA	NA	NA	NA	NA	NA	NA	NA	NA	NA	NA	NA	NA	NA	NA	NA	NA	NA	NA	NA	NA	NA	1	6	6	PracBlockProc	PracBlockList	NA	4	{LEFTARROW}	-100	NA	637	neutral	NA	NA	NA	0	16	604673	0	1	{LEFTARROW}	-999999	0	605823	0	{LEFTARROW}	1146	606969	NA	3	6	34	NA	NA	PracTrialProc	PracTrialList	NA	NA	NA	NA	NA	NA	NA	NA	NA	NA	NA	NA	NA	NA	NA	NA	NA	NA	left	NA	ooloo.bmp	354	NA	NA	NA	NA	NA	NA	NA	NA	NA	NA	NA	NA	NA	NA	NA	NA	NA	NA	NA	NA	NA
Arrow Flanker 2014	12417	1	"<?xml version=""1.0""?>\n<Clock xmlns:dt=""urn:schemas-microsoft-com:datatypes""><Description dt:dt=""string"">E-Prime Primary Realtime Clock</Description><StartTime><Timestamp dt:dt=""int"">0</Timestamp><DateUtc dt:dt=""string"">2015-07-14T15:22:22Z</DateUtc></StartTime><FrequencyChanges><FrequencyChange><Frequency dt:dt=""r8"">2825703</Frequency><Timestamp dt:dt=""r8"">8381909281289</Timestamp><Current dt:dt=""r8"">0</Current><DateUtc dt:dt=""string"">2015-07-14T15:22:22Z</DateUtc></FrequencyChange></FrequencyChanges></Clock>\n"	Arrow Flanker 2014-12417-1	60.019	1.0.0.98	1	-1866323318	Professional	2.0.10.353	2.0.10.353	07-14-2015	7/14/2015 3:22:22 PM	11:22:22	2.0.10.248	7	NA	NA	NA	NA	NA	NA	NA	NA	NA	NA	NA	NA	NA	NA	NA	NA	NA	NA	NA	NA	NA	NA	NA	NA	1	6	6	PracBlockProc	PracBlockList	NA	5	{LEFTARROW}	-100	NA	1097	incongruent	NA	NA	NA	0	17	608506	0	1	{LEFTARROW}	-999999	0	610105	0	{LEFTARROW}	920	611025	NA	2	6	35	NA	NA	PracTrialProc	PracTrialList	NA	NA	NA	NA	NA	NA	NA	NA	NA	NA	NA	NA	NA	NA	NA	NA	NA	NA	left	NA	rrlrr.bmp	354	NA	NA	NA	NA	NA	NA	NA	NA	NA	NA	NA	NA	NA	NA	NA	NA	NA	NA	NA	NA	NA
Arrow Flanker 2014	12417	1	"<?xml version=""1.0""?>\n<Clock xmlns:dt=""urn:schemas-microsoft-com:datatypes""><Description dt:dt=""string"">E-Prime Primary Realtime Clock</Description><StartTime><Timestamp dt:dt=""int"">0</Timestamp><DateUtc dt:dt=""string"">2015-07-14T15:22:22Z</DateUtc></StartTime><FrequencyChanges><FrequencyChange><Frequency dt:dt=""r8"">2825703</Frequency><Timestamp dt:dt=""r8"">8381909281289</Timestamp><Current dt:dt=""r8"">0</Current><DateUtc dt:dt=""string"">2015-07-14T15:22:22Z</DateUtc></FrequencyChange></FrequencyChanges></Clock>\n"	Arrow Flanker 2014-12417-1	60.019	1.0.0.98	1	-1866323318	Professional	2.0.10.353	2.0.10.353	07-14-2015	7/14/2015 3:22:22 PM	11:22:22	2.0.10.248	7	NA	NA	NA	NA	NA	NA	NA	NA	NA	NA	NA	NA	NA	NA	NA	NA	NA	NA	NA	NA	NA	NA	NA	NA	1	6	6	PracBlockProc	PracBlockList	NA	6	{RIGHTARROW}	-100	NA	1562	congruent	NA	NA	NA	0	16	612554	0	1	{RIGHTARROW}	-999999	0	614620	0	{RIGHTARROW}	668	615288	NA	4	6	36	NA	NA	PracTrialProc	PracTrialList	NA	NA	NA	NA	NA	NA	NA	NA	NA	NA	NA	NA	NA	NA	NA	NA	NA	NA	right	NA	rrrrr.bmp	354	NA	NA	NA	NA	NA	NA	NA	NA	NA	NA	NA	NA	NA	NA	NA	NA	NA	NA	NA	NA	NA
Arrow Flanker 2014	12417	1	"<?xml version=""1.0""?>\n<Clock xmlns:dt=""urn:schemas-microsoft-com:datatypes""><Description dt:dt=""string"">E-Prime Primary Realtime Clock</Description><StartTime><Timestamp dt:dt=""int"">0</Timestamp><DateUtc dt:dt=""string"">2015-07-14T15:22:22Z</DateUtc></StartTime><FrequencyChanges><FrequencyChange><Frequency dt:dt=""r8"">2825703</Frequency><Timestamp dt:dt=""r8"">8381909281289</Timestamp><Current dt:dt=""r8"">0</Current><DateUtc dt:dt=""string"">2015-07-14T15:22:22Z</DateUtc></FrequencyChange></FrequencyChanges></Clock>\n"	Arrow Flanker 2014-12417-1	60.019	1.0.0.98	1	-1866323318	Professional	2.0.10.353	2.0.10.353	07-14-2015	7/14/2015 3:22:22 PM	11:22:22	2.0.10.248	8	NA	NA	NA	NA	NA	NA	NA	NA	NA	NA	NA	NA	NA	NA	NA	NA	NA	NA	NA	NA	NA	NA	NA	NA	1	7	7	PracBlockProc	PracBlockList	NA	1	{RIGHTARROW}	-100	NA	841	neutral	NA	NA	NA	0	13	624501	0	1	{RIGHTARROW}	-999999	0	625850	0	{RIGHTARROW}	517	626367	NA	6	7	37	NA	NA	PracTrialProc	PracTrialList	NA	NA	NA	NA	NA	NA	NA	NA	NA	NA	NA	NA	NA	NA	NA	NA	NA	NA	right	NA	ooroo.bmp	354	NA	NA	NA	NA	NA	NA	NA	NA	NA	NA	NA	NA	NA	NA	NA	NA	NA	NA	NA	NA	NA
Arrow Flanker 2014	12417	1	"<?xml version=""1.0""?>\n<Clock xmlns:dt=""urn:schemas-microsoft-com:datatypes""><Description dt:dt=""string"">E-Prime Primary Realtime Clock</Description><StartTime><Timestamp dt:dt=""int"">0</Timestamp><DateUtc dt:dt=""string"">2015-07-14T15:22:22Z</DateUtc></StartTime><FrequencyChanges><FrequencyChange><Frequency dt:dt=""r8"">2825703</Frequency><Timestamp dt:dt=""r8"">8381909281289</Timestamp><Current dt:dt=""r8"">0</Current><DateUtc dt:dt=""string"">2015-07-14T15:22:22Z</DateUtc></FrequencyChange></FrequencyChanges></Clock>\n"	Arrow Flanker 2014-12417-1	60.019	1.0.0.98	1	-1866323318	Professional	2.0.10.353	2.0.10.353	07-14-2015	7/14/2015 3:22:22 PM	11:22:22	2.0.10.248	8	NA	NA	NA	NA	NA	NA	NA	NA	NA	NA	NA	NA	NA	NA	NA	NA	NA	NA	NA	NA	NA	NA	NA	NA	1	7	7	PracBlockProc	PracBlockList	NA	2	{LEFTARROW}	-100	NA	536	incongruent	NA	NA	NA	0	16	627899	0	0	{LEFTARROW}	0	0	628949	1700	NA	0	0	NA	2	7	38	NA	NA	PracTrialProc	PracTrialList	NA	NA	NA	NA	NA	NA	NA	NA	NA	NA	NA	NA	NA	NA	NA	NA	NA	NA	left	NA	rrlrr.bmp	354	NA	NA	NA	NA	NA	NA	NA	NA	NA	NA	NA	NA	NA	NA	NA	NA	NA	NA	NA	NA	NA
Arrow Flanker 2014	12417	1	"<?xml version=""1.0""?>\n<Clock xmlns:dt=""urn:schemas-microsoft-com:datatypes""><Description dt:dt=""string"">E-Prime Primary Realtime Clock</Description><StartTime><Timestamp dt:dt=""int"">0</Timestamp><DateUtc dt:dt=""string"">2015-07-14T15:22:22Z</DateUtc></StartTime><FrequencyChanges><FrequencyChange><Frequency dt:dt=""r8"">2825703</Frequency><Timestamp dt:dt=""r8"">8381909281289</Timestamp><Current dt:dt=""r8"">0</Current><DateUtc dt:dt=""string"">2015-07-14T15:22:22Z</DateUtc></FrequencyChange></FrequencyChanges></Clock>\n"	Arrow Flanker 2014-12417-1	60.019	1.0.0.98	1	-1866323318	Professional	2.0.10.353	2.0.10.353	07-14-2015	7/14/2015 3:22:22 PM	11:22:22	2.0.10.248	8	NA	NA	NA	NA	NA	NA	NA	NA	NA	NA	NA	NA	NA	NA	NA	NA	NA	NA	NA	NA	NA	NA	NA	NA	1	7	7	PracBlockProc	PracBlockList	NA	3	{LEFTARROW}	-100	NA	1257	congruent	NA	NA	NA	0	16	632165	0	1	{LEFTARROW}	-999999	0	633931	0	{LEFTARROW}	644	634575	NA	1	7	39	NA	NA	PracTrialProc	PracTrialList	NA	NA	NA	NA	NA	NA	NA	NA	NA	NA	NA	NA	NA	NA	NA	NA	NA	NA	left	NA	lllll.bmp	354	NA	NA	NA	NA	NA	NA	NA	NA	NA	NA	NA	NA	NA	NA	NA	NA	NA	NA	NA	NA	NA
Arrow Flanker 2014	12417	1	"<?xml version=""1.0""?>\n<Clock xmlns:dt=""urn:schemas-microsoft-com:datatypes""><Description dt:dt=""string"">E-Prime Primary Realtime Clock</Description><StartTime><Timestamp dt:dt=""int"">0</Timestamp><DateUtc dt:dt=""string"">2015-07-14T15:22:22Z</DateUtc></StartTime><FrequencyChanges><FrequencyChange><Frequency dt:dt=""r8"">2825703</Frequency><Timestamp dt:dt=""r8"">8381909281289</Timestamp><Current dt:dt=""r8"">0</Current><DateUtc dt:dt=""string"">2015-07-14T15:22:22Z</DateUtc></FrequencyChange></FrequencyChanges></Clock>\n"	Arrow Flanker 2014-12417-1	60.019	1.0.0.98	1	-1866323318	Professional	2.0.10.353	2.0.10.353	07-14-2015	7/14/2015 3:22:22 PM	11:22:22	2.0.10.248	8	NA	NA	NA	NA	NA	NA	NA	NA	NA	NA	NA	NA	NA	NA	NA	NA	NA	NA	NA	NA	NA	NA	NA	NA	1	7	7	PracBlockProc	PracBlockList	NA	4	{LEFTARROW}	-100	NA	416	neutral	NA	NA	NA	0	17	636114	0	1	{LEFTARROW}	-999999	0	637030	0	{LEFTARROW}	633	637663	NA	3	7	40	NA	NA	PracTrialProc	PracTrialList	NA	NA	NA	NA	NA	NA	NA	NA	NA	NA	NA	NA	NA	NA	NA	NA	NA	NA	left	NA	ooloo.bmp	354	NA	NA	NA	NA	NA	NA	NA	NA	NA	NA	NA	NA	NA	NA	NA	NA	NA	NA	NA	NA	NA
Arrow Flanker 2014	12417	1	"<?xml version=""1.0""?>\n<Clock xmlns:dt=""urn:schemas-microsoft-com:datatypes""><Description dt:dt=""string"">E-Prime Primary Realtime Clock</Description><StartTime><Timestamp dt:dt=""int"">0</Timestamp><DateUtc dt:dt=""string"">2015-07-14T15:22:22Z</DateUtc></StartTime><FrequencyChanges><FrequencyChange><Frequency dt:dt=""r8"">2825703</Frequency><Timestamp dt:dt=""r8"">8381909281289</Timestamp><Current dt:dt=""r8"">0</Current><DateUtc dt:dt=""string"">2015-07-14T15:22:22Z</DateUtc></FrequencyChange></FrequencyChanges></Clock>\n"	Arrow Flanker 2014-12417-1	60.019	1.0.0.98	1	-1866323318	Professional	2.0.10.353	2.0.10.353	07-14-2015	7/14/2015 3:22:22 PM	11:22:22	2.0.10.248	8	NA	NA	NA	NA	NA	NA	NA	NA	NA	NA	NA	NA	NA	NA	NA	NA	NA	NA	NA	NA	NA	NA	NA	NA	1	7	7	PracBlockProc	PracBlockList	NA	5	{RIGHTARROW}	-100	NA	1359	incongruent	NA	NA	NA	0	16	639196	0	0	{RIGHTARROW}	-999999	0	641062	0	{LEFTARROW}	864	641926	NA	5	7	41	NA	NA	PracTrialProc	PracTrialList	NA	NA	NA	NA	NA	NA	NA	NA	NA	NA	NA	NA	NA	NA	NA	NA	NA	NA	right	NA	llrll.bmp	354	NA	NA	NA	NA	NA	NA	NA	NA	NA	NA	NA	NA	NA	NA	NA	NA	NA	NA	NA	NA	NA
Arrow Flanker 2014	12417	1	"<?xml version=""1.0""?>\n<Clock xmlns:dt=""urn:schemas-microsoft-com:datatypes""><Description dt:dt=""string"">E-Prime Primary Realtime Clock</Description><StartTime><Timestamp dt:dt=""int"">0</Timestamp><DateUtc dt:dt=""string"">2015-07-14T15:22:22Z</DateUtc></StartTime><FrequencyChanges><FrequencyChange><Frequency dt:dt=""r8"">2825703</Frequency><Timestamp dt:dt=""r8"">8381909281289</Timestamp><Current dt:dt=""r8"">0</Current><DateUtc dt:dt=""string"">2015-07-14T15:22:22Z</DateUtc></FrequencyChange></FrequencyChanges></Clock>\n"	Arrow Flanker 2014-12417-1	60.019	1.0.0.98	1	-1866323318	Professional	2.0.10.353	2.0.10.353	07-14-2015	7/14/2015 3:22:22 PM	11:22:22	2.0.10.248	8	NA	NA	NA	NA	NA	NA	NA	NA	NA	NA	NA	NA	NA	NA	NA	NA	NA	NA	NA	NA	NA	NA	NA	NA	1	7	7	PracBlockProc	PracBlockList	NA	6	{RIGHTARROW}	-100	NA	1128	congruent	NA	NA	NA	0	16	643461	0	1	{RIGHTARROW}	-999999	0	645094	0	{RIGHTARROW}	792	645886	NA	4	7	42	NA	NA	PracTrialProc	PracTrialList	NA	NA	NA	NA	NA	NA	NA	NA	NA	NA	NA	NA	NA	NA	NA	NA	NA	NA	right	NA	rrrrr.bmp	354	NA	NA	NA	NA	NA	NA	NA	NA	NA	NA	NA	NA	NA	NA	NA	NA	NA	NA	NA	NA	NA
Arrow Flanker 2014	12417	1	"<?xml version=""1.0""?>\n<Clock xmlns:dt=""urn:schemas-microsoft-com:datatypes""><Description dt:dt=""string"">E-Prime Primary Realtime Clock</Description><StartTime><Timestamp dt:dt=""int"">0</Timestamp><DateUtc dt:dt=""string"">2015-07-14T15:22:22Z</DateUtc></StartTime><FrequencyChanges><FrequencyChange><Frequency dt:dt=""r8"">2825703</Frequency><Timestamp dt:dt=""r8"">8381909281289</Timestamp><Current dt:dt=""r8"">0</Current><DateUtc dt:dt=""string"">2015-07-14T15:22:22Z</DateUtc></FrequencyChange></FrequencyChanges></Clock>\n"	Arrow Flanker 2014-12417-1	60.019	1.0.0.98	1	-1866323318	Professional	2.0.10.353	2.0.10.353	07-14-2015	7/14/2015 3:22:22 PM	11:22:22	2.0.10.248	9	NA	NA	NA	NA	NA	NA	NA	NA	NA	NA	NA	NA	NA	NA	NA	NA	NA	NA	NA	NA	NA	NA	NA	NA	1	8	8	PracBlockProc	PracBlockList	NA	1	{RIGHTARROW}	-100	NA	1413	neutral	NA	NA	NA	0	6	655907	0	1	{RIGHTARROW}	-999999	-1	657823	0	{RIGHTARROW}	1086	658909	NA	6	8	43	NA	NA	PracTrialProc	PracTrialList	NA	NA	NA	NA	NA	NA	NA	NA	NA	NA	NA	NA	NA	NA	NA	NA	NA	NA	right	NA	ooroo.bmp	354	NA	NA	NA	NA	NA	NA	NA	NA	NA	NA	NA	NA	NA	NA	NA	NA	NA	NA	NA	NA	NA
Arrow Flanker 2014	12417	1	"<?xml version=""1.0""?>\n<Clock xmlns:dt=""urn:schemas-microsoft-com:datatypes""><Description dt:dt=""string"">E-Prime Primary Realtime Clock</Description><StartTime><Timestamp dt:dt=""int"">0</Timestamp><DateUtc dt:dt=""string"">2015-07-14T15:22:22Z</DateUtc></StartTime><FrequencyChanges><FrequencyChange><Frequency dt:dt=""r8"">2825703</Frequency><Timestamp dt:dt=""r8"">8381909281289</Timestamp><Current dt:dt=""r8"">0</Current><DateUtc dt:dt=""string"">2015-07-14T15:22:22Z</DateUtc></FrequencyChange></FrequencyChanges></Clock>\n"	Arrow Flanker 2014-12417-1	60.019	1.0.0.98	1	-1866323318	Professional	2.0.10.353	2.0.10.353	07-14-2015	7/14/2015 3:22:22 PM	11:22:22	2.0.10.248	9	NA	NA	NA	NA	NA	NA	NA	NA	NA	NA	NA	NA	NA	NA	NA	NA	NA	NA	NA	NA	NA	NA	NA	NA	1	8	8	PracBlockProc	PracBlockList	NA	2	{RIGHTARROW}	-100	NA	1598	incongruent	NA	NA	NA	0	16	660439	0	1	{RIGHTARROW}	-999999	0	662539	0	{RIGHTARROW}	1170	663709	NA	5	8	44	NA	NA	PracTrialProc	PracTrialList	NA	NA	NA	NA	NA	NA	NA	NA	NA	NA	NA	NA	NA	NA	NA	NA	NA	NA	right	NA	llrll.bmp	354	NA	NA	NA	NA	NA	NA	NA	NA	NA	NA	NA	NA	NA	NA	NA	NA	NA	NA	NA	NA	NA
Arrow Flanker 2014	12417	1	"<?xml version=""1.0""?>\n<Clock xmlns:dt=""urn:schemas-microsoft-com:datatypes""><Description dt:dt=""string"">E-Prime Primary Realtime Clock</Description><StartTime><Timestamp dt:dt=""int"">0</Timestamp><DateUtc dt:dt=""string"">2015-07-14T15:22:22Z</DateUtc></StartTime><FrequencyChanges><FrequencyChange><Frequency dt:dt=""r8"">2825703</Frequency><Timestamp dt:dt=""r8"">8381909281289</Timestamp><Current dt:dt=""r8"">0</Current><DateUtc dt:dt=""string"">2015-07-14T15:22:22Z</DateUtc></FrequencyChange></FrequencyChanges></Clock>\n"	Arrow Flanker 2014-12417-1	60.019	1.0.0.98	1	-1866323318	Professional	2.0.10.353	2.0.10.353	07-14-2015	7/14/2015 3:22:22 PM	11:22:22	2.0.10.248	9	NA	NA	NA	NA	NA	NA	NA	NA	NA	NA	NA	NA	NA	NA	NA	NA	NA	NA	NA	NA	NA	NA	NA	NA	1	8	8	PracBlockProc	PracBlockList	NA	3	{RIGHTARROW}	-100	NA	1012	congruent	NA	NA	NA	0	16	665238	0	0	{RIGHTARROW}	0	0	666754	1716	NA	0	0	NA	4	8	45	NA	NA	PracTrialProc	PracTrialList	NA	NA	NA	NA	NA	NA	NA	NA	NA	NA	NA	NA	NA	NA	NA	NA	NA	NA	right	NA	rrrrr.bmp	354	NA	NA	NA	NA	NA	NA	NA	NA	NA	NA	NA	NA	NA	NA	NA	NA	NA	NA	NA	NA	NA
Arrow Flanker 2014	12417	1	"<?xml version=""1.0""?>\n<Clock xmlns:dt=""urn:schemas-microsoft-com:datatypes""><Description dt:dt=""string"">E-Prime Primary Realtime Clock</Description><StartTime><Timestamp dt:dt=""int"">0</Timestamp><DateUtc dt:dt=""string"">2015-07-14T15:22:22Z</DateUtc></StartTime><FrequencyChanges><FrequencyChange><Frequency dt:dt=""r8"">2825703</Frequency><Timestamp dt:dt=""r8"">8381909281289</Timestamp><Current dt:dt=""r8"">0</Current><DateUtc dt:dt=""string"">2015-07-14T15:22:22Z</DateUtc></FrequencyChange></FrequencyChanges></Clock>\n"	Arrow Flanker 2014-12417-1	60.019	1.0.0.98	1	-1866323318	Professional	2.0.10.353	2.0.10.353	07-14-2015	7/14/2015 3:22:22 PM	11:22:22	2.0.10.248	9	NA	NA	NA	NA	NA	NA	NA	NA	NA	NA	NA	NA	NA	NA	NA	NA	NA	NA	NA	NA	NA	NA	NA	NA	1	8	8	PracBlockProc	PracBlockList	NA	4	{LEFTARROW}	-100	NA	1300	congruent	NA	NA	NA	0	16	669986	0	1	{LEFTARROW}	-999999	0	671786	0	{LEFTARROW}	1146	672932	NA	1	8	46	NA	NA	PracTrialProc	PracTrialList	NA	NA	NA	NA	NA	NA	NA	NA	NA	NA	NA	NA	NA	NA	NA	NA	NA	NA	left	NA	lllll.bmp	354	NA	NA	NA	NA	NA	NA	NA	NA	NA	NA	NA	NA	NA	NA	NA	NA	NA	NA	NA	NA	NA
Arrow Flanker 2014	12417	1	"<?xml version=""1.0""?>\n<Clock xmlns:dt=""urn:schemas-microsoft-com:datatypes""><Description dt:dt=""string"">E-Prime Primary Realtime Clock</Description><StartTime><Timestamp dt:dt=""int"">0</Timestamp><DateUtc dt:dt=""string"">2015-07-14T15:22:22Z</DateUtc></StartTime><FrequencyChanges><FrequencyChange><Frequency dt:dt=""r8"">2825703</Frequency><Timestamp dt:dt=""r8"">8381909281289</Timestamp><Current dt:dt=""r8"">0</Current><DateUtc dt:dt=""string"">2015-07-14T15:22:22Z</DateUtc></FrequencyChange></FrequencyChanges></Clock>\n"	Arrow Flanker 2014-12417-1	60.019	1.0.0.98	1	-1866323318	Professional	2.0.10.353	2.0.10.353	07-14-2015	7/14/2015 3:22:22 PM	11:22:22	2.0.10.248	9	NA	NA	NA	NA	NA	NA	NA	NA	NA	NA	NA	NA	NA	NA	NA	NA	NA	NA	NA	NA	NA	NA	NA	NA	1	8	8	PracBlockProc	PracBlockList	NA	5	{LEFTARROW}	-100	NA	856	incongruent	NA	NA	NA	0	16	674468	0	1	{LEFTARROW}	-999999	0	675835	0	{LEFTARROW}	1193	677028	NA	2	8	47	NA	NA	PracTrialProc	PracTrialList	NA	NA	NA	NA	NA	NA	NA	NA	NA	NA	NA	NA	NA	NA	NA	NA	NA	NA	left	NA	rrlrr.bmp	354	NA	NA	NA	NA	NA	NA	NA	NA	NA	NA	NA	NA	NA	NA	NA	NA	NA	NA	NA	NA	NA
Arrow Flanker 2014	12417	1	"<?xml version=""1.0""?>\n<Clock xmlns:dt=""urn:schemas-microsoft-com:datatypes""><Description dt:dt=""string"">E-Prime Primary Realtime Clock</Description><StartTime><Timestamp dt:dt=""int"">0</Timestamp><DateUtc dt:dt=""string"">2015-07-14T15:22:22Z</DateUtc></StartTime><FrequencyChanges><FrequencyChange><Frequency dt:dt=""r8"">2825703</Frequency><Timestamp dt:dt=""r8"">8381909281289</Timestamp><Current dt:dt=""r8"">0</Current><DateUtc dt:dt=""string"">2015-07-14T15:22:22Z</DateUtc></FrequencyChange></FrequencyChanges></Clock>\n"	Arrow Flanker 2014-12417-1	60.019	1.0.0.98	1	-1866323318	Professional	2.0.10.353	2.0.10.353	07-14-2015	7/14/2015 3:22:22 PM	11:22:22	2.0.10.248	9	NA	NA	NA	NA	NA	NA	NA	NA	NA	NA	NA	NA	NA	NA	NA	NA	NA	NA	NA	NA	NA	NA	NA	NA	1	8	8	PracBlockProc	PracBlockList	NA	6	{LEFTARROW}	-100	NA	719	neutral	NA	NA	NA	0	16	678567	0	1	{LEFTARROW}	-999999	0	679800	0	{LEFTARROW}	587	680387	NA	3	8	48	NA	NA	PracTrialProc	PracTrialList	NA	NA	NA	NA	NA	NA	NA	NA	NA	NA	NA	NA	NA	NA	NA	NA	NA	NA	left	NA	ooloo.bmp	354	NA	NA	NA	NA	NA	NA	NA	NA	NA	NA	NA	NA	NA	NA	NA	NA	NA	NA	NA	NA	NA
Arrow Flanker 2014	12417	1	"<?xml version=""1.0""?>\n<Clock xmlns:dt=""urn:schemas-microsoft-com:datatypes""><Description dt:dt=""string"">E-Prime Primary Realtime Clock</Description><StartTime><Timestamp dt:dt=""int"">0</Timestamp><DateUtc dt:dt=""string"">2015-07-14T15:22:22Z</DateUtc></StartTime><FrequencyChanges><FrequencyChange><Frequency dt:dt=""r8"">2825703</Frequency><Timestamp dt:dt=""r8"">8381909281289</Timestamp><Current dt:dt=""r8"">0</Current><DateUtc dt:dt=""string"">2015-07-14T15:22:22Z</DateUtc></FrequencyChange></FrequencyChanges></Clock>\n"	Arrow Flanker 2014-12417-1	60.019	1.0.0.98	1	-1866323318	Professional	2.0.10.353	2.0.10.353	07-14-2015	7/14/2015 3:22:22 PM	11:22:22	2.0.10.248	10	NA	NA	NA	NA	NA	NA	NA	NA	NA	NA	NA	NA	NA	NA	NA	NA	NA	NA	NA	NA	NA	NA	NA	NA	1	9	9	PracBlockProc	PracBlockList	NA	1	{LEFTARROW}	-100	NA	1509	incongruent	NA	NA	NA	0	20	682999	0	1	{LEFTARROW}	-999999	0	685015	0	{LEFTARROW}	652	685667	NA	2	9	49	NA	NA	PracTrialProc	PracTrialList	NA	NA	NA	NA	NA	NA	NA	NA	NA	NA	NA	NA	NA	NA	NA	NA	NA	NA	left	NA	rrlrr.bmp	354	NA	NA	NA	NA	NA	NA	NA	NA	NA	NA	NA	NA	NA	NA	NA	NA	NA	NA	NA	NA	NA
Arrow Flanker 2014	12417	1	"<?xml version=""1.0""?>\n<Clock xmlns:dt=""urn:schemas-microsoft-com:datatypes""><Description dt:dt=""string"">E-Prime Primary Realtime Clock</Description><StartTime><Timestamp dt:dt=""int"">0</Timestamp><DateUtc dt:dt=""string"">2015-07-14T15:22:22Z</DateUtc></StartTime><FrequencyChanges><FrequencyChange><Frequency dt:dt=""r8"">2825703</Frequency><Timestamp dt:dt=""r8"">8381909281289</Timestamp><Current dt:dt=""r8"">0</Current><DateUtc dt:dt=""string"">2015-07-14T15:22:22Z</DateUtc></FrequencyChange></FrequencyChanges></Clock>\n"	Arrow Flanker 2014-12417-1	60.019	1.0.0.98	1	-1866323318	Professional	2.0.10.353	2.0.10.353	07-14-2015	7/14/2015 3:22:22 PM	11:22:22	2.0.10.248	10	NA	NA	NA	NA	NA	NA	NA	NA	NA	NA	NA	NA	NA	NA	NA	NA	NA	NA	NA	NA	NA	NA	NA	NA	1	9	9	PracBlockProc	PracBlockList	NA	2	{LEFTARROW}	-100	NA	1167	congruent	NA	NA	NA	0	17	687198	0	1	{LEFTARROW}	-999999	-1	688880	0	{LEFTARROW}	571	689451	NA	1	9	50	NA	NA	PracTrialProc	PracTrialList	NA	NA	NA	NA	NA	NA	NA	NA	NA	NA	NA	NA	NA	NA	NA	NA	NA	NA	left	NA	lllll.bmp	354	NA	NA	NA	NA	NA	NA	NA	NA	NA	NA	NA	NA	NA	NA	NA	NA	NA	NA	NA	NA	NA
Arrow Flanker 2014	12417	1	"<?xml version=""1.0""?>\n<Clock xmlns:dt=""urn:schemas-microsoft-com:datatypes""><Description dt:dt=""string"">E-Prime Primary Realtime Clock</Description><StartTime><Timestamp dt:dt=""int"">0</Timestamp><DateUtc dt:dt=""string"">2015-07-14T15:22:22Z</DateUtc></StartTime><FrequencyChanges><FrequencyChange><Frequency dt:dt=""r8"">2825703</Frequency><Timestamp dt:dt=""r8"">8381909281289</Timestamp><Current dt:dt=""r8"">0</Current><DateUtc dt:dt=""string"">2015-07-14T15:22:22Z</DateUtc></FrequencyChange></FrequencyChanges></Clock>\n"	Arrow Flanker 2014-12417-1	60.019	1.0.0.98	1	-1866323318	Professional	2.0.10.353	2.0.10.353	07-14-2015	7/14/2015 3:22:22 PM	11:22:22	2.0.10.248	10	NA	NA	NA	NA	NA	NA	NA	NA	NA	NA	NA	NA	NA	NA	NA	NA	NA	NA	NA	NA	NA	NA	NA	NA	1	9	9	PracBlockProc	PracBlockList	NA	3	{RIGHTARROW}	-100	NA	1060	neutral	NA	NA	NA	0	16	690980	0	1	{RIGHTARROW}	-999999	0	692546	0	{RIGHTARROW}	560	693106	NA	6	9	51	NA	NA	PracTrialProc	PracTrialList	NA	NA	NA	NA	NA	NA	NA	NA	NA	NA	NA	NA	NA	NA	NA	NA	NA	NA	right	NA	ooroo.bmp	354	NA	NA	NA	NA	NA	NA	NA	NA	NA	NA	NA	NA	NA	NA	NA	NA	NA	NA	NA	NA	NA
Arrow Flanker 2014	12417	1	"<?xml version=""1.0""?>\n<Clock xmlns:dt=""urn:schemas-microsoft-com:datatypes""><Description dt:dt=""string"">E-Prime Primary Realtime Clock</Description><StartTime><Timestamp dt:dt=""int"">0</Timestamp><DateUtc dt:dt=""string"">2015-07-14T15:22:22Z</DateUtc></StartTime><FrequencyChanges><FrequencyChange><Frequency dt:dt=""r8"">2825703</Frequency><Timestamp dt:dt=""r8"">8381909281289</Timestamp><Current dt:dt=""r8"">0</Current><DateUtc dt:dt=""string"">2015-07-14T15:22:22Z</DateUtc></FrequencyChange></FrequencyChanges></Clock>\n"	Arrow Flanker 2014-12417-1	60.019	1.0.0.98	1	-1866323318	Professional	2.0.10.353	2.0.10.353	07-14-2015	7/14/2015 3:22:22 PM	11:22:22	2.0.10.248	10	NA	NA	NA	NA	NA	NA	NA	NA	NA	NA	NA	NA	NA	NA	NA	NA	NA	NA	NA	NA	NA	NA	NA	NA	1	9	9	PracBlockProc	PracBlockList	NA	4	{RIGHTARROW}	-100	NA	1403	congruent	NA	NA	NA	0	16	694645	0	1	{RIGHTARROW}	-999999	0	696561	0	{RIGHTARROW}	633	697194	NA	4	9	52	NA	NA	PracTrialProc	PracTrialList	NA	NA	NA	NA	NA	NA	NA	NA	NA	NA	NA	NA	NA	NA	NA	NA	NA	NA	right	NA	rrrrr.bmp	354	NA	NA	NA	NA	NA	NA	NA	NA	NA	NA	NA	NA	NA	NA	NA	NA	NA	NA	NA	NA	NA
Arrow Flanker 2014	12417	1	"<?xml version=""1.0""?>\n<Clock xmlns:dt=""urn:schemas-microsoft-com:datatypes""><Description dt:dt=""string"">E-Prime Primary Realtime Clock</Description><StartTime><Timestamp dt:dt=""int"">0</Timestamp><DateUtc dt:dt=""string"">2015-07-14T15:22:22Z</DateUtc></StartTime><FrequencyChanges><FrequencyChange><Frequency dt:dt=""r8"">2825703</Frequency><Timestamp dt:dt=""r8"">8381909281289</Timestamp><Current dt:dt=""r8"">0</Current><DateUtc dt:dt=""string"">2015-07-14T15:22:22Z</DateUtc></FrequencyChange></FrequencyChanges></Clock>\n"	Arrow Flanker 2014-12417-1	60.019	1.0.0.98	1	-1866323318	Professional	2.0.10.353	2.0.10.353	07-14-2015	7/14/2015 3:22:22 PM	11:22:22	2.0.10.248	10	NA	NA	NA	NA	NA	NA	NA	NA	NA	NA	NA	NA	NA	NA	NA	NA	NA	NA	NA	NA	NA	NA	NA	NA	1	9	9	PracBlockProc	PracBlockList	NA	5	{LEFTARROW}	-100	NA	572	neutral	NA	NA	NA	0	16	698727	0	1	{LEFTARROW}	-999999	16	699827	0	{LEFTARROW}	623	700450	NA	3	9	53	NA	NA	PracTrialProc	PracTrialList	NA	NA	NA	NA	NA	NA	NA	NA	NA	NA	NA	NA	NA	NA	NA	NA	NA	NA	left	NA	ooloo.bmp	354	NA	NA	NA	NA	NA	NA	NA	NA	NA	NA	NA	NA	NA	NA	NA	NA	NA	NA	NA	NA	NA
Arrow Flanker 2014	12417	1	"<?xml version=""1.0""?>\n<Clock xmlns:dt=""urn:schemas-microsoft-com:datatypes""><Description dt:dt=""string"">E-Prime Primary Realtime Clock</Description><StartTime><Timestamp dt:dt=""int"">0</Timestamp><DateUtc dt:dt=""string"">2015-07-14T15:22:22Z</DateUtc></StartTime><FrequencyChanges><FrequencyChange><Frequency dt:dt=""r8"">2825703</Frequency><Timestamp dt:dt=""r8"">8381909281289</Timestamp><Current dt:dt=""r8"">0</Current><DateUtc dt:dt=""string"">2015-07-14T15:22:22Z</DateUtc></FrequencyChange></FrequencyChanges></Clock>\n"	Arrow Flanker 2014-12417-1	60.019	1.0.0.98	1	-1866323318	Professional	2.0.10.353	2.0.10.353	07-14-2015	7/14/2015 3:22:22 PM	11:22:22	2.0.10.248	10	NA	NA	NA	NA	NA	NA	NA	NA	NA	NA	NA	NA	NA	NA	NA	NA	NA	NA	NA	NA	NA	NA	NA	NA	1	9	9	PracBlockProc	PracBlockList	NA	6	{RIGHTARROW}	-100	NA	444	incongruent	NA	NA	NA	0	16	701976	0	1	{RIGHTARROW}	-999999	0	702926	0	{RIGHTARROW}	604	703530	NA	5	9	54	NA	NA	PracTrialProc	PracTrialList	NA	NA	NA	NA	NA	NA	NA	NA	NA	NA	NA	NA	NA	NA	NA	NA	NA	NA	right	NA	llrll.bmp	354	NA	NA	NA	NA	NA	NA	NA	NA	NA	NA	NA	NA	NA	NA	NA	NA	NA	NA	NA	NA	NA
Arrow Flanker 2014	12417	1	"<?xml version=""1.0""?>\n<Clock xmlns:dt=""urn:schemas-microsoft-com:datatypes""><Description dt:dt=""string"">E-Prime Primary Realtime Clock</Description><StartTime><Timestamp dt:dt=""int"">0</Timestamp><DateUtc dt:dt=""string"">2015-07-14T15:22:22Z</DateUtc></StartTime><FrequencyChanges><FrequencyChange><Frequency dt:dt=""r8"">2825703</Frequency><Timestamp dt:dt=""r8"">8381909281289</Timestamp><Current dt:dt=""r8"">0</Current><DateUtc dt:dt=""string"">2015-07-14T15:22:22Z</DateUtc></FrequencyChange></FrequencyChanges></Clock>\n"	Arrow Flanker 2014-12417-1	60.019	1.0.0.98	1	-1866323318	Professional	2.0.10.353	2.0.10.353	07-14-2015	7/14/2015 3:22:22 PM	11:22:22	2.0.10.248	11	1	1	1	NA	NA	NA	NA	NA	NA	NA	NA	NA	NA	NA	NA	NA	NA	NA	NA	NA	NA	NA	NA	NA	NA	NA	NA	BlockProc	BlockList	NA	1	{LEFTARROW}	NA	-100	1861	neutral	NA	NA	NA	NA	NA	NA	NA	NA	NA	NA	NA	NA	NA	NA	NA	NA	NA	NA	NA	NA	NA	NA	TrialProc	TrialList	1	19	712556	17	0	16	710590	817	1	{LEFTARROW}	-999999	0	711907	0	{LEFTARROW}	630	712537	NA	NA	left	ooloo.bmp	354	0	NA	0	0	0	0	NA	0	0	0	NA	0	0	0	0	NA	0	0	5	1	1
Arrow Flanker 2014	12417	1	"<?xml version=""1.0""?>\n<Clock xmlns:dt=""urn:schemas-microsoft-com:datatypes""><Description dt:dt=""string"">E-Prime Primary Realtime Clock</Description><StartTime><Timestamp dt:dt=""int"">0</Timestamp><DateUtc dt:dt=""string"">2015-07-14T15:22:22Z</DateUtc></StartTime><FrequencyChanges><FrequencyChange><Frequency dt:dt=""r8"">2825703</Frequency><Timestamp dt:dt=""r8"">8381909281289</Timestamp><Current dt:dt=""r8"">0</Current><DateUtc dt:dt=""string"">2015-07-14T15:22:22Z</DateUtc></FrequencyChange></FrequencyChanges></Clock>\n"	Arrow Flanker 2014-12417-1	60.019	1.0.0.98	1	-1866323318	Professional	2.0.10.353	2.0.10.353	07-14-2015	7/14/2015 3:22:22 PM	11:22:22	2.0.10.248	11	1	1	1	NA	NA	NA	NA	NA	NA	NA	NA	NA	NA	NA	NA	NA	NA	NA	NA	NA	NA	NA	NA	NA	NA	NA	NA	BlockProc	BlockList	NA	2	{RIGHTARROW}	NA	-100	1674	neutral	NA	NA	NA	NA	NA	NA	NA	NA	NA	NA	NA	NA	NA	NA	NA	NA	NA	NA	NA	NA	NA	NA	TrialProc	TrialList	1	5	714806	16	0	16	713089	650	1	{RIGHTARROW}	-999999	0	714239	0	{RIGHTARROW}	562	714801	NA	NA	right	ooroo.bmp	354	0	NA	0	0	0	0	NA	0	0	0	NA	0	0	0	0	NA	0	0	6	1	2
Arrow Flanker 2014	12417	1	"<?xml version=""1.0""?>\n<Clock xmlns:dt=""urn:schemas-microsoft-com:datatypes""><Description dt:dt=""string"">E-Prime Primary Realtime Clock</Description><StartTime><Timestamp dt:dt=""int"">0</Timestamp><DateUtc dt:dt=""string"">2015-07-14T15:22:22Z</DateUtc></StartTime><FrequencyChanges><FrequencyChange><Frequency dt:dt=""r8"">2825703</Frequency><Timestamp dt:dt=""r8"">8381909281289</Timestamp><Current dt:dt=""r8"">0</Current><DateUtc dt:dt=""string"">2015-07-14T15:22:22Z</DateUtc></FrequencyChange></FrequencyChanges></Clock>\n"	Arrow Flanker 2014-12417-1	60.019	1.0.0.98	1	-1866323318	Professional	2.0.10.353	2.0.10.353	07-14-2015	7/14/2015 3:22:22 PM	11:22:22	2.0.10.248	11	1	1	1	NA	NA	NA	NA	NA	NA	NA	NA	NA	NA	NA	NA	NA	NA	NA	NA	NA	NA	NA	NA	NA	NA	NA	NA	BlockProc	BlockList	NA	3	{RIGHTARROW}	NA	-100	2542	congruent	NA	NA	NA	NA	NA	NA	NA	NA	NA	NA	NA	NA	NA	NA	NA	NA	NA	NA	NA	NA	NA	NA	TrialProc	TrialList	0	8	717905	16	0	17	715339	1499	1	{RIGHTARROW}	-999999	0	717338	0	{RIGHTARROW}	559	717897	NA	NA	right	rrrrr.bmp	354	0	NA	0	0	0	0	NA	0	0	0	NA	0	0	0	0	NA	0	0	2	1	3
Arrow Flanker 2014	12417	1	"<?xml version=""1.0""?>\n<Clock xmlns:dt=""urn:schemas-microsoft-com:datatypes""><Description dt:dt=""string"">E-Prime Primary Realtime Clock</Description><StartTime><Timestamp dt:dt=""int"">0</Timestamp><DateUtc dt:dt=""string"">2015-07-14T15:22:22Z</DateUtc></StartTime><FrequencyChanges><FrequencyChange><Frequency dt:dt=""r8"">2825703</Frequency><Timestamp dt:dt=""r8"">8381909281289</Timestamp><Current dt:dt=""r8"">0</Current><DateUtc dt:dt=""string"">2015-07-14T15:22:22Z</DateUtc></FrequencyChange></FrequencyChanges></Clock>\n"	Arrow Flanker 2014-12417-1	60.019	1.0.0.98	1	-1866323318	Professional	2.0.10.353	2.0.10.353	07-14-2015	7/14/2015 3:22:22 PM	11:22:22	2.0.10.248	11	1	1	1	NA	NA	NA	NA	NA	NA	NA	NA	NA	NA	NA	NA	NA	NA	NA	NA	NA	NA	NA	NA	NA	NA	NA	NA	BlockProc	BlockList	NA	4	{RIGHTARROW}	NA	-100	1257	congruent	NA	NA	NA	NA	NA	NA	NA	NA	NA	NA	NA	NA	NA	NA	NA	NA	NA	NA	NA	NA	NA	NA	TrialProc	TrialList	0	17	720354	17	0	17	718438	800	1	{RIGHTARROW}	-999999	-1	719737	0	{RIGHTARROW}	599	720336	NA	NA	right	rrrrr.bmp	354	0	NA	0	0	0	0	NA	0	0	0	NA	0	0	0	0	NA	0	0	2	1	4
Arrow Flanker 2014	12417	1	"<?xml version=""1.0""?>\n<Clock xmlns:dt=""urn:schemas-microsoft-com:datatypes""><Description dt:dt=""string"">E-Prime Primary Realtime Clock</Description><StartTime><Timestamp dt:dt=""int"">0</Timestamp><DateUtc dt:dt=""string"">2015-07-14T15:22:22Z</DateUtc></StartTime><FrequencyChanges><FrequencyChange><Frequency dt:dt=""r8"">2825703</Frequency><Timestamp dt:dt=""r8"">8381909281289</Timestamp><Current dt:dt=""r8"">0</Current><DateUtc dt:dt=""string"">2015-07-14T15:22:22Z</DateUtc></FrequencyChange></FrequencyChanges></Clock>\n"	Arrow Flanker 2014-12417-1	60.019	1.0.0.98	1	-1866323318	Professional	2.0.10.353	2.0.10.353	07-14-2015	7/14/2015 3:22:22 PM	11:22:22	2.0.10.248	11	1	1	1	NA	NA	NA	NA	NA	NA	NA	NA	NA	NA	NA	NA	NA	NA	NA	NA	NA	NA	NA	NA	NA	NA	NA	NA	BlockProc	BlockList	NA	5	{LEFTARROW}	NA	-100	2017	neutral	NA	NA	NA	NA	NA	NA	NA	NA	NA	NA	NA	NA	NA	NA	NA	NA	NA	NA	NA	NA	NA	NA	TrialProc	TrialList	1	18	722986	17	0	16	720887	1083	1	{LEFTARROW}	-999999	0	722470	0	{LEFTARROW}	498	722968	NA	NA	left	ooloo.bmp	354	0	NA	0	0	0	0	NA	0	0	0	NA	0	0	0	0	NA	0	0	5	1	5
Arrow Flanker 2014	12417	1	"<?xml version=""1.0""?>\n<Clock xmlns:dt=""urn:schemas-microsoft-com:datatypes""><Description dt:dt=""string"">E-Prime Primary Realtime Clock</Description><StartTime><Timestamp dt:dt=""int"">0</Timestamp><DateUtc dt:dt=""string"">2015-07-14T15:22:22Z</DateUtc></StartTime><FrequencyChanges><FrequencyChange><Frequency dt:dt=""r8"">2825703</Frequency><Timestamp dt:dt=""r8"">8381909281289</Timestamp><Current dt:dt=""r8"">0</Current><DateUtc dt:dt=""string"">2015-07-14T15:22:22Z</DateUtc></FrequencyChange></FrequencyChanges></Clock>\n"	Arrow Flanker 2014-12417-1	60.019	1.0.0.98	1	-1866323318	Professional	2.0.10.353	2.0.10.353	07-14-2015	7/14/2015 3:22:22 PM	11:22:22	2.0.10.248	11	1	1	1	NA	NA	NA	NA	NA	NA	NA	NA	NA	NA	NA	NA	NA	NA	NA	NA	NA	NA	NA	NA	NA	NA	NA	NA	BlockProc	BlockList	NA	6	{RIGHTARROW}	NA	-100	2339	neutral	NA	NA	NA	NA	NA	NA	NA	NA	NA	NA	NA	NA	NA	NA	NA	NA	NA	NA	NA	NA	NA	NA	TrialProc	TrialList	1	12	725652	17	0	17	723520	1216	1	{RIGHTARROW}	-999999	0	725236	0	{RIGHTARROW}	404	725640	NA	NA	right	ooroo.bmp	354	0	NA	0	0	0	0	NA	0	0	0	NA	0	0	0	0	NA	0	0	6	1	6
Arrow Flanker 2014	12417	1	"<?xml version=""1.0""?>\n<Clock xmlns:dt=""urn:schemas-microsoft-com:datatypes""><Description dt:dt=""string"">E-Prime Primary Realtime Clock</Description><StartTime><Timestamp dt:dt=""int"">0</Timestamp><DateUtc dt:dt=""string"">2015-07-14T15:22:22Z</DateUtc></StartTime><FrequencyChanges><FrequencyChange><Frequency dt:dt=""r8"">2825703</Frequency><Timestamp dt:dt=""r8"">8381909281289</Timestamp><Current dt:dt=""r8"">0</Current><DateUtc dt:dt=""string"">2015-07-14T15:22:22Z</DateUtc></FrequencyChange></FrequencyChanges></Clock>\n"	Arrow Flanker 2014-12417-1	60.019	1.0.0.98	1	-1866323318	Professional	2.0.10.353	2.0.10.353	07-14-2015	7/14/2015 3:22:22 PM	11:22:22	2.0.10.248	11	1	1	1	NA	NA	NA	NA	NA	NA	NA	NA	NA	NA	NA	NA	NA	NA	NA	NA	NA	NA	NA	NA	NA	NA	NA	NA	BlockProc	BlockList	NA	7	{LEFTARROW}	NA	-100	2453	congruent	NA	NA	NA	NA	NA	NA	NA	NA	NA	NA	NA	NA	NA	NA	NA	NA	NA	NA	NA	NA	NA	NA	TrialProc	TrialList	1	13	728901	17	0	16	726185	1467	1	{LEFTARROW}	-999999	-1	728151	0	{LEFTARROW}	737	728888	NA	NA	left	lllll.bmp	354	0	NA	0	0	0	0	NA	0	0	0	NA	0	0	0	0	NA	0	0	1	1	7
Arrow Flanker 2014	12417	1	"<?xml version=""1.0""?>\n<Clock xmlns:dt=""urn:schemas-microsoft-com:datatypes""><Description dt:dt=""string"">E-Prime Primary Realtime Clock</Description><StartTime><Timestamp dt:dt=""int"">0</Timestamp><DateUtc dt:dt=""string"">2015-07-14T15:22:22Z</DateUtc></StartTime><FrequencyChanges><FrequencyChange><Frequency dt:dt=""r8"">2825703</Frequency><Timestamp dt:dt=""r8"">8381909281289</Timestamp><Current dt:dt=""r8"">0</Current><DateUtc dt:dt=""string"">2015-07-14T15:22:22Z</DateUtc></FrequencyChange></FrequencyChanges></Clock>\n"	Arrow Flanker 2014-12417-1	60.019	1.0.0.98	1	-1866323318	Professional	2.0.10.353	2.0.10.353	07-14-2015	7/14/2015 3:22:22 PM	11:22:22	2.0.10.248	11	1	1	1	NA	NA	NA	NA	NA	NA	NA	NA	NA	NA	NA	NA	NA	NA	NA	NA	NA	NA	NA	NA	NA	NA	NA	NA	BlockProc	BlockList	NA	8	{RIGHTARROW}	NA	-100	1658	incongruent	NA	NA	NA	NA	NA	NA	NA	NA	NA	NA	NA	NA	NA	NA	NA	NA	NA	NA	NA	NA	NA	NA	TrialProc	TrialList	0	5	731301	16	0	16	729434	817	1	{RIGHTARROW}	-999999	0	730751	0	{RIGHTARROW}	545	731296	NA	NA	right	llrll.bmp	354	0	NA	0	0	0	0	NA	0	0	0	NA	0	0	0	0	NA	0	0	4	1	8
Arrow Flanker 2014	12417	1	"<?xml version=""1.0""?>\n<Clock xmlns:dt=""urn:schemas-microsoft-com:datatypes""><Description dt:dt=""string"">E-Prime Primary Realtime Clock</Description><StartTime><Timestamp dt:dt=""int"">0</Timestamp><DateUtc dt:dt=""string"">2015-07-14T15:22:22Z</DateUtc></StartTime><FrequencyChanges><FrequencyChange><Frequency dt:dt=""r8"">2825703</Frequency><Timestamp dt:dt=""r8"">8381909281289</Timestamp><Current dt:dt=""r8"">0</Current><DateUtc dt:dt=""string"">2015-07-14T15:22:22Z</DateUtc></FrequencyChange></FrequencyChanges></Clock>\n"	Arrow Flanker 2014-12417-1	60.019	1.0.0.98	1	-1866323318	Professional	2.0.10.353	2.0.10.353	07-14-2015	7/14/2015 3:22:22 PM	11:22:22	2.0.10.248	11	1	1	1	NA	NA	NA	NA	NA	NA	NA	NA	NA	NA	NA	NA	NA	NA	NA	NA	NA	NA	NA	NA	NA	NA	NA	NA	BlockProc	BlockList	NA	9	{LEFTARROW}	NA	-100	1888	congruent	NA	NA	NA	NA	NA	NA	NA	NA	NA	NA	NA	NA	NA	NA	NA	NA	NA	NA	NA	NA	NA	NA	TrialProc	TrialList	0	15	733983	17	0	17	731834	1149	1	{LEFTARROW}	-999999	0	733483	0	{LEFTARROW}	484	733967	NA	NA	left	lllll.bmp	354	0	NA	0	0	0	0	NA	0	0	0	NA	0	0	0	0	NA	0	0	1	1	9
Arrow Flanker 2014	12417	1	"<?xml version=""1.0""?>\n<Clock xmlns:dt=""urn:schemas-microsoft-com:datatypes""><Description dt:dt=""string"">E-Prime Primary Realtime Clock</Description><StartTime><Timestamp dt:dt=""int"">0</Timestamp><DateUtc dt:dt=""string"">2015-07-14T15:22:22Z</DateUtc></StartTime><FrequencyChanges><FrequencyChange><Frequency dt:dt=""r8"">2825703</Frequency><Timestamp dt:dt=""r8"">8381909281289</Timestamp><Current dt:dt=""r8"">0</Current><DateUtc dt:dt=""string"">2015-07-14T15:22:22Z</DateUtc></FrequencyChange></FrequencyChanges></Clock>\n"	Arrow Flanker 2014-12417-1	60.019	1.0.0.98	1	-1866323318	Professional	2.0.10.353	2.0.10.353	07-14-2015	7/14/2015 3:22:22 PM	11:22:22	2.0.10.248	11	1	1	1	NA	NA	NA	NA	NA	NA	NA	NA	NA	NA	NA	NA	NA	NA	NA	NA	NA	NA	NA	NA	NA	NA	NA	NA	BlockProc	BlockList	NA	10	{LEFTARROW}	NA	-100	1458	congruent	NA	NA	NA	NA	NA	NA	NA	NA	NA	NA	NA	NA	NA	NA	NA	NA	NA	NA	NA	NA	NA	NA	TrialProc	TrialList	0	14	736949	16	0	16	734516	1466	0	{LEFTARROW}	-999999	0	736482	0	{RIGHTARROW}	453	736935	NA	NA	left	lllll.bmp	354	0	NA	0	0	0	0	NA	0	0	0	NA	0	0	0	0	NA	0	0	1	1	10
Arrow Flanker 2014	12417	1	"<?xml version=""1.0""?>\n<Clock xmlns:dt=""urn:schemas-microsoft-com:datatypes""><Description dt:dt=""string"">E-Prime Primary Realtime Clock</Description><StartTime><Timestamp dt:dt=""int"">0</Timestamp><DateUtc dt:dt=""string"">2015-07-14T15:22:22Z</DateUtc></StartTime><FrequencyChanges><FrequencyChange><Frequency dt:dt=""r8"">2825703</Frequency><Timestamp dt:dt=""r8"">8381909281289</Timestamp><Current dt:dt=""r8"">0</Current><DateUtc dt:dt=""string"">2015-07-14T15:22:22Z</DateUtc></FrequencyChange></FrequencyChanges></Clock>\n"	Arrow Flanker 2014-12417-1	60.019	1.0.0.98	1	-1866323318	Professional	2.0.10.353	2.0.10.353	07-14-2015	7/14/2015 3:22:22 PM	11:22:22	2.0.10.248	11	1	1	1	NA	NA	NA	NA	NA	NA	NA	NA	NA	NA	NA	NA	NA	NA	NA	NA	NA	NA	NA	NA	NA	NA	NA	NA	BlockProc	BlockList	NA	11	{LEFTARROW}	NA	-100	1162	incongruent	NA	NA	NA	NA	NA	NA	NA	NA	NA	NA	NA	NA	NA	NA	NA	NA	NA	NA	NA	NA	NA	NA	TrialProc	TrialList	1	6	739381	17	0	17	737482	783	1	{LEFTARROW}	-999999	0	738765	0	{LEFTARROW}	610	739375	NA	NA	left	rrlrr.bmp	354	0	NA	0	0	0	0	NA	0	0	0	NA	0	0	0	0	NA	0	0	3	1	11
Arrow Flanker 2014	12417	1	"<?xml version=""1.0""?>\n<Clock xmlns:dt=""urn:schemas-microsoft-com:datatypes""><Description dt:dt=""string"">E-Prime Primary Realtime Clock</Description><StartTime><Timestamp dt:dt=""int"">0</Timestamp><DateUtc dt:dt=""string"">2015-07-14T15:22:22Z</DateUtc></StartTime><FrequencyChanges><FrequencyChange><Frequency dt:dt=""r8"">2825703</Frequency><Timestamp dt:dt=""r8"">8381909281289</Timestamp><Current dt:dt=""r8"">0</Current><DateUtc dt:dt=""string"">2015-07-14T15:22:22Z</DateUtc></FrequencyChange></FrequencyChanges></Clock>\n"	Arrow Flanker 2014-12417-1	60.019	1.0.0.98	1	-1866323318	Professional	2.0.10.353	2.0.10.353	07-14-2015	7/14/2015 3:22:22 PM	11:22:22	2.0.10.248	11	1	1	1	NA	NA	NA	NA	NA	NA	NA	NA	NA	NA	NA	NA	NA	NA	NA	NA	NA	NA	NA	NA	NA	NA	NA	NA	BlockProc	BlockList	NA	12	{RIGHTARROW}	NA	-100	2062	neutral	NA	NA	NA	NA	NA	NA	NA	NA	NA	NA	NA	NA	NA	NA	NA	NA	NA	NA	NA	NA	NA	NA	TrialProc	TrialList	1	3	742130	17	0	16	739914	1233	1	{RIGHTARROW}	-999999	0	741647	0	{RIGHTARROW}	480	742127	NA	NA	right	ooroo.bmp	354	0	NA	0	0	0	0	NA	0	0	0	NA	0	0	0	0	NA	0	0	6	1	12
Arrow Flanker 2014	12417	1	"<?xml version=""1.0""?>\n<Clock xmlns:dt=""urn:schemas-microsoft-com:datatypes""><Description dt:dt=""string"">E-Prime Primary Realtime Clock</Description><StartTime><Timestamp dt:dt=""int"">0</Timestamp><DateUtc dt:dt=""string"">2015-07-14T15:22:22Z</DateUtc></StartTime><FrequencyChanges><FrequencyChange><Frequency dt:dt=""r8"">2825703</Frequency><Timestamp dt:dt=""r8"">8381909281289</Timestamp><Current dt:dt=""r8"">0</Current><DateUtc dt:dt=""string"">2015-07-14T15:22:22Z</DateUtc></FrequencyChange></FrequencyChanges></Clock>\n"	Arrow Flanker 2014-12417-1	60.019	1.0.0.98	1	-1866323318	Professional	2.0.10.353	2.0.10.353	07-14-2015	7/14/2015 3:22:22 PM	11:22:22	2.0.10.248	11	1	1	1	NA	NA	NA	NA	NA	NA	NA	NA	NA	NA	NA	NA	NA	NA	NA	NA	NA	NA	NA	NA	NA	NA	NA	NA	BlockProc	BlockList	NA	13	{RIGHTARROW}	NA	-100	1159	congruent	NA	NA	NA	NA	NA	NA	NA	NA	NA	NA	NA	NA	NA	NA	NA	NA	NA	NA	NA	NA	NA	NA	TrialProc	TrialList	0	6	745013	16	0	17	742664	1166	1	{RIGHTARROW}	-999999	0	744330	0	{RIGHTARROW}	677	745007	NA	NA	right	rrrrr.bmp	354	0	NA	0	0	0	0	NA	0	0	0	NA	0	0	0	0	NA	0	0	2	1	13
Arrow Flanker 2014	12417	1	"<?xml version=""1.0""?>\n<Clock xmlns:dt=""urn:schemas-microsoft-com:datatypes""><Description dt:dt=""string"">E-Prime Primary Realtime Clock</Description><StartTime><Timestamp dt:dt=""int"">0</Timestamp><DateUtc dt:dt=""string"">2015-07-14T15:22:22Z</DateUtc></StartTime><FrequencyChanges><FrequencyChange><Frequency dt:dt=""r8"">2825703</Frequency><Timestamp dt:dt=""r8"">8381909281289</Timestamp><Current dt:dt=""r8"">0</Current><DateUtc dt:dt=""string"">2015-07-14T15:22:22Z</DateUtc></FrequencyChange></FrequencyChanges></Clock>\n"	Arrow Flanker 2014-12417-1	60.019	1.0.0.98	1	-1866323318	Professional	2.0.10.353	2.0.10.353	07-14-2015	7/14/2015 3:22:22 PM	11:22:22	2.0.10.248	11	1	1	1	NA	NA	NA	NA	NA	NA	NA	NA	NA	NA	NA	NA	NA	NA	NA	NA	NA	NA	NA	NA	NA	NA	NA	NA	BlockProc	BlockList	NA	14	{RIGHTARROW}	NA	-100	2075	incongruent	NA	NA	NA	NA	NA	NA	NA	NA	NA	NA	NA	NA	NA	NA	NA	NA	NA	NA	NA	NA	NA	NA	TrialProc	TrialList	0	6	747812	17	0	17	745546	1033	1	{RIGHTARROW}	-999999	0	747079	0	{RIGHTARROW}	727	747806	NA	NA	right	llrll.bmp	354	0	NA	0	0	0	0	NA	0	0	0	NA	0	0	0	0	NA	0	0	4	1	14
Arrow Flanker 2014	12417	1	"<?xml version=""1.0""?>\n<Clock xmlns:dt=""urn:schemas-microsoft-com:datatypes""><Description dt:dt=""string"">E-Prime Primary Realtime Clock</Description><StartTime><Timestamp dt:dt=""int"">0</Timestamp><DateUtc dt:dt=""string"">2015-07-14T15:22:22Z</DateUtc></StartTime><FrequencyChanges><FrequencyChange><Frequency dt:dt=""r8"">2825703</Frequency><Timestamp dt:dt=""r8"">8381909281289</Timestamp><Current dt:dt=""r8"">0</Current><DateUtc dt:dt=""string"">2015-07-14T15:22:22Z</DateUtc></FrequencyChange></FrequencyChanges></Clock>\n"	Arrow Flanker 2014-12417-1	60.019	1.0.0.98	1	-1866323318	Professional	2.0.10.353	2.0.10.353	07-14-2015	7/14/2015 3:22:22 PM	11:22:22	2.0.10.248	11	1	1	1	NA	NA	NA	NA	NA	NA	NA	NA	NA	NA	NA	NA	NA	NA	NA	NA	NA	NA	NA	NA	NA	NA	NA	NA	BlockProc	BlockList	NA	15	{RIGHTARROW}	NA	-100	970	congruent	NA	NA	NA	NA	NA	NA	NA	NA	NA	NA	NA	NA	NA	NA	NA	NA	NA	NA	NA	NA	NA	NA	TrialProc	TrialList	1	9	750111	17	0	16	748345	733	1	{RIGHTARROW}	-999999	0	749578	0	{RIGHTARROW}	524	750102	NA	NA	right	rrrrr.bmp	354	0	NA	0	0	0	0	NA	0	0	0	NA	0	0	0	0	NA	0	0	2	1	15
Arrow Flanker 2014	12417	1	"<?xml version=""1.0""?>\n<Clock xmlns:dt=""urn:schemas-microsoft-com:datatypes""><Description dt:dt=""string"">E-Prime Primary Realtime Clock</Description><StartTime><Timestamp dt:dt=""int"">0</Timestamp><DateUtc dt:dt=""string"">2015-07-14T15:22:22Z</DateUtc></StartTime><FrequencyChanges><FrequencyChange><Frequency dt:dt=""r8"">2825703</Frequency><Timestamp dt:dt=""r8"">8381909281289</Timestamp><Current dt:dt=""r8"">0</Current><DateUtc dt:dt=""string"">2015-07-14T15:22:22Z</DateUtc></FrequencyChange></FrequencyChanges></Clock>\n"	Arrow Flanker 2014-12417-1	60.019	1.0.0.98	1	-1866323318	Professional	2.0.10.353	2.0.10.353	07-14-2015	7/14/2015 3:22:22 PM	11:22:22	2.0.10.248	11	1	1	1	NA	NA	NA	NA	NA	NA	NA	NA	NA	NA	NA	NA	NA	NA	NA	NA	NA	NA	NA	NA	NA	NA	NA	NA	BlockProc	BlockList	NA	16	{LEFTARROW}	NA	-100	1754	incongruent	NA	NA	NA	NA	NA	NA	NA	NA	NA	NA	NA	NA	NA	NA	NA	NA	NA	NA	NA	NA	NA	NA	TrialProc	TrialList	1	14	752860	17	0	16	750644	1083	1	{LEFTARROW}	-999999	0	752227	0	{LEFTARROW}	619	752846	NA	NA	left	rrlrr.bmp	354	0	NA	0	0	0	0	NA	0	0	0	NA	0	0	0	0	NA	0	0	3	1	16
Arrow Flanker 2014	12417	1	"<?xml version=""1.0""?>\n<Clock xmlns:dt=""urn:schemas-microsoft-com:datatypes""><Description dt:dt=""string"">E-Prime Primary Realtime Clock</Description><StartTime><Timestamp dt:dt=""int"">0</Timestamp><DateUtc dt:dt=""string"">2015-07-14T15:22:22Z</DateUtc></StartTime><FrequencyChanges><FrequencyChange><Frequency dt:dt=""r8"">2825703</Frequency><Timestamp dt:dt=""r8"">8381909281289</Timestamp><Current dt:dt=""r8"">0</Current><DateUtc dt:dt=""string"">2015-07-14T15:22:22Z</DateUtc></FrequencyChange></FrequencyChanges></Clock>\n"	Arrow Flanker 2014-12417-1	60.019	1.0.0.98	1	-1866323318	Professional	2.0.10.353	2.0.10.353	07-14-2015	7/14/2015 3:22:22 PM	11:22:22	2.0.10.248	11	1	1	1	NA	NA	NA	NA	NA	NA	NA	NA	NA	NA	NA	NA	NA	NA	NA	NA	NA	NA	NA	NA	NA	NA	NA	NA	BlockProc	BlockList	NA	17	{LEFTARROW}	NA	-100	647	congruent	NA	NA	NA	NA	NA	NA	NA	NA	NA	NA	NA	NA	NA	NA	NA	NA	NA	NA	NA	NA	NA	NA	TrialProc	TrialList	0	12	755010	16	0	17	753394	483	1	{LEFTARROW}	-999999	0	754377	0	{LEFTARROW}	621	754998	NA	NA	left	lllll.bmp	354	0	NA	0	0	0	0	NA	0	0	0	NA	0	0	0	0	NA	0	0	1	1	17
Arrow Flanker 2014	12417	1	"<?xml version=""1.0""?>\n<Clock xmlns:dt=""urn:schemas-microsoft-com:datatypes""><Description dt:dt=""string"">E-Prime Primary Realtime Clock</Description><StartTime><Timestamp dt:dt=""int"">0</Timestamp><DateUtc dt:dt=""string"">2015-07-14T15:22:22Z</DateUtc></StartTime><FrequencyChanges><FrequencyChange><Frequency dt:dt=""r8"">2825703</Frequency><Timestamp dt:dt=""r8"">8381909281289</Timestamp><Current dt:dt=""r8"">0</Current><DateUtc dt:dt=""string"">2015-07-14T15:22:22Z</DateUtc></FrequencyChange></FrequencyChanges></Clock>\n"	Arrow Flanker 2014-12417-1	60.019	1.0.0.98	1	-1866323318	Professional	2.0.10.353	2.0.10.353	07-14-2015	7/14/2015 3:22:22 PM	11:22:22	2.0.10.248	11	1	1	1	NA	NA	NA	NA	NA	NA	NA	NA	NA	NA	NA	NA	NA	NA	NA	NA	NA	NA	NA	NA	NA	NA	NA	NA	BlockProc	BlockList	NA	18	{LEFTARROW}	NA	-100	2064	neutral	NA	NA	NA	NA	NA	NA	NA	NA	NA	NA	NA	NA	NA	NA	NA	NA	NA	NA	NA	NA	NA	NA	TrialProc	TrialList	1	9	757975	17	0	17	755543	1050	1	{LEFTARROW}	-999999	0	757109	0	{LEFTARROW}	857	757966	NA	NA	left	ooloo.bmp	354	0	NA	0	0	0	0	NA	0	0	0	NA	0	0	0	0	NA	0	0	5	1	18
Arrow Flanker 2014	12417	1	"<?xml version=""1.0""?>\n<Clock xmlns:dt=""urn:schemas-microsoft-com:datatypes""><Description dt:dt=""string"">E-Prime Primary Realtime Clock</Description><StartTime><Timestamp dt:dt=""int"">0</Timestamp><DateUtc dt:dt=""string"">2015-07-14T15:22:22Z</DateUtc></StartTime><FrequencyChanges><FrequencyChange><Frequency dt:dt=""r8"">2825703</Frequency><Timestamp dt:dt=""r8"">8381909281289</Timestamp><Current dt:dt=""r8"">0</Current><DateUtc dt:dt=""string"">2015-07-14T15:22:22Z</DateUtc></FrequencyChange></FrequencyChanges></Clock>\n"	Arrow Flanker 2014-12417-1	60.019	1.0.0.98	1	-1866323318	Professional	2.0.10.353	2.0.10.353	07-14-2015	7/14/2015 3:22:22 PM	11:22:22	2.0.10.248	11	1	1	1	NA	NA	NA	NA	NA	NA	NA	NA	NA	NA	NA	NA	NA	NA	NA	NA	NA	NA	NA	NA	NA	NA	NA	NA	BlockProc	BlockList	NA	19	{LEFTARROW}	NA	-100	1253	incongruent	NA	NA	NA	NA	NA	NA	NA	NA	NA	NA	NA	NA	NA	NA	NA	NA	NA	NA	NA	NA	NA	NA	TrialProc	TrialList	1	6	760091	17	0	17	758509	449	1	{LEFTARROW}	-999999	0	759458	0	{LEFTARROW}	627	760085	NA	NA	left	rrlrr.bmp	354	0	NA	0	0	0	0	NA	0	0	0	NA	0	0	0	0	NA	0	0	3	1	19
Arrow Flanker 2014	12417	1	"<?xml version=""1.0""?>\n<Clock xmlns:dt=""urn:schemas-microsoft-com:datatypes""><Description dt:dt=""string"">E-Prime Primary Realtime Clock</Description><StartTime><Timestamp dt:dt=""int"">0</Timestamp><DateUtc dt:dt=""string"">2015-07-14T15:22:22Z</DateUtc></StartTime><FrequencyChanges><FrequencyChange><Frequency dt:dt=""r8"">2825703</Frequency><Timestamp dt:dt=""r8"">8381909281289</Timestamp><Current dt:dt=""r8"">0</Current><DateUtc dt:dt=""string"">2015-07-14T15:22:22Z</DateUtc></FrequencyChange></FrequencyChanges></Clock>\n"	Arrow Flanker 2014-12417-1	60.019	1.0.0.98	1	-1866323318	Professional	2.0.10.353	2.0.10.353	07-14-2015	7/14/2015 3:22:22 PM	11:22:22	2.0.10.248	11	1	1	1	NA	NA	NA	NA	NA	NA	NA	NA	NA	NA	NA	NA	NA	NA	NA	NA	NA	NA	NA	NA	NA	NA	NA	NA	BlockProc	BlockList	NA	20	{RIGHTARROW}	NA	-100	1037	neutral	NA	NA	NA	NA	NA	NA	NA	NA	NA	NA	NA	NA	NA	NA	NA	NA	NA	NA	NA	NA	NA	NA	TrialProc	TrialList	0	3	762608	16	0	17	760625	949	1	{RIGHTARROW}	-999999	0	762074	0	{RIGHTARROW}	531	762605	NA	NA	right	ooroo.bmp	354	0	NA	0	0	0	0	NA	0	0	0	NA	0	0	0	0	NA	0	0	6	1	20
Arrow Flanker 2014	12417	1	"<?xml version=""1.0""?>\n<Clock xmlns:dt=""urn:schemas-microsoft-com:datatypes""><Description dt:dt=""string"">E-Prime Primary Realtime Clock</Description><StartTime><Timestamp dt:dt=""int"">0</Timestamp><DateUtc dt:dt=""string"">2015-07-14T15:22:22Z</DateUtc></StartTime><FrequencyChanges><FrequencyChange><Frequency dt:dt=""r8"">2825703</Frequency><Timestamp dt:dt=""r8"">8381909281289</Timestamp><Current dt:dt=""r8"">0</Current><DateUtc dt:dt=""string"">2015-07-14T15:22:22Z</DateUtc></FrequencyChange></FrequencyChanges></Clock>\n"	Arrow Flanker 2014-12417-1	60.019	1.0.0.98	1	-1866323318	Professional	2.0.10.353	2.0.10.353	07-14-2015	7/14/2015 3:22:22 PM	11:22:22	2.0.10.248	11	1	1	1	NA	NA	NA	NA	NA	NA	NA	NA	NA	NA	NA	NA	NA	NA	NA	NA	NA	NA	NA	NA	NA	NA	NA	NA	BlockProc	BlockList	NA	21	{RIGHTARROW}	NA	-100	2011	incongruent	NA	NA	NA	NA	NA	NA	NA	NA	NA	NA	NA	NA	NA	NA	NA	NA	NA	NA	NA	NA	NA	NA	TrialProc	TrialList	1	14	765323	17	0	16	763140	1300	0	{RIGHTARROW}	-999999	0	764940	0	{LEFTARROW}	369	765309	NA	NA	right	llrll.bmp	354	0	NA	0	0	0	0	NA	0	0	0	NA	0	0	0	0	NA	0	0	4	1	21
Arrow Flanker 2014	12417	1	"<?xml version=""1.0""?>\n<Clock xmlns:dt=""urn:schemas-microsoft-com:datatypes""><Description dt:dt=""string"">E-Prime Primary Realtime Clock</Description><StartTime><Timestamp dt:dt=""int"">0</Timestamp><DateUtc dt:dt=""string"">2015-07-14T15:22:22Z</DateUtc></StartTime><FrequencyChanges><FrequencyChange><Frequency dt:dt=""r8"">2825703</Frequency><Timestamp dt:dt=""r8"">8381909281289</Timestamp><Current dt:dt=""r8"">0</Current><DateUtc dt:dt=""string"">2015-07-14T15:22:22Z</DateUtc></FrequencyChange></FrequencyChanges></Clock>\n"	Arrow Flanker 2014-12417-1	60.019	1.0.0.98	1	-1866323318	Professional	2.0.10.353	2.0.10.353	07-14-2015	7/14/2015 3:22:22 PM	11:22:22	2.0.10.248	11	1	1	1	NA	NA	NA	NA	NA	NA	NA	NA	NA	NA	NA	NA	NA	NA	NA	NA	NA	NA	NA	NA	NA	NA	NA	NA	BlockProc	BlockList	NA	22	{LEFTARROW}	NA	-100	2369	congruent	NA	NA	NA	NA	NA	NA	NA	NA	NA	NA	NA	NA	NA	NA	NA	NA	NA	NA	NA	NA	3	1	TrialProc	TrialList	1	4	768505	17	0	16	765856	1500	1	{LEFTARROW}	-999999	0	767856	0	{LEFTARROW}	645	768501	NA	NA	left	lllll.bmp	354	0	NA	-999999	17	769039	0	1	15505	784544	0	NA	-999999	23	784567	0	1	4096	788663	1	1	22
Arrow Flanker 2014	12417	1	"<?xml version=""1.0""?>\n<Clock xmlns:dt=""urn:schemas-microsoft-com:datatypes""><Description dt:dt=""string"">E-Prime Primary Realtime Clock</Description><StartTime><Timestamp dt:dt=""int"">0</Timestamp><DateUtc dt:dt=""string"">2015-07-14T15:22:22Z</DateUtc></StartTime><FrequencyChanges><FrequencyChange><Frequency dt:dt=""r8"">2825703</Frequency><Timestamp dt:dt=""r8"">8381909281289</Timestamp><Current dt:dt=""r8"">0</Current><DateUtc dt:dt=""string"">2015-07-14T15:22:22Z</DateUtc></FrequencyChange></FrequencyChanges></Clock>\n"	Arrow Flanker 2014-12417-1	60.019	1.0.0.98	1	-1866323318	Professional	2.0.10.353	2.0.10.353	07-14-2015	7/14/2015 3:22:22 PM	11:22:22	2.0.10.248	11	1	1	1	NA	NA	NA	NA	NA	NA	NA	NA	NA	NA	NA	NA	NA	NA	NA	NA	NA	NA	NA	NA	NA	NA	NA	NA	BlockProc	BlockList	NA	23	{RIGHTARROW}	NA	-100	676	incongruent	NA	NA	NA	NA	NA	NA	NA	NA	NA	NA	NA	NA	NA	NA	NA	NA	NA	NA	NA	NA	NA	NA	TrialProc	TrialList	0	16	793981	16	0	20	791615	450	0	{RIGHTARROW}	0	0	792565	1416	NA	0	0	NA	NA	right	llrll.bmp	354	0	NA	0	0	0	0	NA	0	0	0	NA	0	0	0	0	NA	0	0	4	1	23
