ExperimentName	Subject	Session	Clock.Information	DataFile.Basename	Display.RefreshRate	ExperimentVersion	Group	RandomSeed	RuntimeCapabilities	RuntimeVersion	RuntimeVersionExpected	SessionDate	SessionStartDateTimeUtc	SessionTime	StudioVersion	Block	BlockList	BlockList.Cycle	BlockList.Sample	Both	CompletelyMW	CongMeanRT	CongTotal	Fragmented	GoodByeList	GoodByeList.Cycle	GoodByeList.Sample	IncongMeanRT	IncongTotal	MapBlockList	MapBlockList.Cycle	MapBlockList.Sample	Mindwandering	MostlyMW	MostlyOT	NeutralMeanRT	NeutralTotal	NumberProbes1	NumberProbes2	OnTask	PracBlockList	PracBlockList.Cycle	PracBlockList.Sample	Procedure[Block]	Running[Block]	Sequential	Trial	CorrectAnswer	CuePositionY	CuePositionY2	DurationOfFixation	FlankerType	MapTrialList	MapTrialList.Cycle	MapTrialList.Sample	PracSlideFixationStart.DurationError	PracSlideFixationStart.OnsetDelay	PracSlideFixationStart.OnsetTime	PracSlideFixationStart.OnsetToOnsetTime	PracSlideTarget.ACC	PracSlideTarget.CRESP	PracSlideTarget.DurationError	PracSlideTarget.OnsetDelay	PracSlideTarget.OnsetTime	PracSlideTarget.OnsetToOnsetTime	PracSlideTarget.RESP	PracSlideTarget.RT	PracSlideTarget.RTTime	PracSlideTarget.Tag	PracTrialList	PracTrialList.Cycle	PracTrialList.Sample	Probe1Resp	Probe2Resp	Procedure[Trial]	Running[Trial]	SlideFixationEnd.DurationError	SlideFixationEnd.OnsetDelay	SlideFixationEnd.OnsetTime	SlideFixationEnd.OnsetToOnsetTime	SlideFixationStart.DurationError	SlideFixationStart.OnsetDelay	SlideFixationStart.OnsetTime	SlideFixationStart.OnsetToOnsetTime	SlideTarget.ACC	SlideTarget.CRESP	SlideTarget.DurationError	SlideTarget.OnsetDelay	SlideTarget.OnsetTime	SlideTarget.OnsetToOnsetTime	SlideTarget.RESP	SlideTarget.RT	SlideTarget.RTTime	SlideTarget.Tag	TargerDirection	TargetDirection	TargetImage	TargetPosition	ThoughtProbe1.ACC	ThoughtProbe1.CRESP	ThoughtProbe1.DurationError	ThoughtProbe1.OnsetDelay	ThoughtProbe1.OnsetTime	ThoughtProbe1.OnsetToOnsetTime	ThoughtProbe1.RESP	ThoughtProbe1.RT	ThoughtProbe1.RTTime	ThoughtProbe2.ACC	ThoughtProbe2.CRESP	ThoughtProbe2.DurationError	ThoughtProbe2.OnsetDelay	ThoughtProbe2.OnsetTime	ThoughtProbe2.OnsetToOnsetTime	ThoughtProbe2.RESP	ThoughtProbe2.RT	ThoughtProbe2.RTTime	TrialList	TrialList.Cycle	TrialList.Sample
Arrow Flanker 2014	12427	1	"<?xml version=""1.0""?>\n<Clock xmlns:dt=""urn:schemas-microsoft-com:datatypes""><Description dt:dt=""string"">E-Prime Primary Realtime Clock</Description><StartTime><Timestamp dt:dt=""int"">0</Timestamp><DateUtc dt:dt=""string"">2015-07-17T14:57:03Z</DateUtc></StartTime><FrequencyChanges><FrequencyChange><Frequency dt:dt=""r8"">2825664</Frequency><Timestamp dt:dt=""r8"">321060400683</Timestamp><Current dt:dt=""r8"">0</Current><DateUtc dt:dt=""string"">2015-07-17T14:57:03Z</DateUtc></FrequencyChange></FrequencyChanges></Clock>\n"	Arrow Flanker 2014-12427-1	60.018	1.0.0.98	1	-1061605335	Professional	2.0.10.353	2.0.10.353	07-17-2015	7/17/2015 2:57:03 PM	10:57:03	2.0.10.248	1	NA	NA	NA	NA	NA	NA	NA	NA	NA	NA	NA	NA	NA	1	1	1	NA	NA	NA	NA	NA	NA	NA	NA	NA	NA	NA	MapBlockProc	MapBlockList	NA	1	{LEFTARROW}	-100	NA	1226	NA	1	1	1	0	22	292664	1233	1	{LEFTARROW}	-999999	0	294397	0	{LEFTARROW}	717	295114	NA	NA	NA	NA	NA	NA	MapTrialProc	MapTrialList	NA	NA	NA	NA	NA	NA	NA	NA	NA	NA	NA	NA	NA	NA	NA	NA	NA	NA	left	NA	L.bmp	354	NA	NA	NA	NA	NA	NA	NA	NA	NA	NA	NA	NA	NA	NA	NA	NA	NA	NA	NA	NA	NA
Arrow Flanker 2014	12427	1	"<?xml version=""1.0""?>\n<Clock xmlns:dt=""urn:schemas-microsoft-com:datatypes""><Description dt:dt=""string"">E-Prime Primary Realtime Clock</Description><StartTime><Timestamp dt:dt=""int"">0</Timestamp><DateUtc dt:dt=""string"">2015-07-17T14:57:03Z</DateUtc></StartTime><FrequencyChanges><FrequencyChange><Frequency dt:dt=""r8"">2825664</Frequency><Timestamp dt:dt=""r8"">321060400683</Timestamp><Current dt:dt=""r8"">0</Current><DateUtc dt:dt=""string"">2015-07-17T14:57:03Z</DateUtc></FrequencyChange></FrequencyChanges></Clock>\n"	Arrow Flanker 2014-12427-1	60.018	1.0.0.98	1	-1061605335	Professional	2.0.10.353	2.0.10.353	07-17-2015	7/17/2015 2:57:03 PM	10:57:03	2.0.10.248	1	NA	NA	NA	NA	NA	NA	NA	NA	NA	NA	NA	NA	NA	1	1	1	NA	NA	NA	NA	NA	NA	NA	NA	NA	NA	NA	MapBlockProc	MapBlockList	NA	2	{RIGHTARROW}	-100	NA	1190	NA	2	1	2	0	16	296646	1200	1	{RIGHTARROW}	-999999	0	298346	0	{RIGHTARROW}	399	298745	NA	NA	NA	NA	NA	NA	MapTrialProc	MapTrialList	NA	NA	NA	NA	NA	NA	NA	NA	NA	NA	NA	NA	NA	NA	NA	NA	NA	NA	right	NA	R.bmp	354	NA	NA	NA	NA	NA	NA	NA	NA	NA	NA	NA	NA	NA	NA	NA	NA	NA	NA	NA	NA	NA
Arrow Flanker 2014	12427	1	"<?xml version=""1.0""?>\n<Clock xmlns:dt=""urn:schemas-microsoft-com:datatypes""><Description dt:dt=""string"">E-Prime Primary Realtime Clock</Description><StartTime><Timestamp dt:dt=""int"">0</Timestamp><DateUtc dt:dt=""string"">2015-07-17T14:57:03Z</DateUtc></StartTime><FrequencyChanges><FrequencyChange><Frequency dt:dt=""r8"">2825664</Frequency><Timestamp dt:dt=""r8"">321060400683</Timestamp><Current dt:dt=""r8"">0</Current><DateUtc dt:dt=""string"">2015-07-17T14:57:03Z</DateUtc></FrequencyChange></FrequencyChanges></Clock>\n"	Arrow Flanker 2014-12427-1	60.018	1.0.0.98	1	-1061605335	Professional	2.0.10.353	2.0.10.353	07-17-2015	7/17/2015 2:57:03 PM	10:57:03	2.0.10.248	1	NA	NA	NA	NA	NA	NA	NA	NA	NA	NA	NA	NA	NA	1	1	1	NA	NA	NA	NA	NA	NA	NA	NA	NA	NA	NA	MapBlockProc	MapBlockList	NA	3	{LEFTARROW}	-100	NA	753	NA	1	1	3	0	17	300279	766	1	{LEFTARROW}	-999999	0	301545	0	{LEFTARROW}	352	301897	NA	NA	NA	NA	NA	NA	MapTrialProc	MapTrialList	NA	NA	NA	NA	NA	NA	NA	NA	NA	NA	NA	NA	NA	NA	NA	NA	NA	NA	left	NA	L.bmp	354	NA	NA	NA	NA	NA	NA	NA	NA	NA	NA	NA	NA	NA	NA	NA	NA	NA	NA	NA	NA	NA
Arrow Flanker 2014	12427	1	"<?xml version=""1.0""?>\n<Clock xmlns:dt=""urn:schemas-microsoft-com:datatypes""><Description dt:dt=""string"">E-Prime Primary Realtime Clock</Description><StartTime><Timestamp dt:dt=""int"">0</Timestamp><DateUtc dt:dt=""string"">2015-07-17T14:57:03Z</DateUtc></StartTime><FrequencyChanges><FrequencyChange><Frequency dt:dt=""r8"">2825664</Frequency><Timestamp dt:dt=""r8"">321060400683</Timestamp><Current dt:dt=""r8"">0</Current><DateUtc dt:dt=""string"">2015-07-17T14:57:03Z</DateUtc></FrequencyChange></FrequencyChanges></Clock>\n"	Arrow Flanker 2014-12427-1	60.018	1.0.0.98	1	-1061605335	Professional	2.0.10.353	2.0.10.353	07-17-2015	7/17/2015 2:57:03 PM	10:57:03	2.0.10.248	1	NA	NA	NA	NA	NA	NA	NA	NA	NA	NA	NA	NA	NA	1	1	1	NA	NA	NA	NA	NA	NA	NA	NA	NA	NA	NA	MapBlockProc	MapBlockList	NA	4	{RIGHTARROW}	-100	NA	1572	NA	2	1	4	0	17	303428	1583	1	{RIGHTARROW}	-999999	16	305527	0	{RIGHTARROW}	466	305993	NA	NA	NA	NA	NA	NA	MapTrialProc	MapTrialList	NA	NA	NA	NA	NA	NA	NA	NA	NA	NA	NA	NA	NA	NA	NA	NA	NA	NA	right	NA	R.bmp	354	NA	NA	NA	NA	NA	NA	NA	NA	NA	NA	NA	NA	NA	NA	NA	NA	NA	NA	NA	NA	NA
Arrow Flanker 2014	12427	1	"<?xml version=""1.0""?>\n<Clock xmlns:dt=""urn:schemas-microsoft-com:datatypes""><Description dt:dt=""string"">E-Prime Primary Realtime Clock</Description><StartTime><Timestamp dt:dt=""int"">0</Timestamp><DateUtc dt:dt=""string"">2015-07-17T14:57:03Z</DateUtc></StartTime><FrequencyChanges><FrequencyChange><Frequency dt:dt=""r8"">2825664</Frequency><Timestamp dt:dt=""r8"">321060400683</Timestamp><Current dt:dt=""r8"">0</Current><DateUtc dt:dt=""string"">2015-07-17T14:57:03Z</DateUtc></FrequencyChange></FrequencyChanges></Clock>\n"	Arrow Flanker 2014-12427-1	60.018	1.0.0.98	1	-1061605335	Professional	2.0.10.353	2.0.10.353	07-17-2015	7/17/2015 2:57:03 PM	10:57:03	2.0.10.248	1	NA	NA	NA	NA	NA	NA	NA	NA	NA	NA	NA	NA	NA	1	1	1	NA	NA	NA	NA	NA	NA	NA	NA	NA	NA	NA	MapBlockProc	MapBlockList	NA	5	{RIGHTARROW}	-100	NA	1219	NA	2	1	5	0	16	307526	1233	0	{RIGHTARROW}	-999999	0	309259	0	{LEFTARROW}	422	309681	NA	NA	NA	NA	NA	NA	MapTrialProc	MapTrialList	NA	NA	NA	NA	NA	NA	NA	NA	NA	NA	NA	NA	NA	NA	NA	NA	NA	NA	right	NA	R.bmp	354	NA	NA	NA	NA	NA	NA	NA	NA	NA	NA	NA	NA	NA	NA	NA	NA	NA	NA	NA	NA	NA
Arrow Flanker 2014	12427	1	"<?xml version=""1.0""?>\n<Clock xmlns:dt=""urn:schemas-microsoft-com:datatypes""><Description dt:dt=""string"">E-Prime Primary Realtime Clock</Description><StartTime><Timestamp dt:dt=""int"">0</Timestamp><DateUtc dt:dt=""string"">2015-07-17T14:57:03Z</DateUtc></StartTime><FrequencyChanges><FrequencyChange><Frequency dt:dt=""r8"">2825664</Frequency><Timestamp dt:dt=""r8"">321060400683</Timestamp><Current dt:dt=""r8"">0</Current><DateUtc dt:dt=""string"">2015-07-17T14:57:03Z</DateUtc></FrequencyChange></FrequencyChanges></Clock>\n"	Arrow Flanker 2014-12427-1	60.018	1.0.0.98	1	-1061605335	Professional	2.0.10.353	2.0.10.353	07-17-2015	7/17/2015 2:57:03 PM	10:57:03	2.0.10.248	1	NA	NA	NA	NA	NA	NA	NA	NA	NA	NA	NA	NA	NA	1	1	1	NA	NA	NA	NA	NA	NA	NA	NA	NA	NA	NA	MapBlockProc	MapBlockList	NA	6	{LEFTARROW}	-100	NA	729	NA	1	1	6	0	17	311209	733	1	{LEFTARROW}	-999999	0	312442	0	{LEFTARROW}	478	312920	NA	NA	NA	NA	NA	NA	MapTrialProc	MapTrialList	NA	NA	NA	NA	NA	NA	NA	NA	NA	NA	NA	NA	NA	NA	NA	NA	NA	NA	left	NA	L.bmp	354	NA	NA	NA	NA	NA	NA	NA	NA	NA	NA	NA	NA	NA	NA	NA	NA	NA	NA	NA	NA	NA
Arrow Flanker 2014	12427	1	"<?xml version=""1.0""?>\n<Clock xmlns:dt=""urn:schemas-microsoft-com:datatypes""><Description dt:dt=""string"">E-Prime Primary Realtime Clock</Description><StartTime><Timestamp dt:dt=""int"">0</Timestamp><DateUtc dt:dt=""string"">2015-07-17T14:57:03Z</DateUtc></StartTime><FrequencyChanges><FrequencyChange><Frequency dt:dt=""r8"">2825664</Frequency><Timestamp dt:dt=""r8"">321060400683</Timestamp><Current dt:dt=""r8"">0</Current><DateUtc dt:dt=""string"">2015-07-17T14:57:03Z</DateUtc></FrequencyChange></FrequencyChanges></Clock>\n"	Arrow Flanker 2014-12427-1	60.018	1.0.0.98	1	-1061605335	Professional	2.0.10.353	2.0.10.353	07-17-2015	7/17/2015 2:57:03 PM	10:57:03	2.0.10.248	1	NA	NA	NA	NA	NA	NA	NA	NA	NA	NA	NA	NA	NA	1	1	1	NA	NA	NA	NA	NA	NA	NA	NA	NA	NA	NA	MapBlockProc	MapBlockList	NA	7	{RIGHTARROW}	-100	NA	1600	NA	2	1	7	0	16	314458	1616	1	{RIGHTARROW}	-999999	0	316574	0	{RIGHTARROW}	466	317040	NA	NA	NA	NA	NA	NA	MapTrialProc	MapTrialList	NA	NA	NA	NA	NA	NA	NA	NA	NA	NA	NA	NA	NA	NA	NA	NA	NA	NA	right	NA	R.bmp	354	NA	NA	NA	NA	NA	NA	NA	NA	NA	NA	NA	NA	NA	NA	NA	NA	NA	NA	NA	NA	NA
Arrow Flanker 2014	12427	1	"<?xml version=""1.0""?>\n<Clock xmlns:dt=""urn:schemas-microsoft-com:datatypes""><Description dt:dt=""string"">E-Prime Primary Realtime Clock</Description><StartTime><Timestamp dt:dt=""int"">0</Timestamp><DateUtc dt:dt=""string"">2015-07-17T14:57:03Z</DateUtc></StartTime><FrequencyChanges><FrequencyChange><Frequency dt:dt=""r8"">2825664</Frequency><Timestamp dt:dt=""r8"">321060400683</Timestamp><Current dt:dt=""r8"">0</Current><DateUtc dt:dt=""string"">2015-07-17T14:57:03Z</DateUtc></FrequencyChange></FrequencyChanges></Clock>\n"	Arrow Flanker 2014-12427-1	60.018	1.0.0.98	1	-1061605335	Professional	2.0.10.353	2.0.10.353	07-17-2015	7/17/2015 2:57:03 PM	10:57:03	2.0.10.248	1	NA	NA	NA	NA	NA	NA	NA	NA	NA	NA	NA	NA	NA	1	1	1	NA	NA	NA	NA	NA	NA	NA	NA	NA	NA	NA	MapBlockProc	MapBlockList	NA	8	{LEFTARROW}	-100	NA	873	NA	1	1	8	0	16	318573	883	1	{LEFTARROW}	-999999	0	319956	0	{LEFTARROW}	476	320432	NA	NA	NA	NA	NA	NA	MapTrialProc	MapTrialList	NA	NA	NA	NA	NA	NA	NA	NA	NA	NA	NA	NA	NA	NA	NA	NA	NA	NA	left	NA	L.bmp	354	NA	NA	NA	NA	NA	NA	NA	NA	NA	NA	NA	NA	NA	NA	NA	NA	NA	NA	NA	NA	NA
Arrow Flanker 2014	12427	1	"<?xml version=""1.0""?>\n<Clock xmlns:dt=""urn:schemas-microsoft-com:datatypes""><Description dt:dt=""string"">E-Prime Primary Realtime Clock</Description><StartTime><Timestamp dt:dt=""int"">0</Timestamp><DateUtc dt:dt=""string"">2015-07-17T14:57:03Z</DateUtc></StartTime><FrequencyChanges><FrequencyChange><Frequency dt:dt=""r8"">2825664</Frequency><Timestamp dt:dt=""r8"">321060400683</Timestamp><Current dt:dt=""r8"">0</Current><DateUtc dt:dt=""string"">2015-07-17T14:57:03Z</DateUtc></FrequencyChange></FrequencyChanges></Clock>\n"	Arrow Flanker 2014-12427-1	60.018	1.0.0.98	1	-1061605335	Professional	2.0.10.353	2.0.10.353	07-17-2015	7/17/2015 2:57:03 PM	10:57:03	2.0.10.248	1	NA	NA	NA	NA	NA	NA	NA	NA	NA	NA	NA	NA	NA	1	1	1	NA	NA	NA	NA	NA	NA	NA	NA	NA	NA	NA	MapBlockProc	MapBlockList	NA	9	{RIGHTARROW}	-100	NA	768	NA	2	1	9	0	16	321972	783	1	{RIGHTARROW}	-999999	0	323255	0	{RIGHTARROW}	481	323736	NA	NA	NA	NA	NA	NA	MapTrialProc	MapTrialList	NA	NA	NA	NA	NA	NA	NA	NA	NA	NA	NA	NA	NA	NA	NA	NA	NA	NA	right	NA	R.bmp	354	NA	NA	NA	NA	NA	NA	NA	NA	NA	NA	NA	NA	NA	NA	NA	NA	NA	NA	NA	NA	NA
Arrow Flanker 2014	12427	1	"<?xml version=""1.0""?>\n<Clock xmlns:dt=""urn:schemas-microsoft-com:datatypes""><Description dt:dt=""string"">E-Prime Primary Realtime Clock</Description><StartTime><Timestamp dt:dt=""int"">0</Timestamp><DateUtc dt:dt=""string"">2015-07-17T14:57:03Z</DateUtc></StartTime><FrequencyChanges><FrequencyChange><Frequency dt:dt=""r8"">2825664</Frequency><Timestamp dt:dt=""r8"">321060400683</Timestamp><Current dt:dt=""r8"">0</Current><DateUtc dt:dt=""string"">2015-07-17T14:57:03Z</DateUtc></FrequencyChange></FrequencyChanges></Clock>\n"	Arrow Flanker 2014-12427-1	60.018	1.0.0.98	1	-1061605335	Professional	2.0.10.353	2.0.10.353	07-17-2015	7/17/2015 2:57:03 PM	10:57:03	2.0.10.248	1	NA	NA	NA	NA	NA	NA	NA	NA	NA	NA	NA	NA	NA	1	1	1	NA	NA	NA	NA	NA	NA	NA	NA	NA	NA	NA	MapBlockProc	MapBlockList	NA	10	{LEFTARROW}	-100	NA	1127	NA	1	1	10	0	16	325271	1133	1	{LEFTARROW}	-999999	0	326904	0	{LEFTARROW}	496	327400	NA	NA	NA	NA	NA	NA	MapTrialProc	MapTrialList	NA	NA	NA	NA	NA	NA	NA	NA	NA	NA	NA	NA	NA	NA	NA	NA	NA	NA	left	NA	L.bmp	354	NA	NA	NA	NA	NA	NA	NA	NA	NA	NA	NA	NA	NA	NA	NA	NA	NA	NA	NA	NA	NA
Arrow Flanker 2014	12427	1	"<?xml version=""1.0""?>\n<Clock xmlns:dt=""urn:schemas-microsoft-com:datatypes""><Description dt:dt=""string"">E-Prime Primary Realtime Clock</Description><StartTime><Timestamp dt:dt=""int"">0</Timestamp><DateUtc dt:dt=""string"">2015-07-17T14:57:03Z</DateUtc></StartTime><FrequencyChanges><FrequencyChange><Frequency dt:dt=""r8"">2825664</Frequency><Timestamp dt:dt=""r8"">321060400683</Timestamp><Current dt:dt=""r8"">0</Current><DateUtc dt:dt=""string"">2015-07-17T14:57:03Z</DateUtc></FrequencyChange></FrequencyChanges></Clock>\n"	Arrow Flanker 2014-12427-1	60.018	1.0.0.98	1	-1061605335	Professional	2.0.10.353	2.0.10.353	07-17-2015	7/17/2015 2:57:03 PM	10:57:03	2.0.10.248	2	NA	NA	NA	NA	NA	NA	NA	NA	NA	NA	NA	NA	NA	NA	NA	NA	NA	NA	NA	NA	NA	NA	NA	NA	1	1	1	PracBlockProc	PracBlockList	NA	1	{LEFTARROW}	-100	NA	1137	incongruent	NA	NA	NA	0	13	360211	1149	0	{LEFTARROW}	0	0	361860	1700	NA	0	0	NA	2	1	1	NA	NA	PracTrialProc	PracTrialList	NA	NA	NA	NA	NA	NA	NA	NA	NA	NA	NA	NA	NA	NA	NA	NA	NA	NA	left	NA	rrlrr.bmp	354	NA	NA	NA	NA	NA	NA	NA	NA	NA	NA	NA	NA	NA	NA	NA	NA	NA	NA	NA	NA	NA
Arrow Flanker 2014	12427	1	"<?xml version=""1.0""?>\n<Clock xmlns:dt=""urn:schemas-microsoft-com:datatypes""><Description dt:dt=""string"">E-Prime Primary Realtime Clock</Description><StartTime><Timestamp dt:dt=""int"">0</Timestamp><DateUtc dt:dt=""string"">2015-07-17T14:57:03Z</DateUtc></StartTime><FrequencyChanges><FrequencyChange><Frequency dt:dt=""r8"">2825664</Frequency><Timestamp dt:dt=""r8"">321060400683</Timestamp><Current dt:dt=""r8"">0</Current><DateUtc dt:dt=""string"">2015-07-17T14:57:03Z</DateUtc></FrequencyChange></FrequencyChanges></Clock>\n"	Arrow Flanker 2014-12427-1	60.018	1.0.0.98	1	-1061605335	Professional	2.0.10.353	2.0.10.353	07-17-2015	7/17/2015 2:57:03 PM	10:57:03	2.0.10.248	2	NA	NA	NA	NA	NA	NA	NA	NA	NA	NA	NA	NA	NA	NA	NA	NA	NA	NA	NA	NA	NA	NA	NA	NA	1	1	1	PracBlockProc	PracBlockList	NA	2	{LEFTARROW}	-100	NA	570	neutral	NA	NA	NA	0	16	365076	583	1	{LEFTARROW}	-999999	0	366159	0	{LEFTARROW}	1062	367221	NA	3	1	2	NA	NA	PracTrialProc	PracTrialList	NA	NA	NA	NA	NA	NA	NA	NA	NA	NA	NA	NA	NA	NA	NA	NA	NA	NA	left	NA	ooloo.bmp	354	NA	NA	NA	NA	NA	NA	NA	NA	NA	NA	NA	NA	NA	NA	NA	NA	NA	NA	NA	NA	NA
Arrow Flanker 2014	12427	1	"<?xml version=""1.0""?>\n<Clock xmlns:dt=""urn:schemas-microsoft-com:datatypes""><Description dt:dt=""string"">E-Prime Primary Realtime Clock</Description><StartTime><Timestamp dt:dt=""int"">0</Timestamp><DateUtc dt:dt=""string"">2015-07-17T14:57:03Z</DateUtc></StartTime><FrequencyChanges><FrequencyChange><Frequency dt:dt=""r8"">2825664</Frequency><Timestamp dt:dt=""r8"">321060400683</Timestamp><Current dt:dt=""r8"">0</Current><DateUtc dt:dt=""string"">2015-07-17T14:57:03Z</DateUtc></FrequencyChange></FrequencyChanges></Clock>\n"	Arrow Flanker 2014-12427-1	60.018	1.0.0.98	1	-1061605335	Professional	2.0.10.353	2.0.10.353	07-17-2015	7/17/2015 2:57:03 PM	10:57:03	2.0.10.248	2	NA	NA	NA	NA	NA	NA	NA	NA	NA	NA	NA	NA	NA	NA	NA	NA	NA	NA	NA	NA	NA	NA	NA	NA	1	1	1	PracBlockProc	PracBlockList	NA	3	{RIGHTARROW}	-100	NA	602	congruent	NA	NA	NA	0	16	368758	617	1	{RIGHTARROW}	-999999	-1	369874	0	{RIGHTARROW}	587	370461	NA	4	1	3	NA	NA	PracTrialProc	PracTrialList	NA	NA	NA	NA	NA	NA	NA	NA	NA	NA	NA	NA	NA	NA	NA	NA	NA	NA	right	NA	rrrrr.bmp	354	NA	NA	NA	NA	NA	NA	NA	NA	NA	NA	NA	NA	NA	NA	NA	NA	NA	NA	NA	NA	NA
Arrow Flanker 2014	12427	1	"<?xml version=""1.0""?>\n<Clock xmlns:dt=""urn:schemas-microsoft-com:datatypes""><Description dt:dt=""string"">E-Prime Primary Realtime Clock</Description><StartTime><Timestamp dt:dt=""int"">0</Timestamp><DateUtc dt:dt=""string"">2015-07-17T14:57:03Z</DateUtc></StartTime><FrequencyChanges><FrequencyChange><Frequency dt:dt=""r8"">2825664</Frequency><Timestamp dt:dt=""r8"">321060400683</Timestamp><Current dt:dt=""r8"">0</Current><DateUtc dt:dt=""string"">2015-07-17T14:57:03Z</DateUtc></FrequencyChange></FrequencyChanges></Clock>\n"	Arrow Flanker 2014-12427-1	60.018	1.0.0.98	1	-1061605335	Professional	2.0.10.353	2.0.10.353	07-17-2015	7/17/2015 2:57:03 PM	10:57:03	2.0.10.248	2	NA	NA	NA	NA	NA	NA	NA	NA	NA	NA	NA	NA	NA	NA	NA	NA	NA	NA	NA	NA	NA	NA	NA	NA	1	1	1	PracBlockProc	PracBlockList	NA	4	{RIGHTARROW}	-100	NA	554	incongruent	NA	NA	NA	0	16	371990	567	0	{RIGHTARROW}	0	0	373057	1716	NA	0	0	NA	5	1	4	NA	NA	PracTrialProc	PracTrialList	NA	NA	NA	NA	NA	NA	NA	NA	NA	NA	NA	NA	NA	NA	NA	NA	NA	NA	right	NA	llrll.bmp	354	NA	NA	NA	NA	NA	NA	NA	NA	NA	NA	NA	NA	NA	NA	NA	NA	NA	NA	NA	NA	NA
Arrow Flanker 2014	12427	1	"<?xml version=""1.0""?>\n<Clock xmlns:dt=""urn:schemas-microsoft-com:datatypes""><Description dt:dt=""string"">E-Prime Primary Realtime Clock</Description><StartTime><Timestamp dt:dt=""int"">0</Timestamp><DateUtc dt:dt=""string"">2015-07-17T14:57:03Z</DateUtc></StartTime><FrequencyChanges><FrequencyChange><Frequency dt:dt=""r8"">2825664</Frequency><Timestamp dt:dt=""r8"">321060400683</Timestamp><Current dt:dt=""r8"">0</Current><DateUtc dt:dt=""string"">2015-07-17T14:57:03Z</DateUtc></FrequencyChange></FrequencyChanges></Clock>\n"	Arrow Flanker 2014-12427-1	60.018	1.0.0.98	1	-1061605335	Professional	2.0.10.353	2.0.10.353	07-17-2015	7/17/2015 2:57:03 PM	10:57:03	2.0.10.248	2	NA	NA	NA	NA	NA	NA	NA	NA	NA	NA	NA	NA	NA	NA	NA	NA	NA	NA	NA	NA	NA	NA	NA	NA	1	1	1	PracBlockProc	PracBlockList	NA	5	{RIGHTARROW}	-100	NA	1097	neutral	NA	NA	NA	0	16	376289	1100	1	{RIGHTARROW}	-999999	0	377889	0	{RIGHTARROW}	540	378429	NA	6	1	5	NA	NA	PracTrialProc	PracTrialList	NA	NA	NA	NA	NA	NA	NA	NA	NA	NA	NA	NA	NA	NA	NA	NA	NA	NA	right	NA	ooroo.bmp	354	NA	NA	NA	NA	NA	NA	NA	NA	NA	NA	NA	NA	NA	NA	NA	NA	NA	NA	NA	NA	NA
Arrow Flanker 2014	12427	1	"<?xml version=""1.0""?>\n<Clock xmlns:dt=""urn:schemas-microsoft-com:datatypes""><Description dt:dt=""string"">E-Prime Primary Realtime Clock</Description><StartTime><Timestamp dt:dt=""int"">0</Timestamp><DateUtc dt:dt=""string"">2015-07-17T14:57:03Z</DateUtc></StartTime><FrequencyChanges><FrequencyChange><Frequency dt:dt=""r8"">2825664</Frequency><Timestamp dt:dt=""r8"">321060400683</Timestamp><Current dt:dt=""r8"">0</Current><DateUtc dt:dt=""string"">2015-07-17T14:57:03Z</DateUtc></FrequencyChange></FrequencyChanges></Clock>\n"	Arrow Flanker 2014-12427-1	60.018	1.0.0.98	1	-1061605335	Professional	2.0.10.353	2.0.10.353	07-17-2015	7/17/2015 2:57:03 PM	10:57:03	2.0.10.248	2	NA	NA	NA	NA	NA	NA	NA	NA	NA	NA	NA	NA	NA	NA	NA	NA	NA	NA	NA	NA	NA	NA	NA	NA	1	1	1	PracBlockProc	PracBlockList	NA	6	{LEFTARROW}	-100	NA	476	congruent	NA	NA	NA	0	16	379955	483	1	{LEFTARROW}	-999999	0	380938	0	{LEFTARROW}	538	381476	NA	1	1	6	NA	NA	PracTrialProc	PracTrialList	NA	NA	NA	NA	NA	NA	NA	NA	NA	NA	NA	NA	NA	NA	NA	NA	NA	NA	left	NA	lllll.bmp	354	NA	NA	NA	NA	NA	NA	NA	NA	NA	NA	NA	NA	NA	NA	NA	NA	NA	NA	NA	NA	NA
Arrow Flanker 2014	12427	1	"<?xml version=""1.0""?>\n<Clock xmlns:dt=""urn:schemas-microsoft-com:datatypes""><Description dt:dt=""string"">E-Prime Primary Realtime Clock</Description><StartTime><Timestamp dt:dt=""int"">0</Timestamp><DateUtc dt:dt=""string"">2015-07-17T14:57:03Z</DateUtc></StartTime><FrequencyChanges><FrequencyChange><Frequency dt:dt=""r8"">2825664</Frequency><Timestamp dt:dt=""r8"">321060400683</Timestamp><Current dt:dt=""r8"">0</Current><DateUtc dt:dt=""string"">2015-07-17T14:57:03Z</DateUtc></FrequencyChange></FrequencyChanges></Clock>\n"	Arrow Flanker 2014-12427-1	60.018	1.0.0.98	1	-1061605335	Professional	2.0.10.353	2.0.10.353	07-17-2015	7/17/2015 2:57:03 PM	10:57:03	2.0.10.248	3	NA	NA	NA	NA	NA	NA	NA	NA	NA	NA	NA	NA	NA	NA	NA	NA	NA	NA	NA	NA	NA	NA	NA	NA	1	2	2	PracBlockProc	PracBlockList	NA	1	{RIGHTARROW}	-100	NA	798	neutral	NA	NA	NA	0	10	417660	800	1	{RIGHTARROW}	-999999	0	418960	0	{RIGHTARROW}	786	419746	NA	6	2	7	NA	NA	PracTrialProc	PracTrialList	NA	NA	NA	NA	NA	NA	NA	NA	NA	NA	NA	NA	NA	NA	NA	NA	NA	NA	right	NA	ooroo.bmp	354	NA	NA	NA	NA	NA	NA	NA	NA	NA	NA	NA	NA	NA	NA	NA	NA	NA	NA	NA	NA	NA
Arrow Flanker 2014	12427	1	"<?xml version=""1.0""?>\n<Clock xmlns:dt=""urn:schemas-microsoft-com:datatypes""><Description dt:dt=""string"">E-Prime Primary Realtime Clock</Description><StartTime><Timestamp dt:dt=""int"">0</Timestamp><DateUtc dt:dt=""string"">2015-07-17T14:57:03Z</DateUtc></StartTime><FrequencyChanges><FrequencyChange><Frequency dt:dt=""r8"">2825664</Frequency><Timestamp dt:dt=""r8"">321060400683</Timestamp><Current dt:dt=""r8"">0</Current><DateUtc dt:dt=""string"">2015-07-17T14:57:03Z</DateUtc></FrequencyChange></FrequencyChanges></Clock>\n"	Arrow Flanker 2014-12427-1	60.018	1.0.0.98	1	-1061605335	Professional	2.0.10.353	2.0.10.353	07-17-2015	7/17/2015 2:57:03 PM	10:57:03	2.0.10.248	3	NA	NA	NA	NA	NA	NA	NA	NA	NA	NA	NA	NA	NA	NA	NA	NA	NA	NA	NA	NA	NA	NA	NA	NA	1	2	2	PracBlockProc	PracBlockList	NA	2	{LEFTARROW}	-100	NA	1451	neutral	NA	NA	NA	0	16	421276	1466	1	{LEFTARROW}	-999999	0	423242	0	{LEFTARROW}	464	423706	NA	3	2	8	NA	NA	PracTrialProc	PracTrialList	NA	NA	NA	NA	NA	NA	NA	NA	NA	NA	NA	NA	NA	NA	NA	NA	NA	NA	left	NA	ooloo.bmp	354	NA	NA	NA	NA	NA	NA	NA	NA	NA	NA	NA	NA	NA	NA	NA	NA	NA	NA	NA	NA	NA
Arrow Flanker 2014	12427	1	"<?xml version=""1.0""?>\n<Clock xmlns:dt=""urn:schemas-microsoft-com:datatypes""><Description dt:dt=""string"">E-Prime Primary Realtime Clock</Description><StartTime><Timestamp dt:dt=""int"">0</Timestamp><DateUtc dt:dt=""string"">2015-07-17T14:57:03Z</DateUtc></StartTime><FrequencyChanges><FrequencyChange><Frequency dt:dt=""r8"">2825664</Frequency><Timestamp dt:dt=""r8"">321060400683</Timestamp><Current dt:dt=""r8"">0</Current><DateUtc dt:dt=""string"">2015-07-17T14:57:03Z</DateUtc></FrequencyChange></FrequencyChanges></Clock>\n"	Arrow Flanker 2014-12427-1	60.018	1.0.0.98	1	-1061605335	Professional	2.0.10.353	2.0.10.353	07-17-2015	7/17/2015 2:57:03 PM	10:57:03	2.0.10.248	3	NA	NA	NA	NA	NA	NA	NA	NA	NA	NA	NA	NA	NA	NA	NA	NA	NA	NA	NA	NA	NA	NA	NA	NA	1	2	2	PracBlockProc	PracBlockList	NA	3	{LEFTARROW}	-100	NA	664	congruent	NA	NA	NA	0	16	425241	667	1	{LEFTARROW}	-999999	0	426408	0	{LEFTARROW}	610	427018	NA	1	2	9	NA	NA	PracTrialProc	PracTrialList	NA	NA	NA	NA	NA	NA	NA	NA	NA	NA	NA	NA	NA	NA	NA	NA	NA	NA	left	NA	lllll.bmp	354	NA	NA	NA	NA	NA	NA	NA	NA	NA	NA	NA	NA	NA	NA	NA	NA	NA	NA	NA	NA	NA
Arrow Flanker 2014	12427	1	"<?xml version=""1.0""?>\n<Clock xmlns:dt=""urn:schemas-microsoft-com:datatypes""><Description dt:dt=""string"">E-Prime Primary Realtime Clock</Description><StartTime><Timestamp dt:dt=""int"">0</Timestamp><DateUtc dt:dt=""string"">2015-07-17T14:57:03Z</DateUtc></StartTime><FrequencyChanges><FrequencyChange><Frequency dt:dt=""r8"">2825664</Frequency><Timestamp dt:dt=""r8"">321060400683</Timestamp><Current dt:dt=""r8"">0</Current><DateUtc dt:dt=""string"">2015-07-17T14:57:03Z</DateUtc></FrequencyChange></FrequencyChanges></Clock>\n"	Arrow Flanker 2014-12427-1	60.018	1.0.0.98	1	-1061605335	Professional	2.0.10.353	2.0.10.353	07-17-2015	7/17/2015 2:57:03 PM	10:57:03	2.0.10.248	3	NA	NA	NA	NA	NA	NA	NA	NA	NA	NA	NA	NA	NA	NA	NA	NA	NA	NA	NA	NA	NA	NA	NA	NA	1	2	2	PracBlockProc	PracBlockList	NA	4	{LEFTARROW}	-100	NA	911	incongruent	NA	NA	NA	0	16	428557	916	1	{LEFTARROW}	-999999	0	429973	0	{LEFTARROW}	1084	431057	NA	2	2	10	NA	NA	PracTrialProc	PracTrialList	NA	NA	NA	NA	NA	NA	NA	NA	NA	NA	NA	NA	NA	NA	NA	NA	NA	NA	left	NA	rrlrr.bmp	354	NA	NA	NA	NA	NA	NA	NA	NA	NA	NA	NA	NA	NA	NA	NA	NA	NA	NA	NA	NA	NA
Arrow Flanker 2014	12427	1	"<?xml version=""1.0""?>\n<Clock xmlns:dt=""urn:schemas-microsoft-com:datatypes""><Description dt:dt=""string"">E-Prime Primary Realtime Clock</Description><StartTime><Timestamp dt:dt=""int"">0</Timestamp><DateUtc dt:dt=""string"">2015-07-17T14:57:03Z</DateUtc></StartTime><FrequencyChanges><FrequencyChange><Frequency dt:dt=""r8"">2825664</Frequency><Timestamp dt:dt=""r8"">321060400683</Timestamp><Current dt:dt=""r8"">0</Current><DateUtc dt:dt=""string"">2015-07-17T14:57:03Z</DateUtc></FrequencyChange></FrequencyChanges></Clock>\n"	Arrow Flanker 2014-12427-1	60.018	1.0.0.98	1	-1061605335	Professional	2.0.10.353	2.0.10.353	07-17-2015	7/17/2015 2:57:03 PM	10:57:03	2.0.10.248	3	NA	NA	NA	NA	NA	NA	NA	NA	NA	NA	NA	NA	NA	NA	NA	NA	NA	NA	NA	NA	NA	NA	NA	NA	1	2	2	PracBlockProc	PracBlockList	NA	5	{RIGHTARROW}	-100	NA	481	incongruent	NA	NA	NA	0	16	432589	483	1	{RIGHTARROW}	-999999	0	433572	0	{RIGHTARROW}	869	434441	NA	5	2	11	NA	NA	PracTrialProc	PracTrialList	NA	NA	NA	NA	NA	NA	NA	NA	NA	NA	NA	NA	NA	NA	NA	NA	NA	NA	right	NA	llrll.bmp	354	NA	NA	NA	NA	NA	NA	NA	NA	NA	NA	NA	NA	NA	NA	NA	NA	NA	NA	NA	NA	NA
Arrow Flanker 2014	12427	1	"<?xml version=""1.0""?>\n<Clock xmlns:dt=""urn:schemas-microsoft-com:datatypes""><Description dt:dt=""string"">E-Prime Primary Realtime Clock</Description><StartTime><Timestamp dt:dt=""int"">0</Timestamp><DateUtc dt:dt=""string"">2015-07-17T14:57:03Z</DateUtc></StartTime><FrequencyChanges><FrequencyChange><Frequency dt:dt=""r8"">2825664</Frequency><Timestamp dt:dt=""r8"">321060400683</Timestamp><Current dt:dt=""r8"">0</Current><DateUtc dt:dt=""string"">2015-07-17T14:57:03Z</DateUtc></FrequencyChange></FrequencyChanges></Clock>\n"	Arrow Flanker 2014-12427-1	60.018	1.0.0.98	1	-1061605335	Professional	2.0.10.353	2.0.10.353	07-17-2015	7/17/2015 2:57:03 PM	10:57:03	2.0.10.248	3	NA	NA	NA	NA	NA	NA	NA	NA	NA	NA	NA	NA	NA	NA	NA	NA	NA	NA	NA	NA	NA	NA	NA	NA	1	2	2	PracBlockProc	PracBlockList	NA	6	{RIGHTARROW}	-100	NA	1089	congruent	NA	NA	NA	0	16	435971	1100	1	{RIGHTARROW}	-999999	0	437571	0	{RIGHTARROW}	598	438169	NA	4	2	12	NA	NA	PracTrialProc	PracTrialList	NA	NA	NA	NA	NA	NA	NA	NA	NA	NA	NA	NA	NA	NA	NA	NA	NA	NA	right	NA	rrrrr.bmp	354	NA	NA	NA	NA	NA	NA	NA	NA	NA	NA	NA	NA	NA	NA	NA	NA	NA	NA	NA	NA	NA
Arrow Flanker 2014	12427	1	"<?xml version=""1.0""?>\n<Clock xmlns:dt=""urn:schemas-microsoft-com:datatypes""><Description dt:dt=""string"">E-Prime Primary Realtime Clock</Description><StartTime><Timestamp dt:dt=""int"">0</Timestamp><DateUtc dt:dt=""string"">2015-07-17T14:57:03Z</DateUtc></StartTime><FrequencyChanges><FrequencyChange><Frequency dt:dt=""r8"">2825664</Frequency><Timestamp dt:dt=""r8"">321060400683</Timestamp><Current dt:dt=""r8"">0</Current><DateUtc dt:dt=""string"">2015-07-17T14:57:03Z</DateUtc></FrequencyChange></FrequencyChanges></Clock>\n"	Arrow Flanker 2014-12427-1	60.018	1.0.0.98	1	-1061605335	Professional	2.0.10.353	2.0.10.353	07-17-2015	7/17/2015 2:57:03 PM	10:57:03	2.0.10.248	4	1	1	1	NA	NA	NA	NA	NA	NA	NA	NA	NA	NA	NA	NA	NA	NA	NA	NA	NA	NA	NA	NA	NA	NA	NA	NA	BlockProc	BlockList	NA	1	{RIGHTARROW}	NA	-100	2056	incongruent	NA	NA	NA	NA	NA	NA	NA	NA	NA	NA	NA	NA	NA	NA	NA	NA	NA	NA	NA	NA	NA	NA	TrialProc	TrialList	1	5	460797	17	0	16	458581	933	1	{RIGHTARROW}	-999999	0	460014	0	{RIGHTARROW}	778	460792	NA	NA	right	llrll.bmp	354	0	NA	0	0	0	0	NA	0	0	0	NA	0	0	0	0	NA	0	0	4	1	1
Arrow Flanker 2014	12427	1	"<?xml version=""1.0""?>\n<Clock xmlns:dt=""urn:schemas-microsoft-com:datatypes""><Description dt:dt=""string"">E-Prime Primary Realtime Clock</Description><StartTime><Timestamp dt:dt=""int"">0</Timestamp><DateUtc dt:dt=""string"">2015-07-17T14:57:03Z</DateUtc></StartTime><FrequencyChanges><FrequencyChange><Frequency dt:dt=""r8"">2825664</Frequency><Timestamp dt:dt=""r8"">321060400683</Timestamp><Current dt:dt=""r8"">0</Current><DateUtc dt:dt=""string"">2015-07-17T14:57:03Z</DateUtc></FrequencyChange></FrequencyChanges></Clock>\n"	Arrow Flanker 2014-12427-1	60.018	1.0.0.98	1	-1061605335	Professional	2.0.10.353	2.0.10.353	07-17-2015	7/17/2015 2:57:03 PM	10:57:03	2.0.10.248	4	1	1	1	NA	NA	NA	NA	NA	NA	NA	NA	NA	NA	NA	NA	NA	NA	NA	NA	NA	NA	NA	NA	NA	NA	NA	NA	BlockProc	BlockList	NA	2	{LEFTARROW}	NA	-100	2161	neutral	NA	NA	NA	NA	NA	NA	NA	NA	NA	NA	NA	NA	NA	NA	NA	NA	NA	NA	NA	NA	NA	NA	TrialProc	TrialList	0	16	463863	17	0	16	461330	1500	1	{LEFTARROW}	-999999	0	463330	0	{LEFTARROW}	517	463847	NA	NA	left	ooloo.bmp	354	0	NA	0	0	0	0	NA	0	0	0	NA	0	0	0	0	NA	0	0	5	1	2
Arrow Flanker 2014	12427	1	"<?xml version=""1.0""?>\n<Clock xmlns:dt=""urn:schemas-microsoft-com:datatypes""><Description dt:dt=""string"">E-Prime Primary Realtime Clock</Description><StartTime><Timestamp dt:dt=""int"">0</Timestamp><DateUtc dt:dt=""string"">2015-07-17T14:57:03Z</DateUtc></StartTime><FrequencyChanges><FrequencyChange><Frequency dt:dt=""r8"">2825664</Frequency><Timestamp dt:dt=""r8"">321060400683</Timestamp><Current dt:dt=""r8"">0</Current><DateUtc dt:dt=""string"">2015-07-17T14:57:03Z</DateUtc></FrequencyChange></FrequencyChanges></Clock>\n"	Arrow Flanker 2014-12427-1	60.018	1.0.0.98	1	-1061605335	Professional	2.0.10.353	2.0.10.353	07-17-2015	7/17/2015 2:57:03 PM	10:57:03	2.0.10.248	4	1	1	1	NA	NA	NA	NA	NA	NA	NA	NA	NA	NA	NA	NA	NA	NA	NA	NA	NA	NA	NA	NA	NA	NA	NA	NA	BlockProc	BlockList	NA	3	{RIGHTARROW}	NA	-100	851	neutral	NA	NA	NA	NA	NA	NA	NA	NA	NA	NA	NA	NA	NA	NA	NA	NA	NA	NA	NA	NA	NA	NA	TrialProc	TrialList	0	17	466096	16	0	16	464396	667	1	{RIGHTARROW}	-999999	16	465579	0	{RIGHTARROW}	500	466079	NA	NA	right	ooroo.bmp	354	0	NA	0	0	0	0	NA	0	0	0	NA	0	0	0	0	NA	0	0	6	1	3
Arrow Flanker 2014	12427	1	"<?xml version=""1.0""?>\n<Clock xmlns:dt=""urn:schemas-microsoft-com:datatypes""><Description dt:dt=""string"">E-Prime Primary Realtime Clock</Description><StartTime><Timestamp dt:dt=""int"">0</Timestamp><DateUtc dt:dt=""string"">2015-07-17T14:57:03Z</DateUtc></StartTime><FrequencyChanges><FrequencyChange><Frequency dt:dt=""r8"">2825664</Frequency><Timestamp dt:dt=""r8"">321060400683</Timestamp><Current dt:dt=""r8"">0</Current><DateUtc dt:dt=""string"">2015-07-17T14:57:03Z</DateUtc></FrequencyChange></FrequencyChanges></Clock>\n"	Arrow Flanker 2014-12427-1	60.018	1.0.0.98	1	-1061605335	Professional	2.0.10.353	2.0.10.353	07-17-2015	7/17/2015 2:57:03 PM	10:57:03	2.0.10.248	4	1	1	1	NA	NA	NA	NA	NA	NA	NA	NA	NA	NA	NA	NA	NA	NA	NA	NA	NA	NA	NA	NA	NA	NA	NA	NA	BlockProc	BlockList	NA	4	{RIGHTARROW}	NA	-100	1563	neutral	NA	NA	NA	NA	NA	NA	NA	NA	NA	NA	NA	NA	NA	NA	NA	NA	NA	NA	NA	NA	NA	NA	TrialProc	TrialList	0	7	468862	16	0	17	466629	1283	1	{RIGHTARROW}	-999999	0	468412	0	{RIGHTARROW}	443	468855	NA	NA	right	ooroo.bmp	354	0	NA	0	0	0	0	NA	0	0	0	NA	0	0	0	0	NA	0	0	6	1	4
Arrow Flanker 2014	12427	1	"<?xml version=""1.0""?>\n<Clock xmlns:dt=""urn:schemas-microsoft-com:datatypes""><Description dt:dt=""string"">E-Prime Primary Realtime Clock</Description><StartTime><Timestamp dt:dt=""int"">0</Timestamp><DateUtc dt:dt=""string"">2015-07-17T14:57:03Z</DateUtc></StartTime><FrequencyChanges><FrequencyChange><Frequency dt:dt=""r8"">2825664</Frequency><Timestamp dt:dt=""r8"">321060400683</Timestamp><Current dt:dt=""r8"">0</Current><DateUtc dt:dt=""string"">2015-07-17T14:57:03Z</DateUtc></FrequencyChange></FrequencyChanges></Clock>\n"	Arrow Flanker 2014-12427-1	60.018	1.0.0.98	1	-1061605335	Professional	2.0.10.353	2.0.10.353	07-17-2015	7/17/2015 2:57:03 PM	10:57:03	2.0.10.248	4	1	1	1	NA	NA	NA	NA	NA	NA	NA	NA	NA	NA	NA	NA	NA	NA	NA	NA	NA	NA	NA	NA	NA	NA	NA	NA	BlockProc	BlockList	NA	5	{LEFTARROW}	NA	-100	1226	neutral	NA	NA	NA	NA	NA	NA	NA	NA	NA	NA	NA	NA	NA	NA	NA	NA	NA	NA	NA	NA	NA	NA	TrialProc	TrialList	0	5	471028	16	0	17	469395	616	1	{LEFTARROW}	-999999	0	470511	0	{LEFTARROW}	512	471023	NA	NA	left	ooloo.bmp	354	0	NA	0	0	0	0	NA	0	0	0	NA	0	0	0	0	NA	0	0	5	1	5
Arrow Flanker 2014	12427	1	"<?xml version=""1.0""?>\n<Clock xmlns:dt=""urn:schemas-microsoft-com:datatypes""><Description dt:dt=""string"">E-Prime Primary Realtime Clock</Description><StartTime><Timestamp dt:dt=""int"">0</Timestamp><DateUtc dt:dt=""string"">2015-07-17T14:57:03Z</DateUtc></StartTime><FrequencyChanges><FrequencyChange><Frequency dt:dt=""r8"">2825664</Frequency><Timestamp dt:dt=""r8"">321060400683</Timestamp><Current dt:dt=""r8"">0</Current><DateUtc dt:dt=""string"">2015-07-17T14:57:03Z</DateUtc></FrequencyChange></FrequencyChanges></Clock>\n"	Arrow Flanker 2014-12427-1	60.018	1.0.0.98	1	-1061605335	Professional	2.0.10.353	2.0.10.353	07-17-2015	7/17/2015 2:57:03 PM	10:57:03	2.0.10.248	4	1	1	1	NA	NA	NA	NA	NA	NA	NA	NA	NA	NA	NA	NA	NA	NA	NA	NA	NA	NA	NA	NA	NA	NA	NA	NA	BlockProc	BlockList	NA	6	{RIGHTARROW}	NA	-100	1069	neutral	NA	NA	NA	NA	NA	NA	NA	NA	NA	NA	NA	NA	NA	NA	NA	NA	NA	NA	NA	NA	NA	NA	TrialProc	TrialList	0	16	473527	17	0	17	471561	1033	1	{RIGHTARROW}	-999999	0	473094	0	{RIGHTARROW}	417	473511	NA	NA	right	ooroo.bmp	354	0	NA	0	0	0	0	NA	0	0	0	NA	0	0	0	0	NA	0	0	6	1	6
Arrow Flanker 2014	12427	1	"<?xml version=""1.0""?>\n<Clock xmlns:dt=""urn:schemas-microsoft-com:datatypes""><Description dt:dt=""string"">E-Prime Primary Realtime Clock</Description><StartTime><Timestamp dt:dt=""int"">0</Timestamp><DateUtc dt:dt=""string"">2015-07-17T14:57:03Z</DateUtc></StartTime><FrequencyChanges><FrequencyChange><Frequency dt:dt=""r8"">2825664</Frequency><Timestamp dt:dt=""r8"">321060400683</Timestamp><Current dt:dt=""r8"">0</Current><DateUtc dt:dt=""string"">2015-07-17T14:57:03Z</DateUtc></FrequencyChange></FrequencyChanges></Clock>\n"	Arrow Flanker 2014-12427-1	60.018	1.0.0.98	1	-1061605335	Professional	2.0.10.353	2.0.10.353	07-17-2015	7/17/2015 2:57:03 PM	10:57:03	2.0.10.248	4	1	1	1	NA	NA	NA	NA	NA	NA	NA	NA	NA	NA	NA	NA	NA	NA	NA	NA	NA	NA	NA	NA	NA	NA	NA	NA	BlockProc	BlockList	NA	7	{RIGHTARROW}	NA	-100	1416	incongruent	NA	NA	NA	NA	NA	NA	NA	NA	NA	NA	NA	NA	NA	NA	NA	NA	NA	NA	NA	NA	NA	NA	TrialProc	TrialList	0	14	476693	16	0	16	474060	966	1	{RIGHTARROW}	-999999	0	475526	0	{RIGHTARROW}	1153	476679	NA	NA	right	llrll.bmp	354	0	NA	0	0	0	0	NA	0	0	0	NA	0	0	0	0	NA	0	0	4	1	7
Arrow Flanker 2014	12427	1	"<?xml version=""1.0""?>\n<Clock xmlns:dt=""urn:schemas-microsoft-com:datatypes""><Description dt:dt=""string"">E-Prime Primary Realtime Clock</Description><StartTime><Timestamp dt:dt=""int"">0</Timestamp><DateUtc dt:dt=""string"">2015-07-17T14:57:03Z</DateUtc></StartTime><FrequencyChanges><FrequencyChange><Frequency dt:dt=""r8"">2825664</Frequency><Timestamp dt:dt=""r8"">321060400683</Timestamp><Current dt:dt=""r8"">0</Current><DateUtc dt:dt=""string"">2015-07-17T14:57:03Z</DateUtc></FrequencyChange></FrequencyChanges></Clock>\n"	Arrow Flanker 2014-12427-1	60.018	1.0.0.98	1	-1061605335	Professional	2.0.10.353	2.0.10.353	07-17-2015	7/17/2015 2:57:03 PM	10:57:03	2.0.10.248	4	1	1	1	NA	NA	NA	NA	NA	NA	NA	NA	NA	NA	NA	NA	NA	NA	NA	NA	NA	NA	NA	NA	NA	NA	NA	NA	BlockProc	BlockList	NA	8	{RIGHTARROW}	NA	-100	1212	incongruent	NA	NA	NA	NA	NA	NA	NA	NA	NA	NA	NA	NA	NA	NA	NA	NA	NA	NA	NA	NA	NA	NA	TrialProc	TrialList	0	14	479292	16	0	17	477226	966	1	{RIGHTARROW}	-999999	0	478692	0	{RIGHTARROW}	586	479278	NA	NA	right	llrll.bmp	354	0	NA	0	0	0	0	NA	0	0	0	NA	0	0	0	0	NA	0	0	4	1	8
Arrow Flanker 2014	12427	1	"<?xml version=""1.0""?>\n<Clock xmlns:dt=""urn:schemas-microsoft-com:datatypes""><Description dt:dt=""string"">E-Prime Primary Realtime Clock</Description><StartTime><Timestamp dt:dt=""int"">0</Timestamp><DateUtc dt:dt=""string"">2015-07-17T14:57:03Z</DateUtc></StartTime><FrequencyChanges><FrequencyChange><Frequency dt:dt=""r8"">2825664</Frequency><Timestamp dt:dt=""r8"">321060400683</Timestamp><Current dt:dt=""r8"">0</Current><DateUtc dt:dt=""string"">2015-07-17T14:57:03Z</DateUtc></FrequencyChange></FrequencyChanges></Clock>\n"	Arrow Flanker 2014-12427-1	60.018	1.0.0.98	1	-1061605335	Professional	2.0.10.353	2.0.10.353	07-17-2015	7/17/2015 2:57:03 PM	10:57:03	2.0.10.248	4	1	1	1	NA	NA	NA	NA	NA	NA	NA	NA	NA	NA	NA	NA	NA	NA	NA	NA	NA	NA	NA	NA	NA	NA	NA	NA	BlockProc	BlockList	NA	9	{RIGHTARROW}	NA	-100	1797	neutral	NA	NA	NA	NA	NA	NA	NA	NA	NA	NA	NA	NA	NA	NA	NA	NA	NA	NA	NA	NA	NA	NA	TrialProc	TrialList	0	17	482391	17	0	17	479825	1549	1	{RIGHTARROW}	-999999	0	481874	0	{RIGHTARROW}	500	482374	NA	NA	right	ooroo.bmp	354	0	NA	0	0	0	0	NA	0	0	0	NA	0	0	0	0	NA	0	0	6	1	9
Arrow Flanker 2014	12427	1	"<?xml version=""1.0""?>\n<Clock xmlns:dt=""urn:schemas-microsoft-com:datatypes""><Description dt:dt=""string"">E-Prime Primary Realtime Clock</Description><StartTime><Timestamp dt:dt=""int"">0</Timestamp><DateUtc dt:dt=""string"">2015-07-17T14:57:03Z</DateUtc></StartTime><FrequencyChanges><FrequencyChange><Frequency dt:dt=""r8"">2825664</Frequency><Timestamp dt:dt=""r8"">321060400683</Timestamp><Current dt:dt=""r8"">0</Current><DateUtc dt:dt=""string"">2015-07-17T14:57:03Z</DateUtc></FrequencyChange></FrequencyChanges></Clock>\n"	Arrow Flanker 2014-12427-1	60.018	1.0.0.98	1	-1061605335	Professional	2.0.10.353	2.0.10.353	07-17-2015	7/17/2015 2:57:03 PM	10:57:03	2.0.10.248	4	1	1	1	NA	NA	NA	NA	NA	NA	NA	NA	NA	NA	NA	NA	NA	NA	NA	NA	NA	NA	NA	NA	NA	NA	NA	NA	BlockProc	BlockList	NA	10	{LEFTARROW}	NA	-100	2057	incongruent	NA	NA	NA	NA	NA	NA	NA	NA	NA	NA	NA	NA	NA	NA	NA	NA	NA	NA	NA	NA	NA	NA	TrialProc	TrialList	1	19	485073	17	0	16	482924	1000	1	{LEFTARROW}	-999999	-1	484423	0	{LEFTARROW}	631	485054	NA	NA	left	rrlrr.bmp	354	0	NA	0	0	0	0	NA	0	0	0	NA	0	0	0	0	NA	0	0	3	1	10
Arrow Flanker 2014	12427	1	"<?xml version=""1.0""?>\n<Clock xmlns:dt=""urn:schemas-microsoft-com:datatypes""><Description dt:dt=""string"">E-Prime Primary Realtime Clock</Description><StartTime><Timestamp dt:dt=""int"">0</Timestamp><DateUtc dt:dt=""string"">2015-07-17T14:57:03Z</DateUtc></StartTime><FrequencyChanges><FrequencyChange><Frequency dt:dt=""r8"">2825664</Frequency><Timestamp dt:dt=""r8"">321060400683</Timestamp><Current dt:dt=""r8"">0</Current><DateUtc dt:dt=""string"">2015-07-17T14:57:03Z</DateUtc></FrequencyChange></FrequencyChanges></Clock>\n"	Arrow Flanker 2014-12427-1	60.018	1.0.0.98	1	-1061605335	Professional	2.0.10.353	2.0.10.353	07-17-2015	7/17/2015 2:57:03 PM	10:57:03	2.0.10.248	4	1	1	1	NA	NA	NA	NA	NA	NA	NA	NA	NA	NA	NA	NA	NA	NA	NA	NA	NA	NA	NA	NA	NA	NA	NA	NA	BlockProc	BlockList	NA	11	{RIGHTARROW}	NA	-100	1850	incongruent	NA	NA	NA	NA	NA	NA	NA	NA	NA	NA	NA	NA	NA	NA	NA	NA	NA	NA	NA	NA	NA	NA	TrialProc	TrialList	0	17	487623	16	0	17	485607	883	1	{RIGHTARROW}	-999999	16	487006	0	{RIGHTARROW}	600	487606	NA	NA	right	llrll.bmp	354	0	NA	0	0	0	0	NA	0	0	0	NA	0	0	0	0	NA	0	0	4	1	11
Arrow Flanker 2014	12427	1	"<?xml version=""1.0""?>\n<Clock xmlns:dt=""urn:schemas-microsoft-com:datatypes""><Description dt:dt=""string"">E-Prime Primary Realtime Clock</Description><StartTime><Timestamp dt:dt=""int"">0</Timestamp><DateUtc dt:dt=""string"">2015-07-17T14:57:03Z</DateUtc></StartTime><FrequencyChanges><FrequencyChange><Frequency dt:dt=""r8"">2825664</Frequency><Timestamp dt:dt=""r8"">321060400683</Timestamp><Current dt:dt=""r8"">0</Current><DateUtc dt:dt=""string"">2015-07-17T14:57:03Z</DateUtc></FrequencyChange></FrequencyChanges></Clock>\n"	Arrow Flanker 2014-12427-1	60.018	1.0.0.98	1	-1061605335	Professional	2.0.10.353	2.0.10.353	07-17-2015	7/17/2015 2:57:03 PM	10:57:03	2.0.10.248	4	1	1	1	NA	NA	NA	NA	NA	NA	NA	NA	NA	NA	NA	NA	NA	NA	NA	NA	NA	NA	NA	NA	NA	NA	NA	NA	BlockProc	BlockList	NA	12	{LEFTARROW}	NA	-100	1476	neutral	NA	NA	NA	NA	NA	NA	NA	NA	NA	NA	NA	NA	NA	NA	NA	NA	NA	NA	NA	NA	NA	NA	TrialProc	TrialList	1	19	489705	17	0	17	488156	500	1	{LEFTARROW}	-999999	16	489172	0	{LEFTARROW}	514	489686	NA	NA	left	ooloo.bmp	354	0	NA	0	0	0	0	NA	0	0	0	NA	0	0	0	0	NA	0	0	5	1	12
Arrow Flanker 2014	12427	1	"<?xml version=""1.0""?>\n<Clock xmlns:dt=""urn:schemas-microsoft-com:datatypes""><Description dt:dt=""string"">E-Prime Primary Realtime Clock</Description><StartTime><Timestamp dt:dt=""int"">0</Timestamp><DateUtc dt:dt=""string"">2015-07-17T14:57:03Z</DateUtc></StartTime><FrequencyChanges><FrequencyChange><Frequency dt:dt=""r8"">2825664</Frequency><Timestamp dt:dt=""r8"">321060400683</Timestamp><Current dt:dt=""r8"">0</Current><DateUtc dt:dt=""string"">2015-07-17T14:57:03Z</DateUtc></FrequencyChange></FrequencyChanges></Clock>\n"	Arrow Flanker 2014-12427-1	60.018	1.0.0.98	1	-1061605335	Professional	2.0.10.353	2.0.10.353	07-17-2015	7/17/2015 2:57:03 PM	10:57:03	2.0.10.248	4	1	1	1	NA	NA	NA	NA	NA	NA	NA	NA	NA	NA	NA	NA	NA	NA	NA	NA	NA	NA	NA	NA	NA	NA	NA	NA	BlockProc	BlockList	NA	13	{LEFTARROW}	NA	-100	972	congruent	NA	NA	NA	NA	NA	NA	NA	NA	NA	NA	NA	NA	NA	NA	NA	NA	NA	NA	NA	NA	NA	NA	TrialProc	TrialList	1	7	491821	17	0	17	490239	499	1	{LEFTARROW}	-999999	0	491238	0	{LEFTARROW}	576	491814	NA	NA	left	lllll.bmp	354	0	NA	0	0	0	0	NA	0	0	0	NA	0	0	0	0	NA	0	0	1	1	13
Arrow Flanker 2014	12427	1	"<?xml version=""1.0""?>\n<Clock xmlns:dt=""urn:schemas-microsoft-com:datatypes""><Description dt:dt=""string"">E-Prime Primary Realtime Clock</Description><StartTime><Timestamp dt:dt=""int"">0</Timestamp><DateUtc dt:dt=""string"">2015-07-17T14:57:03Z</DateUtc></StartTime><FrequencyChanges><FrequencyChange><Frequency dt:dt=""r8"">2825664</Frequency><Timestamp dt:dt=""r8"">321060400683</Timestamp><Current dt:dt=""r8"">0</Current><DateUtc dt:dt=""string"">2015-07-17T14:57:03Z</DateUtc></FrequencyChange></FrequencyChanges></Clock>\n"	Arrow Flanker 2014-12427-1	60.018	1.0.0.98	1	-1061605335	Professional	2.0.10.353	2.0.10.353	07-17-2015	7/17/2015 2:57:03 PM	10:57:03	2.0.10.248	4	1	1	1	NA	NA	NA	NA	NA	NA	NA	NA	NA	NA	NA	NA	NA	NA	NA	NA	NA	NA	NA	NA	NA	NA	NA	NA	BlockProc	BlockList	NA	14	{LEFTARROW}	NA	-100	1480	neutral	NA	NA	NA	NA	NA	NA	NA	NA	NA	NA	NA	NA	NA	NA	NA	NA	NA	NA	NA	NA	NA	NA	TrialProc	TrialList	0	12	494354	17	0	17	492355	966	1	{LEFTARROW}	-999999	0	493821	0	{LEFTARROW}	520	494341	NA	NA	left	ooloo.bmp	354	0	NA	0	0	0	0	NA	0	0	0	NA	0	0	0	0	NA	0	0	5	1	14
Arrow Flanker 2014	12427	1	"<?xml version=""1.0""?>\n<Clock xmlns:dt=""urn:schemas-microsoft-com:datatypes""><Description dt:dt=""string"">E-Prime Primary Realtime Clock</Description><StartTime><Timestamp dt:dt=""int"">0</Timestamp><DateUtc dt:dt=""string"">2015-07-17T14:57:03Z</DateUtc></StartTime><FrequencyChanges><FrequencyChange><Frequency dt:dt=""r8"">2825664</Frequency><Timestamp dt:dt=""r8"">321060400683</Timestamp><Current dt:dt=""r8"">0</Current><DateUtc dt:dt=""string"">2015-07-17T14:57:03Z</DateUtc></FrequencyChange></FrequencyChanges></Clock>\n"	Arrow Flanker 2014-12427-1	60.018	1.0.0.98	1	-1061605335	Professional	2.0.10.353	2.0.10.353	07-17-2015	7/17/2015 2:57:03 PM	10:57:03	2.0.10.248	4	1	1	1	NA	NA	NA	NA	NA	NA	NA	NA	NA	NA	NA	NA	NA	NA	NA	NA	NA	NA	NA	NA	NA	NA	NA	NA	BlockProc	BlockList	NA	15	{LEFTARROW}	NA	-100	1681	neutral	NA	NA	NA	NA	NA	NA	NA	NA	NA	NA	NA	NA	NA	NA	NA	NA	NA	NA	NA	NA	NA	NA	TrialProc	TrialList	0	12	496537	16	0	16	494887	700	1	{LEFTARROW}	-999999	0	496087	0	{LEFTARROW}	438	496525	NA	NA	left	ooloo.bmp	354	0	NA	0	0	0	0	NA	0	0	0	NA	0	0	0	0	NA	0	0	5	1	15
Arrow Flanker 2014	12427	1	"<?xml version=""1.0""?>\n<Clock xmlns:dt=""urn:schemas-microsoft-com:datatypes""><Description dt:dt=""string"">E-Prime Primary Realtime Clock</Description><StartTime><Timestamp dt:dt=""int"">0</Timestamp><DateUtc dt:dt=""string"">2015-07-17T14:57:03Z</DateUtc></StartTime><FrequencyChanges><FrequencyChange><Frequency dt:dt=""r8"">2825664</Frequency><Timestamp dt:dt=""r8"">321060400683</Timestamp><Current dt:dt=""r8"">0</Current><DateUtc dt:dt=""string"">2015-07-17T14:57:03Z</DateUtc></FrequencyChange></FrequencyChanges></Clock>\n"	Arrow Flanker 2014-12427-1	60.018	1.0.0.98	1	-1061605335	Professional	2.0.10.353	2.0.10.353	07-17-2015	7/17/2015 2:57:03 PM	10:57:03	2.0.10.248	4	1	1	1	NA	NA	NA	NA	NA	NA	NA	NA	NA	NA	NA	NA	NA	NA	NA	NA	NA	NA	NA	NA	NA	NA	NA	NA	BlockProc	BlockList	NA	16	{RIGHTARROW}	NA	-100	2075	neutral	NA	NA	NA	NA	NA	NA	NA	NA	NA	NA	NA	NA	NA	NA	NA	NA	NA	NA	NA	NA	NA	NA	TrialProc	TrialList	0	14	499019	17	0	17	497070	1000	1	{RIGHTARROW}	-999999	0	498569	0	{RIGHTARROW}	436	499005	NA	NA	right	ooroo.bmp	354	0	NA	0	0	0	0	NA	0	0	0	NA	0	0	0	0	NA	0	0	6	1	16
Arrow Flanker 2014	12427	1	"<?xml version=""1.0""?>\n<Clock xmlns:dt=""urn:schemas-microsoft-com:datatypes""><Description dt:dt=""string"">E-Prime Primary Realtime Clock</Description><StartTime><Timestamp dt:dt=""int"">0</Timestamp><DateUtc dt:dt=""string"">2015-07-17T14:57:03Z</DateUtc></StartTime><FrequencyChanges><FrequencyChange><Frequency dt:dt=""r8"">2825664</Frequency><Timestamp dt:dt=""r8"">321060400683</Timestamp><Current dt:dt=""r8"">0</Current><DateUtc dt:dt=""string"">2015-07-17T14:57:03Z</DateUtc></FrequencyChange></FrequencyChanges></Clock>\n"	Arrow Flanker 2014-12427-1	60.018	1.0.0.98	1	-1061605335	Professional	2.0.10.353	2.0.10.353	07-17-2015	7/17/2015 2:57:03 PM	10:57:03	2.0.10.248	4	1	1	1	NA	NA	NA	NA	NA	NA	NA	NA	NA	NA	NA	NA	NA	NA	NA	NA	NA	NA	NA	NA	NA	NA	NA	NA	BlockProc	BlockList	NA	17	{LEFTARROW}	NA	-100	906	incongruent	NA	NA	NA	NA	NA	NA	NA	NA	NA	NA	NA	NA	NA	NA	NA	NA	NA	NA	NA	NA	NA	NA	TrialProc	TrialList	1	15	501468	17	0	16	499552	750	1	{LEFTARROW}	-999999	0	500802	0	{LEFTARROW}	651	501453	NA	NA	left	rrlrr.bmp	354	0	NA	0	0	0	0	NA	0	0	0	NA	0	0	0	0	NA	0	0	3	1	17
Arrow Flanker 2014	12427	1	"<?xml version=""1.0""?>\n<Clock xmlns:dt=""urn:schemas-microsoft-com:datatypes""><Description dt:dt=""string"">E-Prime Primary Realtime Clock</Description><StartTime><Timestamp dt:dt=""int"">0</Timestamp><DateUtc dt:dt=""string"">2015-07-17T14:57:03Z</DateUtc></StartTime><FrequencyChanges><FrequencyChange><Frequency dt:dt=""r8"">2825664</Frequency><Timestamp dt:dt=""r8"">321060400683</Timestamp><Current dt:dt=""r8"">0</Current><DateUtc dt:dt=""string"">2015-07-17T14:57:03Z</DateUtc></FrequencyChange></FrequencyChanges></Clock>\n"	Arrow Flanker 2014-12427-1	60.018	1.0.0.98	1	-1061605335	Professional	2.0.10.353	2.0.10.353	07-17-2015	7/17/2015 2:57:03 PM	10:57:03	2.0.10.248	4	1	1	1	NA	NA	NA	NA	NA	NA	NA	NA	NA	NA	NA	NA	NA	NA	NA	NA	NA	NA	NA	NA	NA	NA	NA	NA	BlockProc	BlockList	NA	18	{RIGHTARROW}	NA	-100	1244	neutral	NA	NA	NA	NA	NA	NA	NA	NA	NA	NA	NA	NA	NA	NA	NA	NA	NA	NA	NA	NA	NA	NA	TrialProc	TrialList	1	19	504184	17	0	17	502002	1183	1	{RIGHTARROW}	-999999	16	503701	0	{RIGHTARROW}	464	504165	NA	NA	right	ooroo.bmp	354	0	NA	0	0	0	0	NA	0	0	0	NA	0	0	0	0	NA	0	0	6	1	18
Arrow Flanker 2014	12427	1	"<?xml version=""1.0""?>\n<Clock xmlns:dt=""urn:schemas-microsoft-com:datatypes""><Description dt:dt=""string"">E-Prime Primary Realtime Clock</Description><StartTime><Timestamp dt:dt=""int"">0</Timestamp><DateUtc dt:dt=""string"">2015-07-17T14:57:03Z</DateUtc></StartTime><FrequencyChanges><FrequencyChange><Frequency dt:dt=""r8"">2825664</Frequency><Timestamp dt:dt=""r8"">321060400683</Timestamp><Current dt:dt=""r8"">0</Current><DateUtc dt:dt=""string"">2015-07-17T14:57:03Z</DateUtc></FrequencyChange></FrequencyChanges></Clock>\n"	Arrow Flanker 2014-12427-1	60.018	1.0.0.98	1	-1061605335	Professional	2.0.10.353	2.0.10.353	07-17-2015	7/17/2015 2:57:03 PM	10:57:03	2.0.10.248	4	1	1	1	NA	NA	NA	NA	NA	NA	NA	NA	NA	NA	NA	NA	NA	NA	NA	NA	NA	NA	NA	NA	NA	NA	NA	NA	BlockProc	BlockList	NA	19	{RIGHTARROW}	NA	-100	920	neutral	NA	NA	NA	NA	NA	NA	NA	NA	NA	NA	NA	NA	NA	NA	NA	NA	NA	NA	NA	NA	NA	NA	TrialProc	TrialList	0	6	506667	17	0	16	504717	883	1	{RIGHTARROW}	-999999	16	506117	0	{RIGHTARROW}	544	506661	NA	NA	right	ooroo.bmp	354	0	NA	0	0	0	0	NA	0	0	0	NA	0	0	0	0	NA	0	0	6	1	19
Arrow Flanker 2014	12427	1	"<?xml version=""1.0""?>\n<Clock xmlns:dt=""urn:schemas-microsoft-com:datatypes""><Description dt:dt=""string"">E-Prime Primary Realtime Clock</Description><StartTime><Timestamp dt:dt=""int"">0</Timestamp><DateUtc dt:dt=""string"">2015-07-17T14:57:03Z</DateUtc></StartTime><FrequencyChanges><FrequencyChange><Frequency dt:dt=""r8"">2825664</Frequency><Timestamp dt:dt=""r8"">321060400683</Timestamp><Current dt:dt=""r8"">0</Current><DateUtc dt:dt=""string"">2015-07-17T14:57:03Z</DateUtc></FrequencyChange></FrequencyChanges></Clock>\n"	Arrow Flanker 2014-12427-1	60.018	1.0.0.98	1	-1061605335	Professional	2.0.10.353	2.0.10.353	07-17-2015	7/17/2015 2:57:03 PM	10:57:03	2.0.10.248	4	1	1	1	NA	NA	NA	NA	NA	NA	NA	NA	NA	NA	NA	NA	NA	NA	NA	NA	NA	NA	NA	NA	NA	NA	NA	NA	BlockProc	BlockList	NA	20	{LEFTARROW}	NA	-100	1560	congruent	NA	NA	NA	NA	NA	NA	NA	NA	NA	NA	NA	NA	NA	NA	NA	NA	NA	NA	NA	NA	NA	NA	TrialProc	TrialList	0	11	509816	17	0	16	507200	1483	1	{LEFTARROW}	-999999	0	509183	0	{LEFTARROW}	621	509804	NA	NA	left	lllll.bmp	354	0	NA	0	0	0	0	NA	0	0	0	NA	0	0	0	0	NA	0	0	1	1	20
Arrow Flanker 2014	12427	1	"<?xml version=""1.0""?>\n<Clock xmlns:dt=""urn:schemas-microsoft-com:datatypes""><Description dt:dt=""string"">E-Prime Primary Realtime Clock</Description><StartTime><Timestamp dt:dt=""int"">0</Timestamp><DateUtc dt:dt=""string"">2015-07-17T14:57:03Z</DateUtc></StartTime><FrequencyChanges><FrequencyChange><Frequency dt:dt=""r8"">2825664</Frequency><Timestamp dt:dt=""r8"">321060400683</Timestamp><Current dt:dt=""r8"">0</Current><DateUtc dt:dt=""string"">2015-07-17T14:57:03Z</DateUtc></FrequencyChange></FrequencyChanges></Clock>\n"	Arrow Flanker 2014-12427-1	60.018	1.0.0.98	1	-1061605335	Professional	2.0.10.353	2.0.10.353	07-17-2015	7/17/2015 2:57:03 PM	10:57:03	2.0.10.248	4	1	1	1	NA	NA	NA	NA	NA	NA	NA	NA	NA	NA	NA	NA	NA	NA	NA	NA	NA	NA	NA	NA	NA	NA	NA	NA	BlockProc	BlockList	NA	21	{RIGHTARROW}	NA	-100	1187	incongruent	NA	NA	NA	NA	NA	NA	NA	NA	NA	NA	NA	NA	NA	NA	NA	NA	NA	NA	NA	NA	NA	NA	TrialProc	TrialList	0	10	511999	16	0	16	510349	483	1	{RIGHTARROW}	-999999	0	511332	0	{RIGHTARROW}	656	511988	NA	NA	right	llrll.bmp	354	0	NA	0	0	0	0	NA	0	0	0	NA	0	0	0	0	NA	0	0	4	1	21
Arrow Flanker 2014	12427	1	"<?xml version=""1.0""?>\n<Clock xmlns:dt=""urn:schemas-microsoft-com:datatypes""><Description dt:dt=""string"">E-Prime Primary Realtime Clock</Description><StartTime><Timestamp dt:dt=""int"">0</Timestamp><DateUtc dt:dt=""string"">2015-07-17T14:57:03Z</DateUtc></StartTime><FrequencyChanges><FrequencyChange><Frequency dt:dt=""r8"">2825664</Frequency><Timestamp dt:dt=""r8"">321060400683</Timestamp><Current dt:dt=""r8"">0</Current><DateUtc dt:dt=""string"">2015-07-17T14:57:03Z</DateUtc></FrequencyChange></FrequencyChanges></Clock>\n"	Arrow Flanker 2014-12427-1	60.018	1.0.0.98	1	-1061605335	Professional	2.0.10.353	2.0.10.353	07-17-2015	7/17/2015 2:57:03 PM	10:57:03	2.0.10.248	4	1	1	1	NA	NA	NA	NA	NA	NA	NA	NA	NA	NA	NA	NA	NA	NA	NA	NA	NA	NA	NA	NA	NA	NA	NA	NA	BlockProc	BlockList	NA	22	{LEFTARROW}	NA	-100	1454	congruent	NA	NA	NA	NA	NA	NA	NA	NA	NA	NA	NA	NA	NA	NA	NA	NA	NA	NA	NA	NA	1	NA	TrialProc	TrialList	0	12	514448	17	0	17	512532	800	1	{LEFTARROW}	-999999	16	513848	0	{LEFTARROW}	588	514436	NA	NA	left	lllll.bmp	354	0	NA	-999999	16	514981	0	1	12755	527736	0	NA	0	0	0	0	NA	0	0	1	1	22
Arrow Flanker 2014	12427	1	"<?xml version=""1.0""?>\n<Clock xmlns:dt=""urn:schemas-microsoft-com:datatypes""><Description dt:dt=""string"">E-Prime Primary Realtime Clock</Description><StartTime><Timestamp dt:dt=""int"">0</Timestamp><DateUtc dt:dt=""string"">2015-07-17T14:57:03Z</DateUtc></StartTime><FrequencyChanges><FrequencyChange><Frequency dt:dt=""r8"">2825664</Frequency><Timestamp dt:dt=""r8"">321060400683</Timestamp><Current dt:dt=""r8"">0</Current><DateUtc dt:dt=""string"">2015-07-17T14:57:03Z</DateUtc></FrequencyChange></FrequencyChanges></Clock>\n"	Arrow Flanker 2014-12427-1	60.018	1.0.0.98	1	-1061605335	Professional	2.0.10.353	2.0.10.353	07-17-2015	7/17/2015 2:57:03 PM	10:57:03	2.0.10.248	4	1	1	1	NA	NA	NA	NA	NA	NA	NA	NA	NA	NA	NA	NA	NA	NA	NA	NA	NA	NA	NA	NA	NA	NA	NA	NA	BlockProc	BlockList	NA	23	{RIGHTARROW}	NA	-100	1603	neutral	NA	NA	NA	NA	NA	NA	NA	NA	NA	NA	NA	NA	NA	NA	NA	NA	NA	NA	NA	NA	NA	NA	TrialProc	TrialList	1	5	532576	17	0	14	530393	1000	1	{RIGHTARROW}	-999999	0	531893	0	{RIGHTARROW}	678	532571	NA	NA	right	ooroo.bmp	354	0	NA	0	0	0	0	NA	0	0	0	NA	0	0	0	0	NA	0	0	6	1	23
Arrow Flanker 2014	12427	1	"<?xml version=""1.0""?>\n<Clock xmlns:dt=""urn:schemas-microsoft-com:datatypes""><Description dt:dt=""string"">E-Prime Primary Realtime Clock</Description><StartTime><Timestamp dt:dt=""int"">0</Timestamp><DateUtc dt:dt=""string"">2015-07-17T14:57:03Z</DateUtc></StartTime><FrequencyChanges><FrequencyChange><Frequency dt:dt=""r8"">2825664</Frequency><Timestamp dt:dt=""r8"">321060400683</Timestamp><Current dt:dt=""r8"">0</Current><DateUtc dt:dt=""string"">2015-07-17T14:57:03Z</DateUtc></FrequencyChange></FrequencyChanges></Clock>\n"	Arrow Flanker 2014-12427-1	60.018	1.0.0.98	1	-1061605335	Professional	2.0.10.353	2.0.10.353	07-17-2015	7/17/2015 2:57:03 PM	10:57:03	2.0.10.248	4	1	1	1	NA	NA	NA	NA	NA	NA	NA	NA	NA	NA	NA	NA	NA	NA	NA	NA	NA	NA	NA	NA	NA	NA	NA	NA	BlockProc	BlockList	NA	24	{LEFTARROW}	NA	-100	2027	congruent	NA	NA	NA	NA	NA	NA	NA	NA	NA	NA	NA	NA	NA	NA	NA	NA	NA	NA	NA	NA	NA	NA	TrialProc	TrialList	0	6	535025	17	0	16	533109	850	1	{LEFTARROW}	-999999	0	534459	0	{LEFTARROW}	560	535019	NA	NA	left	lllll.bmp	354	0	NA	0	0	0	0	NA	0	0	0	NA	0	0	0	0	NA	0	0	1	1	24
Arrow Flanker 2014	12427	1	"<?xml version=""1.0""?>\n<Clock xmlns:dt=""urn:schemas-microsoft-com:datatypes""><Description dt:dt=""string"">E-Prime Primary Realtime Clock</Description><StartTime><Timestamp dt:dt=""int"">0</Timestamp><DateUtc dt:dt=""string"">2015-07-17T14:57:03Z</DateUtc></StartTime><FrequencyChanges><FrequencyChange><Frequency dt:dt=""r8"">2825664</Frequency><Timestamp dt:dt=""r8"">321060400683</Timestamp><Current dt:dt=""r8"">0</Current><DateUtc dt:dt=""string"">2015-07-17T14:57:03Z</DateUtc></FrequencyChange></FrequencyChanges></Clock>\n"	Arrow Flanker 2014-12427-1	60.018	1.0.0.98	1	-1061605335	Professional	2.0.10.353	2.0.10.353	07-17-2015	7/17/2015 2:57:03 PM	10:57:03	2.0.10.248	4	1	1	1	NA	NA	NA	NA	NA	NA	NA	NA	NA	NA	NA	NA	NA	NA	NA	NA	NA	NA	NA	NA	NA	NA	NA	NA	BlockProc	BlockList	NA	25	{LEFTARROW}	NA	-100	1542	congruent	NA	NA	NA	NA	NA	NA	NA	NA	NA	NA	NA	NA	NA	NA	NA	NA	NA	NA	NA	NA	NA	NA	TrialProc	TrialList	0	7	537258	16	0	16	535558	583	1	{LEFTARROW}	-999999	0	536641	0	{LEFTARROW}	610	537251	NA	NA	left	lllll.bmp	354	0	NA	0	0	0	0	NA	0	0	0	NA	0	0	0	0	NA	0	0	1	1	25
Arrow Flanker 2014	12427	1	"<?xml version=""1.0""?>\n<Clock xmlns:dt=""urn:schemas-microsoft-com:datatypes""><Description dt:dt=""string"">E-Prime Primary Realtime Clock</Description><StartTime><Timestamp dt:dt=""int"">0</Timestamp><DateUtc dt:dt=""string"">2015-07-17T14:57:03Z</DateUtc></StartTime><FrequencyChanges><FrequencyChange><Frequency dt:dt=""r8"">2825664</Frequency><Timestamp dt:dt=""r8"">321060400683</Timestamp><Current dt:dt=""r8"">0</Current><DateUtc dt:dt=""string"">2015-07-17T14:57:03Z</DateUtc></FrequencyChange></FrequencyChanges></Clock>\n"	Arrow Flanker 2014-12427-1	60.018	1.0.0.98	1	-1061605335	Professional	2.0.10.353	2.0.10.353	07-17-2015	7/17/2015 2:57:03 PM	10:57:03	2.0.10.248	4	1	1	1	NA	NA	NA	NA	NA	NA	NA	NA	NA	NA	NA	NA	NA	NA	NA	NA	NA	NA	NA	NA	NA	NA	NA	NA	BlockProc	BlockList	NA	26	{RIGHTARROW}	NA	-100	899	incongruent	NA	NA	NA	NA	NA	NA	NA	NA	NA	NA	NA	NA	NA	NA	NA	NA	NA	NA	NA	NA	NA	NA	TrialProc	TrialList	0	13	539424	16	0	17	537791	466	1	{RIGHTARROW}	-999999	0	538757	0	{RIGHTARROW}	654	539411	NA	NA	right	llrll.bmp	354	0	NA	0	0	0	0	NA	0	0	0	NA	0	0	0	0	NA	0	0	4	1	26
Arrow Flanker 2014	12427	1	"<?xml version=""1.0""?>\n<Clock xmlns:dt=""urn:schemas-microsoft-com:datatypes""><Description dt:dt=""string"">E-Prime Primary Realtime Clock</Description><StartTime><Timestamp dt:dt=""int"">0</Timestamp><DateUtc dt:dt=""string"">2015-07-17T14:57:03Z</DateUtc></StartTime><FrequencyChanges><FrequencyChange><Frequency dt:dt=""r8"">2825664</Frequency><Timestamp dt:dt=""r8"">321060400683</Timestamp><Current dt:dt=""r8"">0</Current><DateUtc dt:dt=""string"">2015-07-17T14:57:03Z</DateUtc></FrequencyChange></FrequencyChanges></Clock>\n"	Arrow Flanker 2014-12427-1	60.018	1.0.0.98	1	-1061605335	Professional	2.0.10.353	2.0.10.353	07-17-2015	7/17/2015 2:57:03 PM	10:57:03	2.0.10.248	4	1	1	1	NA	NA	NA	NA	NA	NA	NA	NA	NA	NA	NA	NA	NA	NA	NA	NA	NA	NA	NA	NA	NA	NA	NA	NA	BlockProc	BlockList	NA	27	{LEFTARROW}	NA	-100	2284	neutral	NA	NA	NA	NA	NA	NA	NA	NA	NA	NA	NA	NA	NA	NA	NA	NA	NA	NA	NA	NA	NA	NA	TrialProc	TrialList	0	15	542506	17	0	17	539957	0	1	{LEFTARROW}	-999999	0	542056	0	{LEFTARROW}	434	542490	NA	NA	left	ooloo.bmp	354	0	NA	0	0	0	0	NA	0	0	0	NA	0	0	0	0	NA	0	0	5	1	27
Arrow Flanker 2014	12427	1	"<?xml version=""1.0""?>\n<Clock xmlns:dt=""urn:schemas-microsoft-com:datatypes""><Description dt:dt=""string"">E-Prime Primary Realtime Clock</Description><StartTime><Timestamp dt:dt=""int"">0</Timestamp><DateUtc dt:dt=""string"">2015-07-17T14:57:03Z</DateUtc></StartTime><FrequencyChanges><FrequencyChange><Frequency dt:dt=""r8"">2825664</Frequency><Timestamp dt:dt=""r8"">321060400683</Timestamp><Current dt:dt=""r8"">0</Current><DateUtc dt:dt=""string"">2015-07-17T14:57:03Z</DateUtc></FrequencyChange></FrequencyChanges></Clock>\n"	Arrow Flanker 2014-12427-1	60.018	1.0.0.98	1	-1061605335	Professional	2.0.10.353	2.0.10.353	07-17-2015	7/17/2015 2:57:03 PM	10:57:03	2.0.10.248	4	1	1	1	NA	NA	NA	NA	NA	NA	NA	NA	NA	NA	NA	NA	NA	NA	NA	NA	NA	NA	NA	NA	NA	NA	NA	NA	BlockProc	BlockList	NA	28	{LEFTARROW}	NA	-100	1293	congruent	NA	NA	NA	NA	NA	NA	NA	NA	NA	NA	NA	NA	NA	NA	NA	NA	NA	NA	NA	NA	NA	NA	TrialProc	TrialList	1	5	544472	17	0	16	543039	0	1	{LEFTARROW}	-999999	0	544006	0	{LEFTARROW}	460	544466	NA	NA	left	lllll.bmp	354	0	NA	0	0	0	0	NA	0	0	0	NA	0	0	0	0	NA	0	0	1	1	28
Arrow Flanker 2014	12427	1	"<?xml version=""1.0""?>\n<Clock xmlns:dt=""urn:schemas-microsoft-com:datatypes""><Description dt:dt=""string"">E-Prime Primary Realtime Clock</Description><StartTime><Timestamp dt:dt=""int"">0</Timestamp><DateUtc dt:dt=""string"">2015-07-17T14:57:03Z</DateUtc></StartTime><FrequencyChanges><FrequencyChange><Frequency dt:dt=""r8"">2825664</Frequency><Timestamp dt:dt=""r8"">321060400683</Timestamp><Current dt:dt=""r8"">0</Current><DateUtc dt:dt=""string"">2015-07-17T14:57:03Z</DateUtc></FrequencyChange></FrequencyChanges></Clock>\n"	Arrow Flanker 2014-12427-1	60.018	1.0.0.98	1	-1061605335	Professional	2.0.10.353	2.0.10.353	07-17-2015	7/17/2015 2:57:03 PM	10:57:03	2.0.10.248	4	1	1	1	NA	NA	NA	NA	NA	NA	NA	NA	NA	NA	NA	NA	NA	NA	NA	NA	NA	NA	NA	NA	NA	NA	NA	NA	BlockProc	BlockList	NA	29	{RIGHTARROW}	NA	-100	1628	congruent	NA	NA	NA	NA	NA	NA	NA	NA	NA	NA	NA	NA	NA	NA	NA	NA	NA	NA	NA	NA	NA	NA	TrialProc	TrialList	0	20	547438	17	0	16	545005	0	1	{RIGHTARROW}	-999999	0	546955	0	{RIGHTARROW}	463	547418	NA	NA	right	rrrrr.bmp	354	0	NA	0	0	0	0	NA	0	0	0	NA	0	0	0	0	NA	0	0	2	1	29
Arrow Flanker 2014	12427	1	"<?xml version=""1.0""?>\n<Clock xmlns:dt=""urn:schemas-microsoft-com:datatypes""><Description dt:dt=""string"">E-Prime Primary Realtime Clock</Description><StartTime><Timestamp dt:dt=""int"">0</Timestamp><DateUtc dt:dt=""string"">2015-07-17T14:57:03Z</DateUtc></StartTime><FrequencyChanges><FrequencyChange><Frequency dt:dt=""r8"">2825664</Frequency><Timestamp dt:dt=""r8"">321060400683</Timestamp><Current dt:dt=""r8"">0</Current><DateUtc dt:dt=""string"">2015-07-17T14:57:03Z</DateUtc></FrequencyChange></FrequencyChanges></Clock>\n"	Arrow Flanker 2014-12427-1	60.018	1.0.0.98	1	-1061605335	Professional	2.0.10.353	2.0.10.353	07-17-2015	7/17/2015 2:57:03 PM	10:57:03	2.0.10.248	4	1	1	1	NA	NA	NA	NA	NA	NA	NA	NA	NA	NA	NA	NA	NA	NA	NA	NA	NA	NA	NA	NA	NA	NA	NA	NA	BlockProc	BlockList	NA	30	{RIGHTARROW}	NA	-100	1677	congruent	NA	NA	NA	NA	NA	NA	NA	NA	NA	NA	NA	NA	NA	NA	NA	NA	NA	NA	NA	NA	NA	NA	TrialProc	TrialList	0	20	550454	16	0	16	547971	0	1	{RIGHTARROW}	-999999	0	549854	0	{RIGHTARROW}	580	550434	NA	NA	right	rrrrr.bmp	354	0	NA	0	0	0	0	NA	0	0	0	NA	0	0	0	0	NA	0	0	2	1	30
Arrow Flanker 2014	12427	1	"<?xml version=""1.0""?>\n<Clock xmlns:dt=""urn:schemas-microsoft-com:datatypes""><Description dt:dt=""string"">E-Prime Primary Realtime Clock</Description><StartTime><Timestamp dt:dt=""int"">0</Timestamp><DateUtc dt:dt=""string"">2015-07-17T14:57:03Z</DateUtc></StartTime><FrequencyChanges><FrequencyChange><Frequency dt:dt=""r8"">2825664</Frequency><Timestamp dt:dt=""r8"">321060400683</Timestamp><Current dt:dt=""r8"">0</Current><DateUtc dt:dt=""string"">2015-07-17T14:57:03Z</DateUtc></FrequencyChange></FrequencyChanges></Clock>\n"	Arrow Flanker 2014-12427-1	60.018	1.0.0.98	1	-1061605335	Professional	2.0.10.353	2.0.10.353	07-17-2015	7/17/2015 2:57:03 PM	10:57:03	2.0.10.248	4	1	1	1	NA	NA	NA	NA	NA	NA	NA	NA	NA	NA	NA	NA	NA	NA	NA	NA	NA	NA	NA	NA	NA	NA	NA	NA	BlockProc	BlockList	NA	31	{RIGHTARROW}	NA	-100	1196	congruent	NA	NA	NA	NA	NA	NA	NA	NA	NA	NA	NA	NA	NA	NA	NA	NA	NA	NA	NA	NA	NA	NA	TrialProc	TrialList	1	14	553136	17	0	17	550987	0	1	{RIGHTARROW}	-999999	0	552603	0	{RIGHTARROW}	519	553122	NA	NA	right	rrrrr.bmp	354	0	NA	0	0	0	0	NA	0	0	0	NA	0	0	0	0	NA	0	0	2	1	31
Arrow Flanker 2014	12427	1	"<?xml version=""1.0""?>\n<Clock xmlns:dt=""urn:schemas-microsoft-com:datatypes""><Description dt:dt=""string"">E-Prime Primary Realtime Clock</Description><StartTime><Timestamp dt:dt=""int"">0</Timestamp><DateUtc dt:dt=""string"">2015-07-17T14:57:03Z</DateUtc></StartTime><FrequencyChanges><FrequencyChange><Frequency dt:dt=""r8"">2825664</Frequency><Timestamp dt:dt=""r8"">321060400683</Timestamp><Current dt:dt=""r8"">0</Current><DateUtc dt:dt=""string"">2015-07-17T14:57:03Z</DateUtc></FrequencyChange></FrequencyChanges></Clock>\n"	Arrow Flanker 2014-12427-1	60.018	1.0.0.98	1	-1061605335	Professional	2.0.10.353	2.0.10.353	07-17-2015	7/17/2015 2:57:03 PM	10:57:03	2.0.10.248	4	1	1	1	NA	NA	NA	NA	NA	NA	NA	NA	NA	NA	NA	NA	NA	NA	NA	NA	NA	NA	NA	NA	NA	NA	NA	NA	BlockProc	BlockList	NA	32	{LEFTARROW}	NA	-100	1715	neutral	NA	NA	NA	NA	NA	NA	NA	NA	NA	NA	NA	NA	NA	NA	NA	NA	NA	NA	NA	NA	NA	NA	TrialProc	TrialList	0	13	555919	17	0	17	553670	0	1	{LEFTARROW}	-999999	0	555386	0	{LEFTARROW}	520	555906	NA	NA	left	ooloo.bmp	354	0	NA	0	0	0	0	NA	0	0	0	NA	0	0	0	0	NA	0	0	5	1	32
Arrow Flanker 2014	12427	1	"<?xml version=""1.0""?>\n<Clock xmlns:dt=""urn:schemas-microsoft-com:datatypes""><Description dt:dt=""string"">E-Prime Primary Realtime Clock</Description><StartTime><Timestamp dt:dt=""int"">0</Timestamp><DateUtc dt:dt=""string"">2015-07-17T14:57:03Z</DateUtc></StartTime><FrequencyChanges><FrequencyChange><Frequency dt:dt=""r8"">2825664</Frequency><Timestamp dt:dt=""r8"">321060400683</Timestamp><Current dt:dt=""r8"">0</Current><DateUtc dt:dt=""string"">2015-07-17T14:57:03Z</DateUtc></FrequencyChange></FrequencyChanges></Clock>\n"	Arrow Flanker 2014-12427-1	60.018	1.0.0.98	1	-1061605335	Professional	2.0.10.353	2.0.10.353	07-17-2015	7/17/2015 2:57:03 PM	10:57:03	2.0.10.248	4	1	1	1	NA	NA	NA	NA	NA	NA	NA	NA	NA	NA	NA	NA	NA	NA	NA	NA	NA	NA	NA	NA	NA	NA	NA	NA	BlockProc	BlockList	NA	33	{LEFTARROW}	NA	-100	845	neutral	NA	NA	NA	NA	NA	NA	NA	NA	NA	NA	NA	NA	NA	NA	NA	NA	NA	NA	NA	NA	NA	NA	TrialProc	TrialList	0	16	558202	16	0	16	556452	0	1	{LEFTARROW}	-999999	0	557568	0	{LEFTARROW}	618	558186	NA	NA	left	ooloo.bmp	354	0	NA	0	0	0	0	NA	0	0	0	NA	0	0	0	0	NA	0	0	5	1	33
Arrow Flanker 2014	12427	1	"<?xml version=""1.0""?>\n<Clock xmlns:dt=""urn:schemas-microsoft-com:datatypes""><Description dt:dt=""string"">E-Prime Primary Realtime Clock</Description><StartTime><Timestamp dt:dt=""int"">0</Timestamp><DateUtc dt:dt=""string"">2015-07-17T14:57:03Z</DateUtc></StartTime><FrequencyChanges><FrequencyChange><Frequency dt:dt=""r8"">2825664</Frequency><Timestamp dt:dt=""r8"">321060400683</Timestamp><Current dt:dt=""r8"">0</Current><DateUtc dt:dt=""string"">2015-07-17T14:57:03Z</DateUtc></FrequencyChange></FrequencyChanges></Clock>\n"	Arrow Flanker 2014-12427-1	60.018	1.0.0.98	1	-1061605335	Professional	2.0.10.353	2.0.10.353	07-17-2015	7/17/2015 2:57:03 PM	10:57:03	2.0.10.248	4	1	1	1	NA	NA	NA	NA	NA	NA	NA	NA	NA	NA	NA	NA	NA	NA	NA	NA	NA	NA	NA	NA	NA	NA	NA	NA	BlockProc	BlockList	NA	34	{RIGHTARROW}	NA	-100	1203	neutral	NA	NA	NA	NA	NA	NA	NA	NA	NA	NA	NA	NA	NA	NA	NA	NA	NA	NA	NA	NA	NA	NA	TrialProc	TrialList	0	9	560251	16	0	17	558735	0	1	{RIGHTARROW}	-999999	16	559701	0	{RIGHTARROW}	540	560241	NA	NA	right	ooroo.bmp	354	0	NA	0	0	0	0	NA	0	0	0	NA	0	0	0	0	NA	0	0	6	1	34
Arrow Flanker 2014	12427	1	"<?xml version=""1.0""?>\n<Clock xmlns:dt=""urn:schemas-microsoft-com:datatypes""><Description dt:dt=""string"">E-Prime Primary Realtime Clock</Description><StartTime><Timestamp dt:dt=""int"">0</Timestamp><DateUtc dt:dt=""string"">2015-07-17T14:57:03Z</DateUtc></StartTime><FrequencyChanges><FrequencyChange><Frequency dt:dt=""r8"">2825664</Frequency><Timestamp dt:dt=""r8"">321060400683</Timestamp><Current dt:dt=""r8"">0</Current><DateUtc dt:dt=""string"">2015-07-17T14:57:03Z</DateUtc></FrequencyChange></FrequencyChanges></Clock>\n"	Arrow Flanker 2014-12427-1	60.018	1.0.0.98	1	-1061605335	Professional	2.0.10.353	2.0.10.353	07-17-2015	7/17/2015 2:57:03 PM	10:57:03	2.0.10.248	4	1	1	1	NA	NA	NA	NA	NA	NA	NA	NA	NA	NA	NA	NA	NA	NA	NA	NA	NA	NA	NA	NA	NA	NA	NA	NA	BlockProc	BlockList	NA	35	{LEFTARROW}	NA	-100	503	incongruent	NA	NA	NA	NA	NA	NA	NA	NA	NA	NA	NA	NA	NA	NA	NA	NA	NA	NA	NA	NA	NA	NA	TrialProc	TrialList	0	16	562417	17	0	17	560784	0	1	{LEFTARROW}	-999999	0	561784	0	{LEFTARROW}	617	562401	NA	NA	left	rrlrr.bmp	354	0	NA	0	0	0	0	NA	0	0	0	NA	0	0	0	0	NA	0	0	3	1	35
Arrow Flanker 2014	12427	1	"<?xml version=""1.0""?>\n<Clock xmlns:dt=""urn:schemas-microsoft-com:datatypes""><Description dt:dt=""string"">E-Prime Primary Realtime Clock</Description><StartTime><Timestamp dt:dt=""int"">0</Timestamp><DateUtc dt:dt=""string"">2015-07-17T14:57:03Z</DateUtc></StartTime><FrequencyChanges><FrequencyChange><Frequency dt:dt=""r8"">2825664</Frequency><Timestamp dt:dt=""r8"">321060400683</Timestamp><Current dt:dt=""r8"">0</Current><DateUtc dt:dt=""string"">2015-07-17T14:57:03Z</DateUtc></FrequencyChange></FrequencyChanges></Clock>\n"	Arrow Flanker 2014-12427-1	60.018	1.0.0.98	1	-1061605335	Professional	2.0.10.353	2.0.10.353	07-17-2015	7/17/2015 2:57:03 PM	10:57:03	2.0.10.248	4	1	1	1	NA	NA	NA	NA	NA	NA	NA	NA	NA	NA	NA	NA	NA	NA	NA	NA	NA	NA	NA	NA	NA	NA	NA	NA	BlockProc	BlockList	NA	36	{LEFTARROW}	NA	-100	1900	congruent	NA	NA	NA	NA	NA	NA	NA	NA	NA	NA	NA	NA	NA	NA	NA	NA	NA	NA	NA	NA	NA	NA	TrialProc	TrialList	0	9	565066	17	0	16	562950	966	1	{LEFTARROW}	-999999	0	564416	0	{LEFTARROW}	641	565057	NA	NA	left	lllll.bmp	354	0	NA	0	0	0	0	NA	0	0	0	NA	0	0	0	0	NA	0	0	1	1	36
Arrow Flanker 2014	12427	1	"<?xml version=""1.0""?>\n<Clock xmlns:dt=""urn:schemas-microsoft-com:datatypes""><Description dt:dt=""string"">E-Prime Primary Realtime Clock</Description><StartTime><Timestamp dt:dt=""int"">0</Timestamp><DateUtc dt:dt=""string"">2015-07-17T14:57:03Z</DateUtc></StartTime><FrequencyChanges><FrequencyChange><Frequency dt:dt=""r8"">2825664</Frequency><Timestamp dt:dt=""r8"">321060400683</Timestamp><Current dt:dt=""r8"">0</Current><DateUtc dt:dt=""string"">2015-07-17T14:57:03Z</DateUtc></FrequencyChange></FrequencyChanges></Clock>\n"	Arrow Flanker 2014-12427-1	60.018	1.0.0.98	1	-1061605335	Professional	2.0.10.353	2.0.10.353	07-17-2015	7/17/2015 2:57:03 PM	10:57:03	2.0.10.248	4	1	1	1	NA	NA	NA	NA	NA	NA	NA	NA	NA	NA	NA	NA	NA	NA	NA	NA	NA	NA	NA	NA	NA	NA	NA	NA	BlockProc	BlockList	NA	37	{LEFTARROW}	NA	-100	1557	congruent	NA	NA	NA	NA	NA	NA	NA	NA	NA	NA	NA	NA	NA	NA	NA	NA	NA	NA	NA	NA	1	NA	TrialProc	TrialList	0	6	568015	17	0	16	565599	0	1	{LEFTARROW}	-999999	0	567382	0	{LEFTARROW}	627	568009	NA	NA	left	lllll.bmp	354	0	NA	-999999	16	568548	0	1	5856	574404	0	NA	0	0	0	0	NA	0	0	1	1	37
Arrow Flanker 2014	12427	1	"<?xml version=""1.0""?>\n<Clock xmlns:dt=""urn:schemas-microsoft-com:datatypes""><Description dt:dt=""string"">E-Prime Primary Realtime Clock</Description><StartTime><Timestamp dt:dt=""int"">0</Timestamp><DateUtc dt:dt=""string"">2015-07-17T14:57:03Z</DateUtc></StartTime><FrequencyChanges><FrequencyChange><Frequency dt:dt=""r8"">2825664</Frequency><Timestamp dt:dt=""r8"">321060400683</Timestamp><Current dt:dt=""r8"">0</Current><DateUtc dt:dt=""string"">2015-07-17T14:57:03Z</DateUtc></FrequencyChange></FrequencyChanges></Clock>\n"	Arrow Flanker 2014-12427-1	60.018	1.0.0.98	1	-1061605335	Professional	2.0.10.353	2.0.10.353	07-17-2015	7/17/2015 2:57:03 PM	10:57:03	2.0.10.248	4	1	1	1	NA	NA	NA	NA	NA	NA	NA	NA	NA	NA	NA	NA	NA	NA	NA	NA	NA	NA	NA	NA	NA	NA	NA	NA	BlockProc	BlockList	NA	38	{LEFTARROW}	NA	-100	591	incongruent	NA	NA	NA	NA	NA	NA	NA	NA	NA	NA	NA	NA	NA	NA	NA	NA	NA	NA	NA	NA	NA	NA	TrialProc	TrialList	1	13	579045	17	0	15	576896	0	1	{LEFTARROW}	-999999	0	577829	0	{LEFTARROW}	1203	579032	NA	NA	left	rrlrr.bmp	354	0	NA	0	0	0	0	NA	0	0	0	NA	0	0	0	0	NA	0	0	3	1	38
Arrow Flanker 2014	12427	1	"<?xml version=""1.0""?>\n<Clock xmlns:dt=""urn:schemas-microsoft-com:datatypes""><Description dt:dt=""string"">E-Prime Primary Realtime Clock</Description><StartTime><Timestamp dt:dt=""int"">0</Timestamp><DateUtc dt:dt=""string"">2015-07-17T14:57:03Z</DateUtc></StartTime><FrequencyChanges><FrequencyChange><Frequency dt:dt=""r8"">2825664</Frequency><Timestamp dt:dt=""r8"">321060400683</Timestamp><Current dt:dt=""r8"">0</Current><DateUtc dt:dt=""string"">2015-07-17T14:57:03Z</DateUtc></FrequencyChange></FrequencyChanges></Clock>\n"	Arrow Flanker 2014-12427-1	60.018	1.0.0.98	1	-1061605335	Professional	2.0.10.353	2.0.10.353	07-17-2015	7/17/2015 2:57:03 PM	10:57:03	2.0.10.248	4	1	1	1	NA	NA	NA	NA	NA	NA	NA	NA	NA	NA	NA	NA	NA	NA	NA	NA	NA	NA	NA	NA	NA	NA	NA	NA	BlockProc	BlockList	NA	39	{LEFTARROW}	NA	-100	1127	neutral	NA	NA	NA	NA	NA	NA	NA	NA	NA	NA	NA	NA	NA	NA	NA	NA	NA	NA	NA	NA	NA	NA	TrialProc	TrialList	0	7	581095	16	0	16	579578	0	1	{LEFTARROW}	-999999	0	580545	0	{LEFTARROW}	543	581088	NA	NA	left	ooloo.bmp	354	0	NA	0	0	0	0	NA	0	0	0	NA	0	0	0	0	NA	0	0	5	1	39
Arrow Flanker 2014	12427	1	"<?xml version=""1.0""?>\n<Clock xmlns:dt=""urn:schemas-microsoft-com:datatypes""><Description dt:dt=""string"">E-Prime Primary Realtime Clock</Description><StartTime><Timestamp dt:dt=""int"">0</Timestamp><DateUtc dt:dt=""string"">2015-07-17T14:57:03Z</DateUtc></StartTime><FrequencyChanges><FrequencyChange><Frequency dt:dt=""r8"">2825664</Frequency><Timestamp dt:dt=""r8"">321060400683</Timestamp><Current dt:dt=""r8"">0</Current><DateUtc dt:dt=""string"">2015-07-17T14:57:03Z</DateUtc></FrequencyChange></FrequencyChanges></Clock>\n"	Arrow Flanker 2014-12427-1	60.018	1.0.0.98	1	-1061605335	Professional	2.0.10.353	2.0.10.353	07-17-2015	7/17/2015 2:57:03 PM	10:57:03	2.0.10.248	4	1	1	1	NA	NA	NA	NA	NA	NA	NA	NA	NA	NA	NA	NA	NA	NA	NA	NA	NA	NA	NA	NA	NA	NA	NA	NA	BlockProc	BlockList	NA	40	{RIGHTARROW}	NA	-100	1875	neutral	NA	NA	NA	NA	NA	NA	NA	NA	NA	NA	NA	NA	NA	NA	NA	NA	NA	NA	NA	NA	NA	NA	TrialProc	TrialList	0	5	583677	17	0	17	581628	0	1	{RIGHTARROW}	-999999	0	583161	0	{RIGHTARROW}	511	583672	NA	NA	right	ooroo.bmp	354	0	NA	0	0	0	0	NA	0	0	0	NA	0	0	0	0	NA	0	0	6	1	40
Arrow Flanker 2014	12427	1	"<?xml version=""1.0""?>\n<Clock xmlns:dt=""urn:schemas-microsoft-com:datatypes""><Description dt:dt=""string"">E-Prime Primary Realtime Clock</Description><StartTime><Timestamp dt:dt=""int"">0</Timestamp><DateUtc dt:dt=""string"">2015-07-17T14:57:03Z</DateUtc></StartTime><FrequencyChanges><FrequencyChange><Frequency dt:dt=""r8"">2825664</Frequency><Timestamp dt:dt=""r8"">321060400683</Timestamp><Current dt:dt=""r8"">0</Current><DateUtc dt:dt=""string"">2015-07-17T14:57:03Z</DateUtc></FrequencyChange></FrequencyChanges></Clock>\n"	Arrow Flanker 2014-12427-1	60.018	1.0.0.98	1	-1061605335	Professional	2.0.10.353	2.0.10.353	07-17-2015	7/17/2015 2:57:03 PM	10:57:03	2.0.10.248	4	1	1	1	NA	NA	NA	NA	NA	NA	NA	NA	NA	NA	NA	NA	NA	NA	NA	NA	NA	NA	NA	NA	NA	NA	NA	NA	BlockProc	BlockList	NA	41	{RIGHTARROW}	NA	-100	1264	neutral	NA	NA	NA	NA	NA	NA	NA	NA	NA	NA	NA	NA	NA	NA	NA	NA	NA	NA	NA	NA	NA	NA	TrialProc	TrialList	0	10	586210	16	0	16	584210	0	1	{RIGHTARROW}	-999999	0	585677	0	{RIGHTARROW}	523	586200	NA	NA	right	ooroo.bmp	354	0	NA	0	0	0	0	NA	0	0	0	NA	0	0	0	0	NA	0	0	6	1	41
Arrow Flanker 2014	12427	1	"<?xml version=""1.0""?>\n<Clock xmlns:dt=""urn:schemas-microsoft-com:datatypes""><Description dt:dt=""string"">E-Prime Primary Realtime Clock</Description><StartTime><Timestamp dt:dt=""int"">0</Timestamp><DateUtc dt:dt=""string"">2015-07-17T14:57:03Z</DateUtc></StartTime><FrequencyChanges><FrequencyChange><Frequency dt:dt=""r8"">2825664</Frequency><Timestamp dt:dt=""r8"">321060400683</Timestamp><Current dt:dt=""r8"">0</Current><DateUtc dt:dt=""string"">2015-07-17T14:57:03Z</DateUtc></FrequencyChange></FrequencyChanges></Clock>\n"	Arrow Flanker 2014-12427-1	60.018	1.0.0.98	1	-1061605335	Professional	2.0.10.353	2.0.10.353	07-17-2015	7/17/2015 2:57:03 PM	10:57:03	2.0.10.248	4	1	1	1	NA	NA	NA	NA	NA	NA	NA	NA	NA	NA	NA	NA	NA	NA	NA	NA	NA	NA	NA	NA	NA	NA	NA	NA	BlockProc	BlockList	NA	42	{LEFTARROW}	NA	-100	1881	congruent	NA	NA	NA	NA	NA	NA	NA	NA	NA	NA	NA	NA	NA	NA	NA	NA	NA	NA	NA	NA	NA	NA	TrialProc	TrialList	1	6	589342	17	0	17	586743	0	1	{LEFTARROW}	-999999	0	588859	0	{LEFTARROW}	477	589336	NA	NA	left	lllll.bmp	354	0	NA	0	0	0	0	NA	0	0	0	NA	0	0	0	0	NA	0	0	1	1	42
Arrow Flanker 2014	12427	1	"<?xml version=""1.0""?>\n<Clock xmlns:dt=""urn:schemas-microsoft-com:datatypes""><Description dt:dt=""string"">E-Prime Primary Realtime Clock</Description><StartTime><Timestamp dt:dt=""int"">0</Timestamp><DateUtc dt:dt=""string"">2015-07-17T14:57:03Z</DateUtc></StartTime><FrequencyChanges><FrequencyChange><Frequency dt:dt=""r8"">2825664</Frequency><Timestamp dt:dt=""r8"">321060400683</Timestamp><Current dt:dt=""r8"">0</Current><DateUtc dt:dt=""string"">2015-07-17T14:57:03Z</DateUtc></FrequencyChange></FrequencyChanges></Clock>\n"	Arrow Flanker 2014-12427-1	60.018	1.0.0.98	1	-1061605335	Professional	2.0.10.353	2.0.10.353	07-17-2015	7/17/2015 2:57:03 PM	10:57:03	2.0.10.248	4	1	1	1	NA	NA	NA	NA	NA	NA	NA	NA	NA	NA	NA	NA	NA	NA	NA	NA	NA	NA	NA	NA	NA	NA	NA	NA	BlockProc	BlockList	NA	43	{RIGHTARROW}	NA	-100	1808	congruent	NA	NA	NA	NA	NA	NA	NA	NA	NA	NA	NA	NA	NA	NA	NA	NA	NA	NA	NA	NA	NA	NA	TrialProc	TrialList	0	9	592025	16	0	16	589875	0	1	{RIGHTARROW}	-999999	0	591592	0	{RIGHTARROW}	423	592015	NA	NA	right	rrrrr.bmp	354	0	NA	0	0	0	0	NA	0	0	0	NA	0	0	0	0	NA	0	0	2	1	43
Arrow Flanker 2014	12427	1	"<?xml version=""1.0""?>\n<Clock xmlns:dt=""urn:schemas-microsoft-com:datatypes""><Description dt:dt=""string"">E-Prime Primary Realtime Clock</Description><StartTime><Timestamp dt:dt=""int"">0</Timestamp><DateUtc dt:dt=""string"">2015-07-17T14:57:03Z</DateUtc></StartTime><FrequencyChanges><FrequencyChange><Frequency dt:dt=""r8"">2825664</Frequency><Timestamp dt:dt=""r8"">321060400683</Timestamp><Current dt:dt=""r8"">0</Current><DateUtc dt:dt=""string"">2015-07-17T14:57:03Z</DateUtc></FrequencyChange></FrequencyChanges></Clock>\n"	Arrow Flanker 2014-12427-1	60.018	1.0.0.98	1	-1061605335	Professional	2.0.10.353	2.0.10.353	07-17-2015	7/17/2015 2:57:03 PM	10:57:03	2.0.10.248	4	1	1	1	NA	NA	NA	NA	NA	NA	NA	NA	NA	NA	NA	NA	NA	NA	NA	NA	NA	NA	NA	NA	NA	NA	NA	NA	BlockProc	BlockList	NA	44	{RIGHTARROW}	NA	-100	1774	incongruent	NA	NA	NA	NA	NA	NA	NA	NA	NA	NA	NA	NA	NA	NA	NA	NA	NA	NA	NA	NA	NA	NA	TrialProc	TrialList	0	17	594824	17	0	17	592558	0	1	{RIGHTARROW}	-999999	0	593974	0	{RIGHTARROW}	833	594807	NA	NA	right	llrll.bmp	354	0	NA	0	0	0	0	NA	0	0	0	NA	0	0	0	0	NA	0	0	4	1	44
Arrow Flanker 2014	12427	1	"<?xml version=""1.0""?>\n<Clock xmlns:dt=""urn:schemas-microsoft-com:datatypes""><Description dt:dt=""string"">E-Prime Primary Realtime Clock</Description><StartTime><Timestamp dt:dt=""int"">0</Timestamp><DateUtc dt:dt=""string"">2015-07-17T14:57:03Z</DateUtc></StartTime><FrequencyChanges><FrequencyChange><Frequency dt:dt=""r8"">2825664</Frequency><Timestamp dt:dt=""r8"">321060400683</Timestamp><Current dt:dt=""r8"">0</Current><DateUtc dt:dt=""string"">2015-07-17T14:57:03Z</DateUtc></FrequencyChange></FrequencyChanges></Clock>\n"	Arrow Flanker 2014-12427-1	60.018	1.0.0.98	1	-1061605335	Professional	2.0.10.353	2.0.10.353	07-17-2015	7/17/2015 2:57:03 PM	10:57:03	2.0.10.248	4	1	1	1	NA	NA	NA	NA	NA	NA	NA	NA	NA	NA	NA	NA	NA	NA	NA	NA	NA	NA	NA	NA	NA	NA	NA	NA	BlockProc	BlockList	NA	45	{LEFTARROW}	NA	-100	1301	incongruent	NA	NA	NA	NA	NA	NA	NA	NA	NA	NA	NA	NA	NA	NA	NA	NA	NA	NA	NA	NA	NA	NA	TrialProc	TrialList	0	18	597673	17	0	16	595357	0	1	{LEFTARROW}	-999999	0	597123	0	{LEFTARROW}	532	597655	NA	NA	left	rrlrr.bmp	354	0	NA	0	0	0	0	NA	0	0	0	NA	0	0	0	0	NA	0	0	3	1	45
Arrow Flanker 2014	12427	1	"<?xml version=""1.0""?>\n<Clock xmlns:dt=""urn:schemas-microsoft-com:datatypes""><Description dt:dt=""string"">E-Prime Primary Realtime Clock</Description><StartTime><Timestamp dt:dt=""int"">0</Timestamp><DateUtc dt:dt=""string"">2015-07-17T14:57:03Z</DateUtc></StartTime><FrequencyChanges><FrequencyChange><Frequency dt:dt=""r8"">2825664</Frequency><Timestamp dt:dt=""r8"">321060400683</Timestamp><Current dt:dt=""r8"">0</Current><DateUtc dt:dt=""string"">2015-07-17T14:57:03Z</DateUtc></FrequencyChange></FrequencyChanges></Clock>\n"	Arrow Flanker 2014-12427-1	60.018	1.0.0.98	1	-1061605335	Professional	2.0.10.353	2.0.10.353	07-17-2015	7/17/2015 2:57:03 PM	10:57:03	2.0.10.248	4	1	1	1	NA	NA	NA	NA	NA	NA	NA	NA	NA	NA	NA	NA	NA	NA	NA	NA	NA	NA	NA	NA	NA	NA	NA	NA	BlockProc	BlockList	NA	46	{LEFTARROW}	NA	-100	1924	incongruent	NA	NA	NA	NA	NA	NA	NA	NA	NA	NA	NA	NA	NA	NA	NA	NA	NA	NA	NA	NA	NA	NA	TrialProc	TrialList	1	15	600622	17	0	16	598206	0	1	{LEFTARROW}	-999999	0	599989	0	{LEFTARROW}	618	600607	NA	NA	left	rrlrr.bmp	354	0	NA	0	0	0	0	NA	0	0	0	NA	0	0	0	0	NA	0	0	3	1	46
Arrow Flanker 2014	12427	1	"<?xml version=""1.0""?>\n<Clock xmlns:dt=""urn:schemas-microsoft-com:datatypes""><Description dt:dt=""string"">E-Prime Primary Realtime Clock</Description><StartTime><Timestamp dt:dt=""int"">0</Timestamp><DateUtc dt:dt=""string"">2015-07-17T14:57:03Z</DateUtc></StartTime><FrequencyChanges><FrequencyChange><Frequency dt:dt=""r8"">2825664</Frequency><Timestamp dt:dt=""r8"">321060400683</Timestamp><Current dt:dt=""r8"">0</Current><DateUtc dt:dt=""string"">2015-07-17T14:57:03Z</DateUtc></FrequencyChange></FrequencyChanges></Clock>\n"	Arrow Flanker 2014-12427-1	60.018	1.0.0.98	1	-1061605335	Professional	2.0.10.353	2.0.10.353	07-17-2015	7/17/2015 2:57:03 PM	10:57:03	2.0.10.248	4	1	1	1	NA	NA	NA	NA	NA	NA	NA	NA	NA	NA	NA	NA	NA	NA	NA	NA	NA	NA	NA	NA	NA	NA	NA	NA	BlockProc	BlockList	NA	47	{LEFTARROW}	NA	-100	1471	congruent	NA	NA	NA	NA	NA	NA	NA	NA	NA	NA	NA	NA	NA	NA	NA	NA	NA	NA	NA	NA	NA	NA	TrialProc	TrialList	0	21	602972	16	0	16	601155	0	1	{LEFTARROW}	-999999	0	602438	0	{LEFTARROW}	513	602951	NA	NA	left	lllll.bmp	354	0	NA	0	0	0	0	NA	0	0	0	NA	0	0	0	0	NA	0	0	1	1	47
Arrow Flanker 2014	12427	1	"<?xml version=""1.0""?>\n<Clock xmlns:dt=""urn:schemas-microsoft-com:datatypes""><Description dt:dt=""string"">E-Prime Primary Realtime Clock</Description><StartTime><Timestamp dt:dt=""int"">0</Timestamp><DateUtc dt:dt=""string"">2015-07-17T14:57:03Z</DateUtc></StartTime><FrequencyChanges><FrequencyChange><Frequency dt:dt=""r8"">2825664</Frequency><Timestamp dt:dt=""r8"">321060400683</Timestamp><Current dt:dt=""r8"">0</Current><DateUtc dt:dt=""string"">2015-07-17T14:57:03Z</DateUtc></FrequencyChange></FrequencyChanges></Clock>\n"	Arrow Flanker 2014-12427-1	60.018	1.0.0.98	1	-1061605335	Professional	2.0.10.353	2.0.10.353	07-17-2015	7/17/2015 2:57:03 PM	10:57:03	2.0.10.248	4	1	1	1	NA	NA	NA	NA	NA	NA	NA	NA	NA	NA	NA	NA	NA	NA	NA	NA	NA	NA	NA	NA	NA	NA	NA	NA	BlockProc	BlockList	NA	48	{RIGHTARROW}	NA	-100	1248	congruent	NA	NA	NA	NA	NA	NA	NA	NA	NA	NA	NA	NA	NA	NA	NA	NA	NA	NA	NA	NA	NA	NA	TrialProc	TrialList	0	13	605204	17	0	17	603505	0	1	{RIGHTARROW}	-999999	0	604654	0	{RIGHTARROW}	537	605191	NA	NA	right	rrrrr.bmp	354	0	NA	0	0	0	0	NA	0	0	0	NA	0	0	0	0	NA	0	0	2	1	48
Arrow Flanker 2014	12427	1	"<?xml version=""1.0""?>\n<Clock xmlns:dt=""urn:schemas-microsoft-com:datatypes""><Description dt:dt=""string"">E-Prime Primary Realtime Clock</Description><StartTime><Timestamp dt:dt=""int"">0</Timestamp><DateUtc dt:dt=""string"">2015-07-17T14:57:03Z</DateUtc></StartTime><FrequencyChanges><FrequencyChange><Frequency dt:dt=""r8"">2825664</Frequency><Timestamp dt:dt=""r8"">321060400683</Timestamp><Current dt:dt=""r8"">0</Current><DateUtc dt:dt=""string"">2015-07-17T14:57:03Z</DateUtc></FrequencyChange></FrequencyChanges></Clock>\n"	Arrow Flanker 2014-12427-1	60.018	1.0.0.98	1	-1061605335	Professional	2.0.10.353	2.0.10.353	07-17-2015	7/17/2015 2:57:03 PM	10:57:03	2.0.10.248	4	1	1	1	NA	NA	NA	NA	NA	NA	NA	NA	NA	NA	NA	NA	NA	NA	NA	NA	NA	NA	NA	NA	NA	NA	NA	NA	BlockProc	BlockList	NA	49	{RIGHTARROW}	NA	-100	1498	neutral	NA	NA	NA	NA	NA	NA	NA	NA	NA	NA	NA	NA	NA	NA	NA	NA	NA	NA	NA	NA	NA	NA	TrialProc	TrialList	0	9	607720	17	0	16	605737	0	1	{RIGHTARROW}	-999999	0	607170	0	{RIGHTARROW}	540	607710	NA	NA	right	ooroo.bmp	354	0	NA	0	0	0	0	NA	0	0	0	NA	0	0	0	0	NA	0	0	6	1	49
Arrow Flanker 2014	12427	1	"<?xml version=""1.0""?>\n<Clock xmlns:dt=""urn:schemas-microsoft-com:datatypes""><Description dt:dt=""string"">E-Prime Primary Realtime Clock</Description><StartTime><Timestamp dt:dt=""int"">0</Timestamp><DateUtc dt:dt=""string"">2015-07-17T14:57:03Z</DateUtc></StartTime><FrequencyChanges><FrequencyChange><Frequency dt:dt=""r8"">2825664</Frequency><Timestamp dt:dt=""r8"">321060400683</Timestamp><Current dt:dt=""r8"">0</Current><DateUtc dt:dt=""string"">2015-07-17T14:57:03Z</DateUtc></FrequencyChange></FrequencyChanges></Clock>\n"	Arrow Flanker 2014-12427-1	60.018	1.0.0.98	1	-1061605335	Professional	2.0.10.353	2.0.10.353	07-17-2015	7/17/2015 2:57:03 PM	10:57:03	2.0.10.248	4	1	1	1	NA	NA	NA	NA	NA	NA	NA	NA	NA	NA	NA	NA	NA	NA	NA	NA	NA	NA	NA	NA	NA	NA	NA	NA	BlockProc	BlockList	NA	50	{RIGHTARROW}	NA	-100	1811	congruent	NA	NA	NA	NA	NA	NA	NA	NA	NA	NA	NA	NA	NA	NA	NA	NA	NA	NA	NA	NA	NA	NA	TrialProc	TrialList	1	20	610219	17	0	16	608253	0	1	{RIGHTARROW}	-999999	0	609753	0	{RIGHTARROW}	445	610198	NA	NA	right	rrrrr.bmp	354	0	NA	0	0	0	0	NA	0	0	0	NA	0	0	0	0	NA	0	0	2	1	50
Arrow Flanker 2014	12427	1	"<?xml version=""1.0""?>\n<Clock xmlns:dt=""urn:schemas-microsoft-com:datatypes""><Description dt:dt=""string"">E-Prime Primary Realtime Clock</Description><StartTime><Timestamp dt:dt=""int"">0</Timestamp><DateUtc dt:dt=""string"">2015-07-17T14:57:03Z</DateUtc></StartTime><FrequencyChanges><FrequencyChange><Frequency dt:dt=""r8"">2825664</Frequency><Timestamp dt:dt=""r8"">321060400683</Timestamp><Current dt:dt=""r8"">0</Current><DateUtc dt:dt=""string"">2015-07-17T14:57:03Z</DateUtc></FrequencyChange></FrequencyChanges></Clock>\n"	Arrow Flanker 2014-12427-1	60.018	1.0.0.98	1	-1061605335	Professional	2.0.10.353	2.0.10.353	07-17-2015	7/17/2015 2:57:03 PM	10:57:03	2.0.10.248	4	1	1	1	NA	NA	NA	NA	NA	NA	NA	NA	NA	NA	NA	NA	NA	NA	NA	NA	NA	NA	NA	NA	NA	NA	NA	NA	BlockProc	BlockList	NA	51	{LEFTARROW}	NA	-100	1359	neutral	NA	NA	NA	NA	NA	NA	NA	NA	NA	NA	NA	NA	NA	NA	NA	NA	NA	NA	NA	NA	NA	NA	TrialProc	TrialList	1	13	612435	17	0	16	610752	0	1	{LEFTARROW}	-999999	0	611869	0	{LEFTARROW}	553	612422	NA	NA	left	ooloo.bmp	354	0	NA	0	0	0	0	NA	0	0	0	NA	0	0	0	0	NA	0	0	5	1	51
Arrow Flanker 2014	12427	1	"<?xml version=""1.0""?>\n<Clock xmlns:dt=""urn:schemas-microsoft-com:datatypes""><Description dt:dt=""string"">E-Prime Primary Realtime Clock</Description><StartTime><Timestamp dt:dt=""int"">0</Timestamp><DateUtc dt:dt=""string"">2015-07-17T14:57:03Z</DateUtc></StartTime><FrequencyChanges><FrequencyChange><Frequency dt:dt=""r8"">2825664</Frequency><Timestamp dt:dt=""r8"">321060400683</Timestamp><Current dt:dt=""r8"">0</Current><DateUtc dt:dt=""string"">2015-07-17T14:57:03Z</DateUtc></FrequencyChange></FrequencyChanges></Clock>\n"	Arrow Flanker 2014-12427-1	60.018	1.0.0.98	1	-1061605335	Professional	2.0.10.353	2.0.10.353	07-17-2015	7/17/2015 2:57:03 PM	10:57:03	2.0.10.248	4	1	1	1	NA	NA	NA	NA	NA	NA	NA	NA	NA	NA	NA	NA	NA	NA	NA	NA	NA	NA	NA	NA	NA	NA	NA	NA	BlockProc	BlockList	NA	52	{RIGHTARROW}	NA	-100	2165	neutral	NA	NA	NA	NA	NA	NA	NA	NA	NA	NA	NA	NA	NA	NA	NA	NA	NA	NA	NA	NA	NA	NA	TrialProc	TrialList	1	6	615284	17	0	16	612968	0	1	{RIGHTARROW}	-999999	0	614801	0	{RIGHTARROW}	477	615278	NA	NA	right	ooroo.bmp	354	0	NA	0	0	0	0	NA	0	0	0	NA	0	0	0	0	NA	0	0	6	1	52
Arrow Flanker 2014	12427	1	"<?xml version=""1.0""?>\n<Clock xmlns:dt=""urn:schemas-microsoft-com:datatypes""><Description dt:dt=""string"">E-Prime Primary Realtime Clock</Description><StartTime><Timestamp dt:dt=""int"">0</Timestamp><DateUtc dt:dt=""string"">2015-07-17T14:57:03Z</DateUtc></StartTime><FrequencyChanges><FrequencyChange><Frequency dt:dt=""r8"">2825664</Frequency><Timestamp dt:dt=""r8"">321060400683</Timestamp><Current dt:dt=""r8"">0</Current><DateUtc dt:dt=""string"">2015-07-17T14:57:03Z</DateUtc></FrequencyChange></FrequencyChanges></Clock>\n"	Arrow Flanker 2014-12427-1	60.018	1.0.0.98	1	-1061605335	Professional	2.0.10.353	2.0.10.353	07-17-2015	7/17/2015 2:57:03 PM	10:57:03	2.0.10.248	4	1	1	1	NA	NA	NA	NA	NA	NA	NA	NA	NA	NA	NA	NA	NA	NA	NA	NA	NA	NA	NA	NA	NA	NA	NA	NA	BlockProc	BlockList	NA	53	{RIGHTARROW}	NA	-100	2307	incongruent	NA	NA	NA	NA	NA	NA	NA	NA	NA	NA	NA	NA	NA	NA	NA	NA	NA	NA	NA	NA	NA	NA	TrialProc	TrialList	1	11	618633	17	0	17	615818	0	1	{RIGHTARROW}	-999999	0	617884	0	{RIGHTARROW}	738	618622	NA	NA	right	llrll.bmp	354	0	NA	0	0	0	0	NA	0	0	0	NA	0	0	0	0	NA	0	0	4	1	53
Arrow Flanker 2014	12427	1	"<?xml version=""1.0""?>\n<Clock xmlns:dt=""urn:schemas-microsoft-com:datatypes""><Description dt:dt=""string"">E-Prime Primary Realtime Clock</Description><StartTime><Timestamp dt:dt=""int"">0</Timestamp><DateUtc dt:dt=""string"">2015-07-17T14:57:03Z</DateUtc></StartTime><FrequencyChanges><FrequencyChange><Frequency dt:dt=""r8"">2825664</Frequency><Timestamp dt:dt=""r8"">321060400683</Timestamp><Current dt:dt=""r8"">0</Current><DateUtc dt:dt=""string"">2015-07-17T14:57:03Z</DateUtc></FrequencyChange></FrequencyChanges></Clock>\n"	Arrow Flanker 2014-12427-1	60.018	1.0.0.98	1	-1061605335	Professional	2.0.10.353	2.0.10.353	07-17-2015	7/17/2015 2:57:03 PM	10:57:03	2.0.10.248	4	1	1	1	NA	NA	NA	NA	NA	NA	NA	NA	NA	NA	NA	NA	NA	NA	NA	NA	NA	NA	NA	NA	NA	NA	NA	NA	BlockProc	BlockList	NA	54	{RIGHTARROW}	NA	-100	1373	congruent	NA	NA	NA	NA	NA	NA	NA	NA	NA	NA	NA	NA	NA	NA	NA	NA	NA	NA	NA	NA	3	2	TrialProc	TrialList	0	9	621183	16	0	17	619167	0	1	{RIGHTARROW}	-999999	0	620683	0	{RIGHTARROW}	491	621174	NA	NA	right	rrrrr.bmp	354	0	NA	-999999	18	627364	0	1	4109	631473	0	NA	-999999	22	631496	0	1	8897	640393	2	1	54
Arrow Flanker 2014	12427	1	"<?xml version=""1.0""?>\n<Clock xmlns:dt=""urn:schemas-microsoft-com:datatypes""><Description dt:dt=""string"">E-Prime Primary Realtime Clock</Description><StartTime><Timestamp dt:dt=""int"">0</Timestamp><DateUtc dt:dt=""string"">2015-07-17T14:57:03Z</DateUtc></StartTime><FrequencyChanges><FrequencyChange><Frequency dt:dt=""r8"">2825664</Frequency><Timestamp dt:dt=""r8"">321060400683</Timestamp><Current dt:dt=""r8"">0</Current><DateUtc dt:dt=""string"">2015-07-17T14:57:03Z</DateUtc></FrequencyChange></FrequencyChanges></Clock>\n"	Arrow Flanker 2014-12427-1	60.018	1.0.0.98	1	-1061605335	Professional	2.0.10.353	2.0.10.353	07-17-2015	7/17/2015 2:57:03 PM	10:57:03	2.0.10.248	4	1	1	1	NA	NA	NA	NA	NA	NA	NA	NA	NA	NA	NA	NA	NA	NA	NA	NA	NA	NA	NA	NA	NA	NA	NA	NA	BlockProc	BlockList	NA	55	{LEFTARROW}	NA	-100	1115	congruent	NA	NA	NA	NA	NA	NA	NA	NA	NA	NA	NA	NA	NA	NA	NA	NA	NA	NA	NA	NA	NA	NA	TrialProc	TrialList	0	6	645026	16	0	15	642660	0	1	{LEFTARROW}	-999999	0	643876	0	{LEFTARROW}	1144	645020	NA	NA	left	lllll.bmp	354	0	NA	0	0	0	0	NA	0	0	0	NA	0	0	0	0	NA	0	0	1	1	55
Arrow Flanker 2014	12427	1	"<?xml version=""1.0""?>\n<Clock xmlns:dt=""urn:schemas-microsoft-com:datatypes""><Description dt:dt=""string"">E-Prime Primary Realtime Clock</Description><StartTime><Timestamp dt:dt=""int"">0</Timestamp><DateUtc dt:dt=""string"">2015-07-17T14:57:03Z</DateUtc></StartTime><FrequencyChanges><FrequencyChange><Frequency dt:dt=""r8"">2825664</Frequency><Timestamp dt:dt=""r8"">321060400683</Timestamp><Current dt:dt=""r8"">0</Current><DateUtc dt:dt=""string"">2015-07-17T14:57:03Z</DateUtc></FrequencyChange></FrequencyChanges></Clock>\n"	Arrow Flanker 2014-12427-1	60.018	1.0.0.98	1	-1061605335	Professional	2.0.10.353	2.0.10.353	07-17-2015	7/17/2015 2:57:03 PM	10:57:03	2.0.10.248	4	1	1	1	NA	NA	NA	NA	NA	NA	NA	NA	NA	NA	NA	NA	NA	NA	NA	NA	NA	NA	NA	NA	NA	NA	NA	NA	BlockProc	BlockList	NA	56	{LEFTARROW}	NA	-100	2331	congruent	NA	NA	NA	NA	NA	NA	NA	NA	NA	NA	NA	NA	NA	NA	NA	NA	NA	NA	NA	NA	NA	NA	TrialProc	TrialList	1	11	647991	17	0	17	645559	0	1	{LEFTARROW}	-999999	0	647475	0	{LEFTARROW}	505	647980	NA	NA	left	lllll.bmp	354	0	NA	0	0	0	0	NA	0	0	0	NA	0	0	0	0	NA	0	0	1	1	56
Arrow Flanker 2014	12427	1	"<?xml version=""1.0""?>\n<Clock xmlns:dt=""urn:schemas-microsoft-com:datatypes""><Description dt:dt=""string"">E-Prime Primary Realtime Clock</Description><StartTime><Timestamp dt:dt=""int"">0</Timestamp><DateUtc dt:dt=""string"">2015-07-17T14:57:03Z</DateUtc></StartTime><FrequencyChanges><FrequencyChange><Frequency dt:dt=""r8"">2825664</Frequency><Timestamp dt:dt=""r8"">321060400683</Timestamp><Current dt:dt=""r8"">0</Current><DateUtc dt:dt=""string"">2015-07-17T14:57:03Z</DateUtc></FrequencyChange></FrequencyChanges></Clock>\n"	Arrow Flanker 2014-12427-1	60.018	1.0.0.98	1	-1061605335	Professional	2.0.10.353	2.0.10.353	07-17-2015	7/17/2015 2:57:03 PM	10:57:03	2.0.10.248	4	1	1	1	NA	NA	NA	NA	NA	NA	NA	NA	NA	NA	NA	NA	NA	NA	NA	NA	NA	NA	NA	NA	NA	NA	NA	NA	BlockProc	BlockList	NA	57	{LEFTARROW}	NA	-100	1535	congruent	NA	NA	NA	NA	NA	NA	NA	NA	NA	NA	NA	NA	NA	NA	NA	NA	NA	NA	NA	NA	NA	NA	TrialProc	TrialList	0	19	650191	16	0	16	648524	0	1	{LEFTARROW}	-999999	0	649691	0	{LEFTARROW}	481	650172	NA	NA	left	lllll.bmp	354	0	NA	0	0	0	0	NA	0	0	0	NA	0	0	0	0	NA	0	0	1	1	57
Arrow Flanker 2014	12427	1	"<?xml version=""1.0""?>\n<Clock xmlns:dt=""urn:schemas-microsoft-com:datatypes""><Description dt:dt=""string"">E-Prime Primary Realtime Clock</Description><StartTime><Timestamp dt:dt=""int"">0</Timestamp><DateUtc dt:dt=""string"">2015-07-17T14:57:03Z</DateUtc></StartTime><FrequencyChanges><FrequencyChange><Frequency dt:dt=""r8"">2825664</Frequency><Timestamp dt:dt=""r8"">321060400683</Timestamp><Current dt:dt=""r8"">0</Current><DateUtc dt:dt=""string"">2015-07-17T14:57:03Z</DateUtc></FrequencyChange></FrequencyChanges></Clock>\n"	Arrow Flanker 2014-12427-1	60.018	1.0.0.98	1	-1061605335	Professional	2.0.10.353	2.0.10.353	07-17-2015	7/17/2015 2:57:03 PM	10:57:03	2.0.10.248	4	1	1	1	NA	NA	NA	NA	NA	NA	NA	NA	NA	NA	NA	NA	NA	NA	NA	NA	NA	NA	NA	NA	NA	NA	NA	NA	BlockProc	BlockList	NA	58	{LEFTARROW}	NA	-100	1711	neutral	NA	NA	NA	NA	NA	NA	NA	NA	NA	NA	NA	NA	NA	NA	NA	NA	NA	NA	NA	NA	NA	NA	TrialProc	TrialList	0	6	653090	16	0	17	650724	0	1	{LEFTARROW}	-999999	0	652557	0	{LEFTARROW}	527	653084	NA	NA	left	ooloo.bmp	354	0	NA	0	0	0	0	NA	0	0	0	NA	0	0	0	0	NA	0	0	5	1	58
Arrow Flanker 2014	12427	1	"<?xml version=""1.0""?>\n<Clock xmlns:dt=""urn:schemas-microsoft-com:datatypes""><Description dt:dt=""string"">E-Prime Primary Realtime Clock</Description><StartTime><Timestamp dt:dt=""int"">0</Timestamp><DateUtc dt:dt=""string"">2015-07-17T14:57:03Z</DateUtc></StartTime><FrequencyChanges><FrequencyChange><Frequency dt:dt=""r8"">2825664</Frequency><Timestamp dt:dt=""r8"">321060400683</Timestamp><Current dt:dt=""r8"">0</Current><DateUtc dt:dt=""string"">2015-07-17T14:57:03Z</DateUtc></FrequencyChange></FrequencyChanges></Clock>\n"	Arrow Flanker 2014-12427-1	60.018	1.0.0.98	1	-1061605335	Professional	2.0.10.353	2.0.10.353	07-17-2015	7/17/2015 2:57:03 PM	10:57:03	2.0.10.248	4	1	1	1	NA	NA	NA	NA	NA	NA	NA	NA	NA	NA	NA	NA	NA	NA	NA	NA	NA	NA	NA	NA	NA	NA	NA	NA	BlockProc	BlockList	NA	59	{RIGHTARROW}	NA	-100	1314	incongruent	NA	NA	NA	NA	NA	NA	NA	NA	NA	NA	NA	NA	NA	NA	NA	NA	NA	NA	NA	NA	NA	NA	TrialProc	TrialList	0	14	655506	16	0	17	653623	0	1	{RIGHTARROW}	-999999	0	654856	0	{RIGHTARROW}	635	655491	NA	NA	right	llrll.bmp	354	0	NA	0	0	0	0	NA	0	0	0	NA	0	0	0	0	NA	0	0	4	1	59
Arrow Flanker 2014	12427	1	"<?xml version=""1.0""?>\n<Clock xmlns:dt=""urn:schemas-microsoft-com:datatypes""><Description dt:dt=""string"">E-Prime Primary Realtime Clock</Description><StartTime><Timestamp dt:dt=""int"">0</Timestamp><DateUtc dt:dt=""string"">2015-07-17T14:57:03Z</DateUtc></StartTime><FrequencyChanges><FrequencyChange><Frequency dt:dt=""r8"">2825664</Frequency><Timestamp dt:dt=""r8"">321060400683</Timestamp><Current dt:dt=""r8"">0</Current><DateUtc dt:dt=""string"">2015-07-17T14:57:03Z</DateUtc></FrequencyChange></FrequencyChanges></Clock>\n"	Arrow Flanker 2014-12427-1	60.018	1.0.0.98	1	-1061605335	Professional	2.0.10.353	2.0.10.353	07-17-2015	7/17/2015 2:57:03 PM	10:57:03	2.0.10.248	4	1	1	1	NA	NA	NA	NA	NA	NA	NA	NA	NA	NA	NA	NA	NA	NA	NA	NA	NA	NA	NA	NA	NA	NA	NA	NA	BlockProc	BlockList	NA	60	{LEFTARROW}	NA	-100	2016	incongruent	NA	NA	NA	NA	NA	NA	NA	NA	NA	NA	NA	NA	NA	NA	NA	NA	NA	NA	NA	NA	NA	NA	TrialProc	TrialList	1	19	658638	17	0	17	656039	0	1	{LEFTARROW}	-999999	0	657888	0	{LEFTARROW}	731	658619	NA	NA	left	rrlrr.bmp	354	0	NA	0	0	0	0	NA	0	0	0	NA	0	0	0	0	NA	0	0	3	1	60
Arrow Flanker 2014	12427	1	"<?xml version=""1.0""?>\n<Clock xmlns:dt=""urn:schemas-microsoft-com:datatypes""><Description dt:dt=""string"">E-Prime Primary Realtime Clock</Description><StartTime><Timestamp dt:dt=""int"">0</Timestamp><DateUtc dt:dt=""string"">2015-07-17T14:57:03Z</DateUtc></StartTime><FrequencyChanges><FrequencyChange><Frequency dt:dt=""r8"">2825664</Frequency><Timestamp dt:dt=""r8"">321060400683</Timestamp><Current dt:dt=""r8"">0</Current><DateUtc dt:dt=""string"">2015-07-17T14:57:03Z</DateUtc></FrequencyChange></FrequencyChanges></Clock>\n"	Arrow Flanker 2014-12427-1	60.018	1.0.0.98	1	-1061605335	Professional	2.0.10.353	2.0.10.353	07-17-2015	7/17/2015 2:57:03 PM	10:57:03	2.0.10.248	4	1	1	1	NA	NA	NA	NA	NA	NA	NA	NA	NA	NA	NA	NA	NA	NA	NA	NA	NA	NA	NA	NA	NA	NA	NA	NA	BlockProc	BlockList	NA	61	{LEFTARROW}	NA	-100	1944	incongruent	NA	NA	NA	NA	NA	NA	NA	NA	NA	NA	NA	NA	NA	NA	NA	NA	NA	NA	NA	NA	NA	NA	TrialProc	TrialList	0	8	661571	16	0	16	659171	0	1	{LEFTARROW}	-999999	0	660954	0	{LEFTARROW}	609	661563	NA	NA	left	rrlrr.bmp	354	0	NA	0	0	0	0	NA	0	0	0	NA	0	0	0	0	NA	0	0	3	1	61
Arrow Flanker 2014	12427	1	"<?xml version=""1.0""?>\n<Clock xmlns:dt=""urn:schemas-microsoft-com:datatypes""><Description dt:dt=""string"">E-Prime Primary Realtime Clock</Description><StartTime><Timestamp dt:dt=""int"">0</Timestamp><DateUtc dt:dt=""string"">2015-07-17T14:57:03Z</DateUtc></StartTime><FrequencyChanges><FrequencyChange><Frequency dt:dt=""r8"">2825664</Frequency><Timestamp dt:dt=""r8"">321060400683</Timestamp><Current dt:dt=""r8"">0</Current><DateUtc dt:dt=""string"">2015-07-17T14:57:03Z</DateUtc></FrequencyChange></FrequencyChanges></Clock>\n"	Arrow Flanker 2014-12427-1	60.018	1.0.0.98	1	-1061605335	Professional	2.0.10.353	2.0.10.353	07-17-2015	7/17/2015 2:57:03 PM	10:57:03	2.0.10.248	4	1	1	1	NA	NA	NA	NA	NA	NA	NA	NA	NA	NA	NA	NA	NA	NA	NA	NA	NA	NA	NA	NA	NA	NA	NA	NA	BlockProc	BlockList	NA	62	{LEFTARROW}	NA	-100	1676	incongruent	NA	NA	NA	NA	NA	NA	NA	NA	NA	NA	NA	NA	NA	NA	NA	NA	NA	NA	NA	NA	NA	NA	TrialProc	TrialList	0	21	664120	16	0	17	662104	0	1	{LEFTARROW}	-999999	0	663487	0	{LEFTARROW}	612	664099	NA	NA	left	rrlrr.bmp	354	0	NA	0	0	0	0	NA	0	0	0	NA	0	0	0	0	NA	0	0	3	1	62
Arrow Flanker 2014	12427	1	"<?xml version=""1.0""?>\n<Clock xmlns:dt=""urn:schemas-microsoft-com:datatypes""><Description dt:dt=""string"">E-Prime Primary Realtime Clock</Description><StartTime><Timestamp dt:dt=""int"">0</Timestamp><DateUtc dt:dt=""string"">2015-07-17T14:57:03Z</DateUtc></StartTime><FrequencyChanges><FrequencyChange><Frequency dt:dt=""r8"">2825664</Frequency><Timestamp dt:dt=""r8"">321060400683</Timestamp><Current dt:dt=""r8"">0</Current><DateUtc dt:dt=""string"">2015-07-17T14:57:03Z</DateUtc></FrequencyChange></FrequencyChanges></Clock>\n"	Arrow Flanker 2014-12427-1	60.018	1.0.0.98	1	-1061605335	Professional	2.0.10.353	2.0.10.353	07-17-2015	7/17/2015 2:57:03 PM	10:57:03	2.0.10.248	4	1	1	1	NA	NA	NA	NA	NA	NA	NA	NA	NA	NA	NA	NA	NA	NA	NA	NA	NA	NA	NA	NA	NA	NA	NA	NA	BlockProc	BlockList	NA	63	{RIGHTARROW}	NA	-100	2104	congruent	NA	NA	NA	NA	NA	NA	NA	NA	NA	NA	NA	NA	NA	NA	NA	NA	NA	NA	NA	NA	NA	NA	TrialProc	TrialList	0	14	666969	17	0	17	664653	0	1	{RIGHTARROW}	-999999	0	666286	0	{RIGHTARROW}	669	666955	NA	NA	right	rrrrr.bmp	354	0	NA	0	0	0	0	NA	0	0	0	NA	0	0	0	0	NA	0	0	2	1	63
Arrow Flanker 2014	12427	1	"<?xml version=""1.0""?>\n<Clock xmlns:dt=""urn:schemas-microsoft-com:datatypes""><Description dt:dt=""string"">E-Prime Primary Realtime Clock</Description><StartTime><Timestamp dt:dt=""int"">0</Timestamp><DateUtc dt:dt=""string"">2015-07-17T14:57:03Z</DateUtc></StartTime><FrequencyChanges><FrequencyChange><Frequency dt:dt=""r8"">2825664</Frequency><Timestamp dt:dt=""r8"">321060400683</Timestamp><Current dt:dt=""r8"">0</Current><DateUtc dt:dt=""string"">2015-07-17T14:57:03Z</DateUtc></FrequencyChange></FrequencyChanges></Clock>\n"	Arrow Flanker 2014-12427-1	60.018	1.0.0.98	1	-1061605335	Professional	2.0.10.353	2.0.10.353	07-17-2015	7/17/2015 2:57:03 PM	10:57:03	2.0.10.248	4	1	1	1	NA	NA	NA	NA	NA	NA	NA	NA	NA	NA	NA	NA	NA	NA	NA	NA	NA	NA	NA	NA	NA	NA	NA	NA	BlockProc	BlockList	NA	64	{LEFTARROW}	NA	-100	1098	congruent	NA	NA	NA	NA	NA	NA	NA	NA	NA	NA	NA	NA	NA	NA	NA	NA	NA	NA	NA	NA	NA	NA	TrialProc	TrialList	0	13	669352	16	0	16	667502	0	1	{LEFTARROW}	-999999	0	668752	0	{LEFTARROW}	587	669339	NA	NA	left	lllll.bmp	354	0	NA	0	0	0	0	NA	0	0	0	NA	0	0	0	0	NA	0	0	1	1	64
Arrow Flanker 2014	12427	1	"<?xml version=""1.0""?>\n<Clock xmlns:dt=""urn:schemas-microsoft-com:datatypes""><Description dt:dt=""string"">E-Prime Primary Realtime Clock</Description><StartTime><Timestamp dt:dt=""int"">0</Timestamp><DateUtc dt:dt=""string"">2015-07-17T14:57:03Z</DateUtc></StartTime><FrequencyChanges><FrequencyChange><Frequency dt:dt=""r8"">2825664</Frequency><Timestamp dt:dt=""r8"">321060400683</Timestamp><Current dt:dt=""r8"">0</Current><DateUtc dt:dt=""string"">2015-07-17T14:57:03Z</DateUtc></FrequencyChange></FrequencyChanges></Clock>\n"	Arrow Flanker 2014-12427-1	60.018	1.0.0.98	1	-1061605335	Professional	2.0.10.353	2.0.10.353	07-17-2015	7/17/2015 2:57:03 PM	10:57:03	2.0.10.248	4	1	1	1	NA	NA	NA	NA	NA	NA	NA	NA	NA	NA	NA	NA	NA	NA	NA	NA	NA	NA	NA	NA	NA	NA	NA	NA	BlockProc	BlockList	NA	65	{RIGHTARROW}	NA	-100	1994	congruent	NA	NA	NA	NA	NA	NA	NA	NA	NA	NA	NA	NA	NA	NA	NA	NA	NA	NA	NA	NA	NA	NA	TrialProc	TrialList	0	16	672051	16	0	17	669885	0	1	{RIGHTARROW}	-999999	0	671568	0	{RIGHTARROW}	466	672034	NA	NA	right	rrrrr.bmp	354	0	NA	0	0	0	0	NA	0	0	0	NA	0	0	0	0	NA	0	0	2	1	65
Arrow Flanker 2014	12427	1	"<?xml version=""1.0""?>\n<Clock xmlns:dt=""urn:schemas-microsoft-com:datatypes""><Description dt:dt=""string"">E-Prime Primary Realtime Clock</Description><StartTime><Timestamp dt:dt=""int"">0</Timestamp><DateUtc dt:dt=""string"">2015-07-17T14:57:03Z</DateUtc></StartTime><FrequencyChanges><FrequencyChange><Frequency dt:dt=""r8"">2825664</Frequency><Timestamp dt:dt=""r8"">321060400683</Timestamp><Current dt:dt=""r8"">0</Current><DateUtc dt:dt=""string"">2015-07-17T14:57:03Z</DateUtc></FrequencyChange></FrequencyChanges></Clock>\n"	Arrow Flanker 2014-12427-1	60.018	1.0.0.98	1	-1061605335	Professional	2.0.10.353	2.0.10.353	07-17-2015	7/17/2015 2:57:03 PM	10:57:03	2.0.10.248	4	1	1	1	NA	NA	NA	NA	NA	NA	NA	NA	NA	NA	NA	NA	NA	NA	NA	NA	NA	NA	NA	NA	NA	NA	NA	NA	BlockProc	BlockList	NA	66	{RIGHTARROW}	NA	-100	1182	congruent	NA	NA	NA	NA	NA	NA	NA	NA	NA	NA	NA	NA	NA	NA	NA	NA	NA	NA	NA	NA	NA	NA	TrialProc	TrialList	0	14	674217	17	0	17	672584	0	1	{RIGHTARROW}	-999999	0	673650	0	{RIGHTARROW}	552	674202	NA	NA	right	rrrrr.bmp	354	0	NA	0	0	0	0	NA	0	0	0	NA	0	0	0	0	NA	0	0	2	1	66
