ExperimentName	Subject	Session	Clock.Information	DataFile.Basename	Display.RefreshRate	ExperimentVersion	Group	RandomSeed	RuntimeCapabilities	RuntimeVersion	RuntimeVersionExpected	SessionDate	SessionStartDateTimeUtc	SessionTime	StudioVersion	Block	BlockList	BlockList.Cycle	BlockList.Sample	Both	CompletelyMW	CongMeanRT	CongTotal	Fragmented	GoodByeList	GoodByeList.Cycle	GoodByeList.Sample	IncongMeanRT	IncongTotal	MapBlockList	MapBlockList.Cycle	MapBlockList.Sample	Mindwandering	MostlyMW	MostlyOT	NeutralMeanRT	NeutralTotal	NumberProbes1	NumberProbes2	OnTask	PracBlockList	PracBlockList.Cycle	PracBlockList.Sample	Procedure[Block]	Running[Block]	Sequential	Trial	CorrectAnswer	CuePositionY	CuePositionY2	DurationOfFixation	FlankerType	MapTrialList	MapTrialList.Cycle	MapTrialList.Sample	PracSlideFixationStart.DurationError	PracSlideFixationStart.OnsetDelay	PracSlideFixationStart.OnsetTime	PracSlideFixationStart.OnsetToOnsetTime	PracSlideTarget.ACC	PracSlideTarget.CRESP	PracSlideTarget.DurationError	PracSlideTarget.OnsetDelay	PracSlideTarget.OnsetTime	PracSlideTarget.OnsetToOnsetTime	PracSlideTarget.RESP	PracSlideTarget.RT	PracSlideTarget.RTTime	PracSlideTarget.Tag	PracTrialList	PracTrialList.Cycle	PracTrialList.Sample	Probe1Resp	Probe2Resp	Procedure[Trial]	Running[Trial]	SlideFixationEnd.DurationError	SlideFixationEnd.OnsetDelay	SlideFixationEnd.OnsetTime	SlideFixationEnd.OnsetToOnsetTime	SlideFixationStart.DurationError	SlideFixationStart.OnsetDelay	SlideFixationStart.OnsetTime	SlideFixationStart.OnsetToOnsetTime	SlideTarget.ACC	SlideTarget.CRESP	SlideTarget.DurationError	SlideTarget.OnsetDelay	SlideTarget.OnsetTime	SlideTarget.OnsetToOnsetTime	SlideTarget.RESP	SlideTarget.RT	SlideTarget.RTTime	SlideTarget.Tag	TargerDirection	TargetDirection	TargetImage	TargetPosition	ThoughtProbe1.ACC	ThoughtProbe1.CRESP	ThoughtProbe1.DurationError	ThoughtProbe1.OnsetDelay	ThoughtProbe1.OnsetTime	ThoughtProbe1.OnsetToOnsetTime	ThoughtProbe1.RESP	ThoughtProbe1.RT	ThoughtProbe1.RTTime	ThoughtProbe2.ACC	ThoughtProbe2.CRESP	ThoughtProbe2.DurationError	ThoughtProbe2.OnsetDelay	ThoughtProbe2.OnsetTime	ThoughtProbe2.OnsetToOnsetTime	ThoughtProbe2.RESP	ThoughtProbe2.RT	ThoughtProbe2.RTTime	TrialList	TrialList.Cycle	TrialList.Sample
Arrow Flanker 2014	12456	1	"<?xml version=""1.0""?>\n<Clock xmlns:dt=""urn:schemas-microsoft-com:datatypes""><Description dt:dt=""string"">E-Prime Primary Realtime Clock</Description><StartTime><Timestamp dt:dt=""int"">0</Timestamp><DateUtc dt:dt=""string"">2015-08-11T14:42:37Z</DateUtc></StartTime><FrequencyChanges><FrequencyChange><Frequency dt:dt=""r8"">2825673</Frequency><Timestamp dt:dt=""r8"">933153049374</Timestamp><Current dt:dt=""r8"">0</Current><DateUtc dt:dt=""string"">2015-08-11T14:42:37Z</DateUtc></FrequencyChange></FrequencyChanges></Clock>\n"	Arrow Flanker 2014-12456-1	60.018	1.0.0.98	1	1145710684	Professional	2.0.10.353	2.0.10.353	08-11-2015	8/11/2015 2:42:37 PM	10:42:37	2.0.10.248	1	NA	NA	NA	NA	NA	NA	NA	NA	NA	NA	NA	NA	NA	1	1	1	NA	NA	NA	NA	NA	NA	NA	NA	NA	NA	NA	MapBlockProc	MapBlockList	NA	1	{RIGHTARROW}	-100	NA	693	NA	2	1	1	0	10	184426	700	0	{RIGHTARROW}	0	0	185626	1700	NA	0	0	NA	NA	NA	NA	NA	NA	MapTrialProc	MapTrialList	NA	NA	NA	NA	NA	NA	NA	NA	NA	NA	NA	NA	NA	NA	NA	NA	NA	NA	right	NA	R.bmp	354	NA	NA	NA	NA	NA	NA	NA	NA	NA	NA	NA	NA	NA	NA	NA	NA	NA	NA	NA	NA	NA
Arrow Flanker 2014	12456	1	"<?xml version=""1.0""?>\n<Clock xmlns:dt=""urn:schemas-microsoft-com:datatypes""><Description dt:dt=""string"">E-Prime Primary Realtime Clock</Description><StartTime><Timestamp dt:dt=""int"">0</Timestamp><DateUtc dt:dt=""string"">2015-08-11T14:42:37Z</DateUtc></StartTime><FrequencyChanges><FrequencyChange><Frequency dt:dt=""r8"">2825673</Frequency><Timestamp dt:dt=""r8"">933153049374</Timestamp><Current dt:dt=""r8"">0</Current><DateUtc dt:dt=""string"">2015-08-11T14:42:37Z</DateUtc></FrequencyChange></FrequencyChanges></Clock>\n"	Arrow Flanker 2014-12456-1	60.018	1.0.0.98	1	1145710684	Professional	2.0.10.353	2.0.10.353	08-11-2015	8/11/2015 2:42:37 PM	10:42:37	2.0.10.248	1	NA	NA	NA	NA	NA	NA	NA	NA	NA	NA	NA	NA	NA	1	1	1	NA	NA	NA	NA	NA	NA	NA	NA	NA	NA	NA	MapBlockProc	MapBlockList	NA	2	{LEFTARROW}	-100	NA	692	NA	1	1	2	0	16	188842	699	0	{LEFTARROW}	0	16	190058	1700	NA	0	0	NA	NA	NA	NA	NA	NA	MapTrialProc	MapTrialList	NA	NA	NA	NA	NA	NA	NA	NA	NA	NA	NA	NA	NA	NA	NA	NA	NA	NA	left	NA	L.bmp	354	NA	NA	NA	NA	NA	NA	NA	NA	NA	NA	NA	NA	NA	NA	NA	NA	NA	NA	NA	NA	NA
Arrow Flanker 2014	12456	1	"<?xml version=""1.0""?>\n<Clock xmlns:dt=""urn:schemas-microsoft-com:datatypes""><Description dt:dt=""string"">E-Prime Primary Realtime Clock</Description><StartTime><Timestamp dt:dt=""int"">0</Timestamp><DateUtc dt:dt=""string"">2015-08-11T14:42:37Z</DateUtc></StartTime><FrequencyChanges><FrequencyChange><Frequency dt:dt=""r8"">2825673</Frequency><Timestamp dt:dt=""r8"">933153049374</Timestamp><Current dt:dt=""r8"">0</Current><DateUtc dt:dt=""string"">2015-08-11T14:42:37Z</DateUtc></FrequencyChange></FrequencyChanges></Clock>\n"	Arrow Flanker 2014-12456-1	60.018	1.0.0.98	1	1145710684	Professional	2.0.10.353	2.0.10.353	08-11-2015	8/11/2015 2:42:37 PM	10:42:37	2.0.10.248	1	NA	NA	NA	NA	NA	NA	NA	NA	NA	NA	NA	NA	NA	1	1	1	NA	NA	NA	NA	NA	NA	NA	NA	NA	NA	NA	MapBlockProc	MapBlockList	NA	3	{LEFTARROW}	-100	NA	1303	NA	1	1	3	0	16	193274	1316	0	{LEFTARROW}	0	0	195090	1716	NA	0	0	NA	NA	NA	NA	NA	NA	MapTrialProc	MapTrialList	NA	NA	NA	NA	NA	NA	NA	NA	NA	NA	NA	NA	NA	NA	NA	NA	NA	NA	left	NA	L.bmp	354	NA	NA	NA	NA	NA	NA	NA	NA	NA	NA	NA	NA	NA	NA	NA	NA	NA	NA	NA	NA	NA
Arrow Flanker 2014	12456	1	"<?xml version=""1.0""?>\n<Clock xmlns:dt=""urn:schemas-microsoft-com:datatypes""><Description dt:dt=""string"">E-Prime Primary Realtime Clock</Description><StartTime><Timestamp dt:dt=""int"">0</Timestamp><DateUtc dt:dt=""string"">2015-08-11T14:42:37Z</DateUtc></StartTime><FrequencyChanges><FrequencyChange><Frequency dt:dt=""r8"">2825673</Frequency><Timestamp dt:dt=""r8"">933153049374</Timestamp><Current dt:dt=""r8"">0</Current><DateUtc dt:dt=""string"">2015-08-11T14:42:37Z</DateUtc></FrequencyChange></FrequencyChanges></Clock>\n"	Arrow Flanker 2014-12456-1	60.018	1.0.0.98	1	1145710684	Professional	2.0.10.353	2.0.10.353	08-11-2015	8/11/2015 2:42:37 PM	10:42:37	2.0.10.248	1	NA	NA	NA	NA	NA	NA	NA	NA	NA	NA	NA	NA	NA	1	1	1	NA	NA	NA	NA	NA	NA	NA	NA	NA	NA	NA	MapBlockProc	MapBlockList	NA	4	{LEFTARROW}	-100	NA	1286	NA	1	1	4	0	16	198322	1300	0	{LEFTARROW}	0	0	200122	1716	NA	0	0	NA	NA	NA	NA	NA	NA	MapTrialProc	MapTrialList	NA	NA	NA	NA	NA	NA	NA	NA	NA	NA	NA	NA	NA	NA	NA	NA	NA	NA	left	NA	L.bmp	354	NA	NA	NA	NA	NA	NA	NA	NA	NA	NA	NA	NA	NA	NA	NA	NA	NA	NA	NA	NA	NA
Arrow Flanker 2014	12456	1	"<?xml version=""1.0""?>\n<Clock xmlns:dt=""urn:schemas-microsoft-com:datatypes""><Description dt:dt=""string"">E-Prime Primary Realtime Clock</Description><StartTime><Timestamp dt:dt=""int"">0</Timestamp><DateUtc dt:dt=""string"">2015-08-11T14:42:37Z</DateUtc></StartTime><FrequencyChanges><FrequencyChange><Frequency dt:dt=""r8"">2825673</Frequency><Timestamp dt:dt=""r8"">933153049374</Timestamp><Current dt:dt=""r8"">0</Current><DateUtc dt:dt=""string"">2015-08-11T14:42:37Z</DateUtc></FrequencyChange></FrequencyChanges></Clock>\n"	Arrow Flanker 2014-12456-1	60.018	1.0.0.98	1	1145710684	Professional	2.0.10.353	2.0.10.353	08-11-2015	8/11/2015 2:42:37 PM	10:42:37	2.0.10.248	1	NA	NA	NA	NA	NA	NA	NA	NA	NA	NA	NA	NA	NA	1	1	1	NA	NA	NA	NA	NA	NA	NA	NA	NA	NA	NA	MapBlockProc	MapBlockList	NA	5	{LEFTARROW}	-100	NA	488	NA	1	1	5	0	16	203354	500	0	{LEFTARROW}	0	0	204354	1716	NA	0	0	NA	NA	NA	NA	NA	NA	MapTrialProc	MapTrialList	NA	NA	NA	NA	NA	NA	NA	NA	NA	NA	NA	NA	NA	NA	NA	NA	NA	NA	left	NA	L.bmp	354	NA	NA	NA	NA	NA	NA	NA	NA	NA	NA	NA	NA	NA	NA	NA	NA	NA	NA	NA	NA	NA
Arrow Flanker 2014	12456	1	"<?xml version=""1.0""?>\n<Clock xmlns:dt=""urn:schemas-microsoft-com:datatypes""><Description dt:dt=""string"">E-Prime Primary Realtime Clock</Description><StartTime><Timestamp dt:dt=""int"">0</Timestamp><DateUtc dt:dt=""string"">2015-08-11T14:42:37Z</DateUtc></StartTime><FrequencyChanges><FrequencyChange><Frequency dt:dt=""r8"">2825673</Frequency><Timestamp dt:dt=""r8"">933153049374</Timestamp><Current dt:dt=""r8"">0</Current><DateUtc dt:dt=""string"">2015-08-11T14:42:37Z</DateUtc></FrequencyChange></FrequencyChanges></Clock>\n"	Arrow Flanker 2014-12456-1	60.018	1.0.0.98	1	1145710684	Professional	2.0.10.353	2.0.10.353	08-11-2015	8/11/2015 2:42:37 PM	10:42:37	2.0.10.248	1	NA	NA	NA	NA	NA	NA	NA	NA	NA	NA	NA	NA	NA	1	1	1	NA	NA	NA	NA	NA	NA	NA	NA	NA	NA	NA	MapBlockProc	MapBlockList	NA	6	{RIGHTARROW}	-100	NA	1520	NA	2	1	6	0	16	207586	1533	0	{RIGHTARROW}	0	0	209619	1716	NA	0	0	NA	NA	NA	NA	NA	NA	MapTrialProc	MapTrialList	NA	NA	NA	NA	NA	NA	NA	NA	NA	NA	NA	NA	NA	NA	NA	NA	NA	NA	right	NA	R.bmp	354	NA	NA	NA	NA	NA	NA	NA	NA	NA	NA	NA	NA	NA	NA	NA	NA	NA	NA	NA	NA	NA
Arrow Flanker 2014	12456	1	"<?xml version=""1.0""?>\n<Clock xmlns:dt=""urn:schemas-microsoft-com:datatypes""><Description dt:dt=""string"">E-Prime Primary Realtime Clock</Description><StartTime><Timestamp dt:dt=""int"">0</Timestamp><DateUtc dt:dt=""string"">2015-08-11T14:42:37Z</DateUtc></StartTime><FrequencyChanges><FrequencyChange><Frequency dt:dt=""r8"">2825673</Frequency><Timestamp dt:dt=""r8"">933153049374</Timestamp><Current dt:dt=""r8"">0</Current><DateUtc dt:dt=""string"">2015-08-11T14:42:37Z</DateUtc></FrequencyChange></FrequencyChanges></Clock>\n"	Arrow Flanker 2014-12456-1	60.018	1.0.0.98	1	1145710684	Professional	2.0.10.353	2.0.10.353	08-11-2015	8/11/2015 2:42:37 PM	10:42:37	2.0.10.248	1	NA	NA	NA	NA	NA	NA	NA	NA	NA	NA	NA	NA	NA	1	1	1	NA	NA	NA	NA	NA	NA	NA	NA	NA	NA	NA	MapBlockProc	MapBlockList	NA	7	{LEFTARROW}	-100	NA	992	NA	1	1	7	0	16	212851	1000	1	{LEFTARROW}	-999999	0	214351	0	{LEFTARROW}	855	215206	NA	NA	NA	NA	NA	NA	MapTrialProc	MapTrialList	NA	NA	NA	NA	NA	NA	NA	NA	NA	NA	NA	NA	NA	NA	NA	NA	NA	NA	left	NA	L.bmp	354	NA	NA	NA	NA	NA	NA	NA	NA	NA	NA	NA	NA	NA	NA	NA	NA	NA	NA	NA	NA	NA
Arrow Flanker 2014	12456	1	"<?xml version=""1.0""?>\n<Clock xmlns:dt=""urn:schemas-microsoft-com:datatypes""><Description dt:dt=""string"">E-Prime Primary Realtime Clock</Description><StartTime><Timestamp dt:dt=""int"">0</Timestamp><DateUtc dt:dt=""string"">2015-08-11T14:42:37Z</DateUtc></StartTime><FrequencyChanges><FrequencyChange><Frequency dt:dt=""r8"">2825673</Frequency><Timestamp dt:dt=""r8"">933153049374</Timestamp><Current dt:dt=""r8"">0</Current><DateUtc dt:dt=""string"">2015-08-11T14:42:37Z</DateUtc></FrequencyChange></FrequencyChanges></Clock>\n"	Arrow Flanker 2014-12456-1	60.018	1.0.0.98	1	1145710684	Professional	2.0.10.353	2.0.10.353	08-11-2015	8/11/2015 2:42:37 PM	10:42:37	2.0.10.248	1	NA	NA	NA	NA	NA	NA	NA	NA	NA	NA	NA	NA	NA	1	1	1	NA	NA	NA	NA	NA	NA	NA	NA	NA	NA	NA	MapBlockProc	MapBlockList	NA	8	{RIGHTARROW}	-100	NA	749	NA	2	1	8	0	16	216733	750	0	{RIGHTARROW}	0	0	217983	1699	NA	0	0	NA	NA	NA	NA	NA	NA	MapTrialProc	MapTrialList	NA	NA	NA	NA	NA	NA	NA	NA	NA	NA	NA	NA	NA	NA	NA	NA	NA	NA	right	NA	R.bmp	354	NA	NA	NA	NA	NA	NA	NA	NA	NA	NA	NA	NA	NA	NA	NA	NA	NA	NA	NA	NA	NA
Arrow Flanker 2014	12456	1	"<?xml version=""1.0""?>\n<Clock xmlns:dt=""urn:schemas-microsoft-com:datatypes""><Description dt:dt=""string"">E-Prime Primary Realtime Clock</Description><StartTime><Timestamp dt:dt=""int"">0</Timestamp><DateUtc dt:dt=""string"">2015-08-11T14:42:37Z</DateUtc></StartTime><FrequencyChanges><FrequencyChange><Frequency dt:dt=""r8"">2825673</Frequency><Timestamp dt:dt=""r8"">933153049374</Timestamp><Current dt:dt=""r8"">0</Current><DateUtc dt:dt=""string"">2015-08-11T14:42:37Z</DateUtc></FrequencyChange></FrequencyChanges></Clock>\n"	Arrow Flanker 2014-12456-1	60.018	1.0.0.98	1	1145710684	Professional	2.0.10.353	2.0.10.353	08-11-2015	8/11/2015 2:42:37 PM	10:42:37	2.0.10.248	1	NA	NA	NA	NA	NA	NA	NA	NA	NA	NA	NA	NA	NA	1	1	1	NA	NA	NA	NA	NA	NA	NA	NA	NA	NA	NA	MapBlockProc	MapBlockList	NA	9	{RIGHTARROW}	-100	NA	1292	NA	2	1	9	0	17	221199	1299	1	{RIGHTARROW}	-999999	0	222998	0	{RIGHTARROW}	928	223926	NA	NA	NA	NA	NA	NA	MapTrialProc	MapTrialList	NA	NA	NA	NA	NA	NA	NA	NA	NA	NA	NA	NA	NA	NA	NA	NA	NA	NA	right	NA	R.bmp	354	NA	NA	NA	NA	NA	NA	NA	NA	NA	NA	NA	NA	NA	NA	NA	NA	NA	NA	NA	NA	NA
Arrow Flanker 2014	12456	1	"<?xml version=""1.0""?>\n<Clock xmlns:dt=""urn:schemas-microsoft-com:datatypes""><Description dt:dt=""string"">E-Prime Primary Realtime Clock</Description><StartTime><Timestamp dt:dt=""int"">0</Timestamp><DateUtc dt:dt=""string"">2015-08-11T14:42:37Z</DateUtc></StartTime><FrequencyChanges><FrequencyChange><Frequency dt:dt=""r8"">2825673</Frequency><Timestamp dt:dt=""r8"">933153049374</Timestamp><Current dt:dt=""r8"">0</Current><DateUtc dt:dt=""string"">2015-08-11T14:42:37Z</DateUtc></FrequencyChange></FrequencyChanges></Clock>\n"	Arrow Flanker 2014-12456-1	60.018	1.0.0.98	1	1145710684	Professional	2.0.10.353	2.0.10.353	08-11-2015	8/11/2015 2:42:37 PM	10:42:37	2.0.10.248	1	NA	NA	NA	NA	NA	NA	NA	NA	NA	NA	NA	NA	NA	1	1	1	NA	NA	NA	NA	NA	NA	NA	NA	NA	NA	NA	MapBlockProc	MapBlockList	NA	10	{RIGHTARROW}	-100	NA	891	NA	2	1	10	0	16	225464	900	1	{RIGHTARROW}	-999999	0	226864	0	{RIGHTARROW}	885	227749	NA	NA	NA	NA	NA	NA	MapTrialProc	MapTrialList	NA	NA	NA	NA	NA	NA	NA	NA	NA	NA	NA	NA	NA	NA	NA	NA	NA	NA	right	NA	R.bmp	354	NA	NA	NA	NA	NA	NA	NA	NA	NA	NA	NA	NA	NA	NA	NA	NA	NA	NA	NA	NA	NA
Arrow Flanker 2014	12456	1	"<?xml version=""1.0""?>\n<Clock xmlns:dt=""urn:schemas-microsoft-com:datatypes""><Description dt:dt=""string"">E-Prime Primary Realtime Clock</Description><StartTime><Timestamp dt:dt=""int"">0</Timestamp><DateUtc dt:dt=""string"">2015-08-11T14:42:37Z</DateUtc></StartTime><FrequencyChanges><FrequencyChange><Frequency dt:dt=""r8"">2825673</Frequency><Timestamp dt:dt=""r8"">933153049374</Timestamp><Current dt:dt=""r8"">0</Current><DateUtc dt:dt=""string"">2015-08-11T14:42:37Z</DateUtc></FrequencyChange></FrequencyChanges></Clock>\n"	Arrow Flanker 2014-12456-1	60.018	1.0.0.98	1	1145710684	Professional	2.0.10.353	2.0.10.353	08-11-2015	8/11/2015 2:42:37 PM	10:42:37	2.0.10.248	2	NA	NA	NA	NA	NA	NA	NA	NA	NA	NA	NA	NA	NA	NA	NA	NA	NA	NA	NA	NA	NA	NA	NA	NA	1	1	1	PracBlockProc	PracBlockList	NA	1	{LEFTARROW}	-100	NA	696	congruent	NA	NA	NA	0	8	260603	700	0	{LEFTARROW}	0	0	261803	1716	NA	0	0	NA	1	1	1	NA	NA	PracTrialProc	PracTrialList	NA	NA	NA	NA	NA	NA	NA	NA	NA	NA	NA	NA	NA	NA	NA	NA	NA	NA	left	NA	lllll.bmp	354	NA	NA	NA	NA	NA	NA	NA	NA	NA	NA	NA	NA	NA	NA	NA	NA	NA	NA	NA	NA	NA
Arrow Flanker 2014	12456	1	"<?xml version=""1.0""?>\n<Clock xmlns:dt=""urn:schemas-microsoft-com:datatypes""><Description dt:dt=""string"">E-Prime Primary Realtime Clock</Description><StartTime><Timestamp dt:dt=""int"">0</Timestamp><DateUtc dt:dt=""string"">2015-08-11T14:42:37Z</DateUtc></StartTime><FrequencyChanges><FrequencyChange><Frequency dt:dt=""r8"">2825673</Frequency><Timestamp dt:dt=""r8"">933153049374</Timestamp><Current dt:dt=""r8"">0</Current><DateUtc dt:dt=""string"">2015-08-11T14:42:37Z</DateUtc></FrequencyChange></FrequencyChanges></Clock>\n"	Arrow Flanker 2014-12456-1	60.018	1.0.0.98	1	1145710684	Professional	2.0.10.353	2.0.10.353	08-11-2015	8/11/2015 2:42:37 PM	10:42:37	2.0.10.248	2	NA	NA	NA	NA	NA	NA	NA	NA	NA	NA	NA	NA	NA	NA	NA	NA	NA	NA	NA	NA	NA	NA	NA	NA	1	1	1	PracBlockProc	PracBlockList	NA	2	{LEFTARROW}	-100	NA	795	incongruent	NA	NA	NA	0	16	265035	800	0	{LEFTARROW}	0	0	266335	1700	NA	0	0	NA	2	1	2	NA	NA	PracTrialProc	PracTrialList	NA	NA	NA	NA	NA	NA	NA	NA	NA	NA	NA	NA	NA	NA	NA	NA	NA	NA	left	NA	rrlrr.bmp	354	NA	NA	NA	NA	NA	NA	NA	NA	NA	NA	NA	NA	NA	NA	NA	NA	NA	NA	NA	NA	NA
Arrow Flanker 2014	12456	1	"<?xml version=""1.0""?>\n<Clock xmlns:dt=""urn:schemas-microsoft-com:datatypes""><Description dt:dt=""string"">E-Prime Primary Realtime Clock</Description><StartTime><Timestamp dt:dt=""int"">0</Timestamp><DateUtc dt:dt=""string"">2015-08-11T14:42:37Z</DateUtc></StartTime><FrequencyChanges><FrequencyChange><Frequency dt:dt=""r8"">2825673</Frequency><Timestamp dt:dt=""r8"">933153049374</Timestamp><Current dt:dt=""r8"">0</Current><DateUtc dt:dt=""string"">2015-08-11T14:42:37Z</DateUtc></FrequencyChange></FrequencyChanges></Clock>\n"	Arrow Flanker 2014-12456-1	60.018	1.0.0.98	1	1145710684	Professional	2.0.10.353	2.0.10.353	08-11-2015	8/11/2015 2:42:37 PM	10:42:37	2.0.10.248	2	NA	NA	NA	NA	NA	NA	NA	NA	NA	NA	NA	NA	NA	NA	NA	NA	NA	NA	NA	NA	NA	NA	NA	NA	1	1	1	PracBlockProc	PracBlockList	NA	3	{RIGHTARROW}	-100	NA	1292	congruent	NA	NA	NA	0	16	269551	1299	0	{RIGHTARROW}	0	0	271350	1700	NA	0	0	NA	4	1	3	NA	NA	PracTrialProc	PracTrialList	NA	NA	NA	NA	NA	NA	NA	NA	NA	NA	NA	NA	NA	NA	NA	NA	NA	NA	right	NA	rrrrr.bmp	354	NA	NA	NA	NA	NA	NA	NA	NA	NA	NA	NA	NA	NA	NA	NA	NA	NA	NA	NA	NA	NA
Arrow Flanker 2014	12456	1	"<?xml version=""1.0""?>\n<Clock xmlns:dt=""urn:schemas-microsoft-com:datatypes""><Description dt:dt=""string"">E-Prime Primary Realtime Clock</Description><StartTime><Timestamp dt:dt=""int"">0</Timestamp><DateUtc dt:dt=""string"">2015-08-11T14:42:37Z</DateUtc></StartTime><FrequencyChanges><FrequencyChange><Frequency dt:dt=""r8"">2825673</Frequency><Timestamp dt:dt=""r8"">933153049374</Timestamp><Current dt:dt=""r8"">0</Current><DateUtc dt:dt=""string"">2015-08-11T14:42:37Z</DateUtc></FrequencyChange></FrequencyChanges></Clock>\n"	Arrow Flanker 2014-12456-1	60.018	1.0.0.98	1	1145710684	Professional	2.0.10.353	2.0.10.353	08-11-2015	8/11/2015 2:42:37 PM	10:42:37	2.0.10.248	2	NA	NA	NA	NA	NA	NA	NA	NA	NA	NA	NA	NA	NA	NA	NA	NA	NA	NA	NA	NA	NA	NA	NA	NA	1	1	1	PracBlockProc	PracBlockList	NA	4	{RIGHTARROW}	-100	NA	735	neutral	NA	NA	NA	0	16	274566	750	1	{RIGHTARROW}	0	-1	275815	0	{RIGHTARROW}	1667	277482	NA	6	1	4	NA	NA	PracTrialProc	PracTrialList	NA	NA	NA	NA	NA	NA	NA	NA	NA	NA	NA	NA	NA	NA	NA	NA	NA	NA	right	NA	ooroo.bmp	354	NA	NA	NA	NA	NA	NA	NA	NA	NA	NA	NA	NA	NA	NA	NA	NA	NA	NA	NA	NA	NA
Arrow Flanker 2014	12456	1	"<?xml version=""1.0""?>\n<Clock xmlns:dt=""urn:schemas-microsoft-com:datatypes""><Description dt:dt=""string"">E-Prime Primary Realtime Clock</Description><StartTime><Timestamp dt:dt=""int"">0</Timestamp><DateUtc dt:dt=""string"">2015-08-11T14:42:37Z</DateUtc></StartTime><FrequencyChanges><FrequencyChange><Frequency dt:dt=""r8"">2825673</Frequency><Timestamp dt:dt=""r8"">933153049374</Timestamp><Current dt:dt=""r8"">0</Current><DateUtc dt:dt=""string"">2015-08-11T14:42:37Z</DateUtc></FrequencyChange></FrequencyChanges></Clock>\n"	Arrow Flanker 2014-12456-1	60.018	1.0.0.98	1	1145710684	Professional	2.0.10.353	2.0.10.353	08-11-2015	8/11/2015 2:42:37 PM	10:42:37	2.0.10.248	2	NA	NA	NA	NA	NA	NA	NA	NA	NA	NA	NA	NA	NA	NA	NA	NA	NA	NA	NA	NA	NA	NA	NA	NA	1	1	1	PracBlockProc	PracBlockList	NA	5	{RIGHTARROW}	-100	NA	528	incongruent	NA	NA	NA	0	16	278998	533	0	{RIGHTARROW}	0	0	280031	1716	NA	0	0	NA	5	1	5	NA	NA	PracTrialProc	PracTrialList	NA	NA	NA	NA	NA	NA	NA	NA	NA	NA	NA	NA	NA	NA	NA	NA	NA	NA	right	NA	llrll.bmp	354	NA	NA	NA	NA	NA	NA	NA	NA	NA	NA	NA	NA	NA	NA	NA	NA	NA	NA	NA	NA	NA
Arrow Flanker 2014	12456	1	"<?xml version=""1.0""?>\n<Clock xmlns:dt=""urn:schemas-microsoft-com:datatypes""><Description dt:dt=""string"">E-Prime Primary Realtime Clock</Description><StartTime><Timestamp dt:dt=""int"">0</Timestamp><DateUtc dt:dt=""string"">2015-08-11T14:42:37Z</DateUtc></StartTime><FrequencyChanges><FrequencyChange><Frequency dt:dt=""r8"">2825673</Frequency><Timestamp dt:dt=""r8"">933153049374</Timestamp><Current dt:dt=""r8"">0</Current><DateUtc dt:dt=""string"">2015-08-11T14:42:37Z</DateUtc></FrequencyChange></FrequencyChanges></Clock>\n"	Arrow Flanker 2014-12456-1	60.018	1.0.0.98	1	1145710684	Professional	2.0.10.353	2.0.10.353	08-11-2015	8/11/2015 2:42:37 PM	10:42:37	2.0.10.248	2	NA	NA	NA	NA	NA	NA	NA	NA	NA	NA	NA	NA	NA	NA	NA	NA	NA	NA	NA	NA	NA	NA	NA	NA	1	1	1	PracBlockProc	PracBlockList	NA	6	{LEFTARROW}	-100	NA	1377	neutral	NA	NA	NA	0	16	283263	1383	1	{LEFTARROW}	-999999	0	285146	0	{LEFTARROW}	1183	286329	NA	3	1	6	NA	NA	PracTrialProc	PracTrialList	NA	NA	NA	NA	NA	NA	NA	NA	NA	NA	NA	NA	NA	NA	NA	NA	NA	NA	left	NA	ooloo.bmp	354	NA	NA	NA	NA	NA	NA	NA	NA	NA	NA	NA	NA	NA	NA	NA	NA	NA	NA	NA	NA	NA
Arrow Flanker 2014	12456	1	"<?xml version=""1.0""?>\n<Clock xmlns:dt=""urn:schemas-microsoft-com:datatypes""><Description dt:dt=""string"">E-Prime Primary Realtime Clock</Description><StartTime><Timestamp dt:dt=""int"">0</Timestamp><DateUtc dt:dt=""string"">2015-08-11T14:42:37Z</DateUtc></StartTime><FrequencyChanges><FrequencyChange><Frequency dt:dt=""r8"">2825673</Frequency><Timestamp dt:dt=""r8"">933153049374</Timestamp><Current dt:dt=""r8"">0</Current><DateUtc dt:dt=""string"">2015-08-11T14:42:37Z</DateUtc></FrequencyChange></FrequencyChanges></Clock>\n"	Arrow Flanker 2014-12456-1	60.018	1.0.0.98	1	1145710684	Professional	2.0.10.353	2.0.10.353	08-11-2015	8/11/2015 2:42:37 PM	10:42:37	2.0.10.248	3	NA	NA	NA	NA	NA	NA	NA	NA	NA	NA	NA	NA	NA	NA	NA	NA	NA	NA	NA	NA	NA	NA	NA	NA	1	2	2	PracBlockProc	PracBlockList	NA	1	{LEFTARROW}	-100	NA	1018	incongruent	NA	NA	NA	0	19	309739	1033	0	{LEFTARROW}	0	0	311288	0	{RIGHTARROW}	1672	312960	NA	2	2	7	NA	NA	PracTrialProc	PracTrialList	NA	NA	NA	NA	NA	NA	NA	NA	NA	NA	NA	NA	NA	NA	NA	NA	NA	NA	left	NA	rrlrr.bmp	354	NA	NA	NA	NA	NA	NA	NA	NA	NA	NA	NA	NA	NA	NA	NA	NA	NA	NA	NA	NA	NA
Arrow Flanker 2014	12456	1	"<?xml version=""1.0""?>\n<Clock xmlns:dt=""urn:schemas-microsoft-com:datatypes""><Description dt:dt=""string"">E-Prime Primary Realtime Clock</Description><StartTime><Timestamp dt:dt=""int"">0</Timestamp><DateUtc dt:dt=""string"">2015-08-11T14:42:37Z</DateUtc></StartTime><FrequencyChanges><FrequencyChange><Frequency dt:dt=""r8"">2825673</Frequency><Timestamp dt:dt=""r8"">933153049374</Timestamp><Current dt:dt=""r8"">0</Current><DateUtc dt:dt=""string"">2015-08-11T14:42:37Z</DateUtc></FrequencyChange></FrequencyChanges></Clock>\n"	Arrow Flanker 2014-12456-1	60.018	1.0.0.98	1	1145710684	Professional	2.0.10.353	2.0.10.353	08-11-2015	8/11/2015 2:42:37 PM	10:42:37	2.0.10.248	3	NA	NA	NA	NA	NA	NA	NA	NA	NA	NA	NA	NA	NA	NA	NA	NA	NA	NA	NA	NA	NA	NA	NA	NA	1	2	2	PracBlockProc	PracBlockList	NA	2	{RIGHTARROW}	-100	NA	620	congruent	NA	NA	NA	0	16	314487	633	1	{RIGHTARROW}	-999999	0	315620	0	{RIGHTARROW}	708	316328	NA	4	2	8	NA	NA	PracTrialProc	PracTrialList	NA	NA	NA	NA	NA	NA	NA	NA	NA	NA	NA	NA	NA	NA	NA	NA	NA	NA	right	NA	rrrrr.bmp	354	NA	NA	NA	NA	NA	NA	NA	NA	NA	NA	NA	NA	NA	NA	NA	NA	NA	NA	NA	NA	NA
Arrow Flanker 2014	12456	1	"<?xml version=""1.0""?>\n<Clock xmlns:dt=""urn:schemas-microsoft-com:datatypes""><Description dt:dt=""string"">E-Prime Primary Realtime Clock</Description><StartTime><Timestamp dt:dt=""int"">0</Timestamp><DateUtc dt:dt=""string"">2015-08-11T14:42:37Z</DateUtc></StartTime><FrequencyChanges><FrequencyChange><Frequency dt:dt=""r8"">2825673</Frequency><Timestamp dt:dt=""r8"">933153049374</Timestamp><Current dt:dt=""r8"">0</Current><DateUtc dt:dt=""string"">2015-08-11T14:42:37Z</DateUtc></FrequencyChange></FrequencyChanges></Clock>\n"	Arrow Flanker 2014-12456-1	60.018	1.0.0.98	1	1145710684	Professional	2.0.10.353	2.0.10.353	08-11-2015	8/11/2015 2:42:37 PM	10:42:37	2.0.10.248	3	NA	NA	NA	NA	NA	NA	NA	NA	NA	NA	NA	NA	NA	NA	NA	NA	NA	NA	NA	NA	NA	NA	NA	NA	1	2	2	PracBlockProc	PracBlockList	NA	3	{LEFTARROW}	-100	NA	479	neutral	NA	NA	NA	0	16	317869	484	1	{LEFTARROW}	-999999	0	318853	0	{LEFTARROW}	626	319479	NA	3	2	9	NA	NA	PracTrialProc	PracTrialList	NA	NA	NA	NA	NA	NA	NA	NA	NA	NA	NA	NA	NA	NA	NA	NA	NA	NA	left	NA	ooloo.bmp	354	NA	NA	NA	NA	NA	NA	NA	NA	NA	NA	NA	NA	NA	NA	NA	NA	NA	NA	NA	NA	NA
Arrow Flanker 2014	12456	1	"<?xml version=""1.0""?>\n<Clock xmlns:dt=""urn:schemas-microsoft-com:datatypes""><Description dt:dt=""string"">E-Prime Primary Realtime Clock</Description><StartTime><Timestamp dt:dt=""int"">0</Timestamp><DateUtc dt:dt=""string"">2015-08-11T14:42:37Z</DateUtc></StartTime><FrequencyChanges><FrequencyChange><Frequency dt:dt=""r8"">2825673</Frequency><Timestamp dt:dt=""r8"">933153049374</Timestamp><Current dt:dt=""r8"">0</Current><DateUtc dt:dt=""string"">2015-08-11T14:42:37Z</DateUtc></FrequencyChange></FrequencyChanges></Clock>\n"	Arrow Flanker 2014-12456-1	60.018	1.0.0.98	1	1145710684	Professional	2.0.10.353	2.0.10.353	08-11-2015	8/11/2015 2:42:37 PM	10:42:37	2.0.10.248	3	NA	NA	NA	NA	NA	NA	NA	NA	NA	NA	NA	NA	NA	NA	NA	NA	NA	NA	NA	NA	NA	NA	NA	NA	1	2	2	PracBlockProc	PracBlockList	NA	4	{RIGHTARROW}	-100	NA	1521	neutral	NA	NA	NA	0	16	321018	1533	1	{RIGHTARROW}	-999999	0	323051	0	{RIGHTARROW}	948	323999	NA	6	2	10	NA	NA	PracTrialProc	PracTrialList	NA	NA	NA	NA	NA	NA	NA	NA	NA	NA	NA	NA	NA	NA	NA	NA	NA	NA	right	NA	ooroo.bmp	354	NA	NA	NA	NA	NA	NA	NA	NA	NA	NA	NA	NA	NA	NA	NA	NA	NA	NA	NA	NA	NA
Arrow Flanker 2014	12456	1	"<?xml version=""1.0""?>\n<Clock xmlns:dt=""urn:schemas-microsoft-com:datatypes""><Description dt:dt=""string"">E-Prime Primary Realtime Clock</Description><StartTime><Timestamp dt:dt=""int"">0</Timestamp><DateUtc dt:dt=""string"">2015-08-11T14:42:37Z</DateUtc></StartTime><FrequencyChanges><FrequencyChange><Frequency dt:dt=""r8"">2825673</Frequency><Timestamp dt:dt=""r8"">933153049374</Timestamp><Current dt:dt=""r8"">0</Current><DateUtc dt:dt=""string"">2015-08-11T14:42:37Z</DateUtc></FrequencyChange></FrequencyChanges></Clock>\n"	Arrow Flanker 2014-12456-1	60.018	1.0.0.98	1	1145710684	Professional	2.0.10.353	2.0.10.353	08-11-2015	8/11/2015 2:42:37 PM	10:42:37	2.0.10.248	3	NA	NA	NA	NA	NA	NA	NA	NA	NA	NA	NA	NA	NA	NA	NA	NA	NA	NA	NA	NA	NA	NA	NA	NA	1	2	2	PracBlockProc	PracBlockList	NA	5	{RIGHTARROW}	-100	NA	585	incongruent	NA	NA	NA	0	16	325534	600	0	{RIGHTARROW}	-999999	16	326650	0	{LEFTARROW}	557	327207	NA	5	2	11	NA	NA	PracTrialProc	PracTrialList	NA	NA	NA	NA	NA	NA	NA	NA	NA	NA	NA	NA	NA	NA	NA	NA	NA	NA	right	NA	llrll.bmp	354	NA	NA	NA	NA	NA	NA	NA	NA	NA	NA	NA	NA	NA	NA	NA	NA	NA	NA	NA	NA	NA
Arrow Flanker 2014	12456	1	"<?xml version=""1.0""?>\n<Clock xmlns:dt=""urn:schemas-microsoft-com:datatypes""><Description dt:dt=""string"">E-Prime Primary Realtime Clock</Description><StartTime><Timestamp dt:dt=""int"">0</Timestamp><DateUtc dt:dt=""string"">2015-08-11T14:42:37Z</DateUtc></StartTime><FrequencyChanges><FrequencyChange><Frequency dt:dt=""r8"">2825673</Frequency><Timestamp dt:dt=""r8"">933153049374</Timestamp><Current dt:dt=""r8"">0</Current><DateUtc dt:dt=""string"">2015-08-11T14:42:37Z</DateUtc></FrequencyChange></FrequencyChanges></Clock>\n"	Arrow Flanker 2014-12456-1	60.018	1.0.0.98	1	1145710684	Professional	2.0.10.353	2.0.10.353	08-11-2015	8/11/2015 2:42:37 PM	10:42:37	2.0.10.248	3	NA	NA	NA	NA	NA	NA	NA	NA	NA	NA	NA	NA	NA	NA	NA	NA	NA	NA	NA	NA	NA	NA	NA	NA	1	2	2	PracBlockProc	PracBlockList	NA	6	{LEFTARROW}	-100	NA	1167	congruent	NA	NA	NA	0	16	328733	1183	1	{LEFTARROW}	-999999	0	330416	0	{LEFTARROW}	695	331111	NA	1	2	12	NA	NA	PracTrialProc	PracTrialList	NA	NA	NA	NA	NA	NA	NA	NA	NA	NA	NA	NA	NA	NA	NA	NA	NA	NA	left	NA	lllll.bmp	354	NA	NA	NA	NA	NA	NA	NA	NA	NA	NA	NA	NA	NA	NA	NA	NA	NA	NA	NA	NA	NA
Arrow Flanker 2014	12456	1	"<?xml version=""1.0""?>\n<Clock xmlns:dt=""urn:schemas-microsoft-com:datatypes""><Description dt:dt=""string"">E-Prime Primary Realtime Clock</Description><StartTime><Timestamp dt:dt=""int"">0</Timestamp><DateUtc dt:dt=""string"">2015-08-11T14:42:37Z</DateUtc></StartTime><FrequencyChanges><FrequencyChange><Frequency dt:dt=""r8"">2825673</Frequency><Timestamp dt:dt=""r8"">933153049374</Timestamp><Current dt:dt=""r8"">0</Current><DateUtc dt:dt=""string"">2015-08-11T14:42:37Z</DateUtc></FrequencyChange></FrequencyChanges></Clock>\n"	Arrow Flanker 2014-12456-1	60.018	1.0.0.98	1	1145710684	Professional	2.0.10.353	2.0.10.353	08-11-2015	8/11/2015 2:42:37 PM	10:42:37	2.0.10.248	4	NA	NA	NA	NA	NA	NA	NA	NA	NA	NA	NA	NA	NA	NA	NA	NA	NA	NA	NA	NA	NA	NA	NA	NA	1	3	3	PracBlockProc	PracBlockList	NA	1	{LEFTARROW}	-100	NA	429	neutral	NA	NA	NA	0	7	343445	433	1	{LEFTARROW}	-999999	0	344378	0	{LEFTARROW}	884	345262	NA	3	3	13	NA	NA	PracTrialProc	PracTrialList	NA	NA	NA	NA	NA	NA	NA	NA	NA	NA	NA	NA	NA	NA	NA	NA	NA	NA	left	NA	ooloo.bmp	354	NA	NA	NA	NA	NA	NA	NA	NA	NA	NA	NA	NA	NA	NA	NA	NA	NA	NA	NA	NA	NA
Arrow Flanker 2014	12456	1	"<?xml version=""1.0""?>\n<Clock xmlns:dt=""urn:schemas-microsoft-com:datatypes""><Description dt:dt=""string"">E-Prime Primary Realtime Clock</Description><StartTime><Timestamp dt:dt=""int"">0</Timestamp><DateUtc dt:dt=""string"">2015-08-11T14:42:37Z</DateUtc></StartTime><FrequencyChanges><FrequencyChange><Frequency dt:dt=""r8"">2825673</Frequency><Timestamp dt:dt=""r8"">933153049374</Timestamp><Current dt:dt=""r8"">0</Current><DateUtc dt:dt=""string"">2015-08-11T14:42:37Z</DateUtc></FrequencyChange></FrequencyChanges></Clock>\n"	Arrow Flanker 2014-12456-1	60.018	1.0.0.98	1	1145710684	Professional	2.0.10.353	2.0.10.353	08-11-2015	8/11/2015 2:42:37 PM	10:42:37	2.0.10.248	4	NA	NA	NA	NA	NA	NA	NA	NA	NA	NA	NA	NA	NA	NA	NA	NA	NA	NA	NA	NA	NA	NA	NA	NA	1	3	3	PracBlockProc	PracBlockList	NA	2	{RIGHTARROW}	-100	NA	1129	neutral	NA	NA	NA	0	16	346794	1133	1	{RIGHTARROW}	-999999	0	348427	0	{RIGHTARROW}	731	349158	NA	6	3	14	NA	NA	PracTrialProc	PracTrialList	NA	NA	NA	NA	NA	NA	NA	NA	NA	NA	NA	NA	NA	NA	NA	NA	NA	NA	right	NA	ooroo.bmp	354	NA	NA	NA	NA	NA	NA	NA	NA	NA	NA	NA	NA	NA	NA	NA	NA	NA	NA	NA	NA	NA
Arrow Flanker 2014	12456	1	"<?xml version=""1.0""?>\n<Clock xmlns:dt=""urn:schemas-microsoft-com:datatypes""><Description dt:dt=""string"">E-Prime Primary Realtime Clock</Description><StartTime><Timestamp dt:dt=""int"">0</Timestamp><DateUtc dt:dt=""string"">2015-08-11T14:42:37Z</DateUtc></StartTime><FrequencyChanges><FrequencyChange><Frequency dt:dt=""r8"">2825673</Frequency><Timestamp dt:dt=""r8"">933153049374</Timestamp><Current dt:dt=""r8"">0</Current><DateUtc dt:dt=""string"">2015-08-11T14:42:37Z</DateUtc></FrequencyChange></FrequencyChanges></Clock>\n"	Arrow Flanker 2014-12456-1	60.018	1.0.0.98	1	1145710684	Professional	2.0.10.353	2.0.10.353	08-11-2015	8/11/2015 2:42:37 PM	10:42:37	2.0.10.248	4	NA	NA	NA	NA	NA	NA	NA	NA	NA	NA	NA	NA	NA	NA	NA	NA	NA	NA	NA	NA	NA	NA	NA	NA	1	3	3	PracBlockProc	PracBlockList	NA	3	{LEFTARROW}	-100	NA	1016	incongruent	NA	NA	NA	0	16	350693	1016	1	{LEFTARROW}	-999999	0	352209	0	{LEFTARROW}	1348	353557	NA	2	3	15	NA	NA	PracTrialProc	PracTrialList	NA	NA	NA	NA	NA	NA	NA	NA	NA	NA	NA	NA	NA	NA	NA	NA	NA	NA	left	NA	rrlrr.bmp	354	NA	NA	NA	NA	NA	NA	NA	NA	NA	NA	NA	NA	NA	NA	NA	NA	NA	NA	NA	NA	NA
Arrow Flanker 2014	12456	1	"<?xml version=""1.0""?>\n<Clock xmlns:dt=""urn:schemas-microsoft-com:datatypes""><Description dt:dt=""string"">E-Prime Primary Realtime Clock</Description><StartTime><Timestamp dt:dt=""int"">0</Timestamp><DateUtc dt:dt=""string"">2015-08-11T14:42:37Z</DateUtc></StartTime><FrequencyChanges><FrequencyChange><Frequency dt:dt=""r8"">2825673</Frequency><Timestamp dt:dt=""r8"">933153049374</Timestamp><Current dt:dt=""r8"">0</Current><DateUtc dt:dt=""string"">2015-08-11T14:42:37Z</DateUtc></FrequencyChange></FrequencyChanges></Clock>\n"	Arrow Flanker 2014-12456-1	60.018	1.0.0.98	1	1145710684	Professional	2.0.10.353	2.0.10.353	08-11-2015	8/11/2015 2:42:37 PM	10:42:37	2.0.10.248	4	NA	NA	NA	NA	NA	NA	NA	NA	NA	NA	NA	NA	NA	NA	NA	NA	NA	NA	NA	NA	NA	NA	NA	NA	1	3	3	PracBlockProc	PracBlockList	NA	4	{LEFTARROW}	-100	NA	1537	congruent	NA	NA	NA	0	16	355091	1550	1	{LEFTARROW}	-999999	0	357141	0	{LEFTARROW}	552	357693	NA	1	3	16	NA	NA	PracTrialProc	PracTrialList	NA	NA	NA	NA	NA	NA	NA	NA	NA	NA	NA	NA	NA	NA	NA	NA	NA	NA	left	NA	lllll.bmp	354	NA	NA	NA	NA	NA	NA	NA	NA	NA	NA	NA	NA	NA	NA	NA	NA	NA	NA	NA	NA	NA
Arrow Flanker 2014	12456	1	"<?xml version=""1.0""?>\n<Clock xmlns:dt=""urn:schemas-microsoft-com:datatypes""><Description dt:dt=""string"">E-Prime Primary Realtime Clock</Description><StartTime><Timestamp dt:dt=""int"">0</Timestamp><DateUtc dt:dt=""string"">2015-08-11T14:42:37Z</DateUtc></StartTime><FrequencyChanges><FrequencyChange><Frequency dt:dt=""r8"">2825673</Frequency><Timestamp dt:dt=""r8"">933153049374</Timestamp><Current dt:dt=""r8"">0</Current><DateUtc dt:dt=""string"">2015-08-11T14:42:37Z</DateUtc></FrequencyChange></FrequencyChanges></Clock>\n"	Arrow Flanker 2014-12456-1	60.018	1.0.0.98	1	1145710684	Professional	2.0.10.353	2.0.10.353	08-11-2015	8/11/2015 2:42:37 PM	10:42:37	2.0.10.248	4	NA	NA	NA	NA	NA	NA	NA	NA	NA	NA	NA	NA	NA	NA	NA	NA	NA	NA	NA	NA	NA	NA	NA	NA	1	3	3	PracBlockProc	PracBlockList	NA	5	{RIGHTARROW}	-100	NA	620	incongruent	NA	NA	NA	0	17	359224	633	1	{RIGHTARROW}	-999999	0	360357	0	{RIGHTARROW}	1096	361453	NA	5	3	17	NA	NA	PracTrialProc	PracTrialList	NA	NA	NA	NA	NA	NA	NA	NA	NA	NA	NA	NA	NA	NA	NA	NA	NA	NA	right	NA	llrll.bmp	354	NA	NA	NA	NA	NA	NA	NA	NA	NA	NA	NA	NA	NA	NA	NA	NA	NA	NA	NA	NA	NA
Arrow Flanker 2014	12456	1	"<?xml version=""1.0""?>\n<Clock xmlns:dt=""urn:schemas-microsoft-com:datatypes""><Description dt:dt=""string"">E-Prime Primary Realtime Clock</Description><StartTime><Timestamp dt:dt=""int"">0</Timestamp><DateUtc dt:dt=""string"">2015-08-11T14:42:37Z</DateUtc></StartTime><FrequencyChanges><FrequencyChange><Frequency dt:dt=""r8"">2825673</Frequency><Timestamp dt:dt=""r8"">933153049374</Timestamp><Current dt:dt=""r8"">0</Current><DateUtc dt:dt=""string"">2015-08-11T14:42:37Z</DateUtc></FrequencyChange></FrequencyChanges></Clock>\n"	Arrow Flanker 2014-12456-1	60.018	1.0.0.98	1	1145710684	Professional	2.0.10.353	2.0.10.353	08-11-2015	8/11/2015 2:42:37 PM	10:42:37	2.0.10.248	4	NA	NA	NA	NA	NA	NA	NA	NA	NA	NA	NA	NA	NA	NA	NA	NA	NA	NA	NA	NA	NA	NA	NA	NA	1	3	3	PracBlockProc	PracBlockList	NA	6	{RIGHTARROW}	-100	NA	1223	congruent	NA	NA	NA	0	16	362989	0	1	{RIGHTARROW}	-999999	0	364722	0	{RIGHTARROW}	778	365500	NA	4	3	18	NA	NA	PracTrialProc	PracTrialList	NA	NA	NA	NA	NA	NA	NA	NA	NA	NA	NA	NA	NA	NA	NA	NA	NA	NA	right	NA	rrrrr.bmp	354	NA	NA	NA	NA	NA	NA	NA	NA	NA	NA	NA	NA	NA	NA	NA	NA	NA	NA	NA	NA	NA
Arrow Flanker 2014	12456	1	"<?xml version=""1.0""?>\n<Clock xmlns:dt=""urn:schemas-microsoft-com:datatypes""><Description dt:dt=""string"">E-Prime Primary Realtime Clock</Description><StartTime><Timestamp dt:dt=""int"">0</Timestamp><DateUtc dt:dt=""string"">2015-08-11T14:42:37Z</DateUtc></StartTime><FrequencyChanges><FrequencyChange><Frequency dt:dt=""r8"">2825673</Frequency><Timestamp dt:dt=""r8"">933153049374</Timestamp><Current dt:dt=""r8"">0</Current><DateUtc dt:dt=""string"">2015-08-11T14:42:37Z</DateUtc></FrequencyChange></FrequencyChanges></Clock>\n"	Arrow Flanker 2014-12456-1	60.018	1.0.0.98	1	1145710684	Professional	2.0.10.353	2.0.10.353	08-11-2015	8/11/2015 2:42:37 PM	10:42:37	2.0.10.248	5	1	1	1	NA	NA	NA	NA	NA	NA	NA	NA	NA	NA	NA	NA	NA	NA	NA	NA	NA	NA	NA	NA	NA	NA	NA	NA	BlockProc	BlockList	NA	1	{LEFTARROW}	NA	-100	1863	incongruent	NA	NA	NA	NA	NA	NA	NA	NA	NA	NA	NA	NA	NA	NA	NA	NA	NA	NA	NA	NA	NA	NA	TrialProc	TrialList	1	13	372969	17	0	17	370687	866	1	{LEFTARROW}	-999999	0	372053	0	{LEFTARROW}	903	372956	NA	NA	left	rrlrr.bmp	354	0	NA	0	0	0	0	NA	0	0	0	NA	0	0	0	0	NA	0	0	3	1	1
Arrow Flanker 2014	12456	1	"<?xml version=""1.0""?>\n<Clock xmlns:dt=""urn:schemas-microsoft-com:datatypes""><Description dt:dt=""string"">E-Prime Primary Realtime Clock</Description><StartTime><Timestamp dt:dt=""int"">0</Timestamp><DateUtc dt:dt=""string"">2015-08-11T14:42:37Z</DateUtc></StartTime><FrequencyChanges><FrequencyChange><Frequency dt:dt=""r8"">2825673</Frequency><Timestamp dt:dt=""r8"">933153049374</Timestamp><Current dt:dt=""r8"">0</Current><DateUtc dt:dt=""string"">2015-08-11T14:42:37Z</DateUtc></FrequencyChange></FrequencyChanges></Clock>\n"	Arrow Flanker 2014-12456-1	60.018	1.0.0.98	1	1145710684	Professional	2.0.10.353	2.0.10.353	08-11-2015	8/11/2015 2:42:37 PM	10:42:37	2.0.10.248	5	1	1	1	NA	NA	NA	NA	NA	NA	NA	NA	NA	NA	NA	NA	NA	NA	NA	NA	NA	NA	NA	NA	NA	NA	NA	NA	BlockProc	BlockList	NA	2	{LEFTARROW}	NA	-100	1765	neutral	NA	NA	NA	NA	NA	NA	NA	NA	NA	NA	NA	NA	NA	NA	NA	NA	NA	NA	NA	NA	NA	NA	TrialProc	TrialList	0	13	376385	17	0	17	373503	1432	1	{LEFTARROW}	-999999	0	375435	0	{LEFTARROW}	937	376372	NA	NA	left	ooloo.bmp	354	0	NA	0	0	0	0	NA	0	0	0	NA	0	0	0	0	NA	0	0	5	1	2
Arrow Flanker 2014	12456	1	"<?xml version=""1.0""?>\n<Clock xmlns:dt=""urn:schemas-microsoft-com:datatypes""><Description dt:dt=""string"">E-Prime Primary Realtime Clock</Description><StartTime><Timestamp dt:dt=""int"">0</Timestamp><DateUtc dt:dt=""string"">2015-08-11T14:42:37Z</DateUtc></StartTime><FrequencyChanges><FrequencyChange><Frequency dt:dt=""r8"">2825673</Frequency><Timestamp dt:dt=""r8"">933153049374</Timestamp><Current dt:dt=""r8"">0</Current><DateUtc dt:dt=""string"">2015-08-11T14:42:37Z</DateUtc></FrequencyChange></FrequencyChanges></Clock>\n"	Arrow Flanker 2014-12456-1	60.018	1.0.0.98	1	1145710684	Professional	2.0.10.353	2.0.10.353	08-11-2015	8/11/2015 2:42:37 PM	10:42:37	2.0.10.248	5	1	1	1	NA	NA	NA	NA	NA	NA	NA	NA	NA	NA	NA	NA	NA	NA	NA	NA	NA	NA	NA	NA	NA	NA	NA	NA	BlockProc	BlockList	NA	3	{RIGHTARROW}	NA	-100	746	incongruent	NA	NA	NA	NA	NA	NA	NA	NA	NA	NA	NA	NA	NA	NA	NA	NA	NA	NA	NA	NA	NA	NA	TrialProc	TrialList	0	0	379268	16	0	16	376918	450	0	{RIGHTARROW}	0	0	377868	1400	NA	0	0	NA	NA	right	llrll.bmp	354	0	NA	0	0	0	0	NA	0	0	0	NA	0	0	0	0	NA	0	0	4	1	3
Arrow Flanker 2014	12456	1	"<?xml version=""1.0""?>\n<Clock xmlns:dt=""urn:schemas-microsoft-com:datatypes""><Description dt:dt=""string"">E-Prime Primary Realtime Clock</Description><StartTime><Timestamp dt:dt=""int"">0</Timestamp><DateUtc dt:dt=""string"">2015-08-11T14:42:37Z</DateUtc></StartTime><FrequencyChanges><FrequencyChange><Frequency dt:dt=""r8"">2825673</Frequency><Timestamp dt:dt=""r8"">933153049374</Timestamp><Current dt:dt=""r8"">0</Current><DateUtc dt:dt=""string"">2015-08-11T14:42:37Z</DateUtc></FrequencyChange></FrequencyChanges></Clock>\n"	Arrow Flanker 2014-12456-1	60.018	1.0.0.98	1	1145710684	Professional	2.0.10.353	2.0.10.353	08-11-2015	8/11/2015 2:42:37 PM	10:42:37	2.0.10.248	5	1	1	1	NA	NA	NA	NA	NA	NA	NA	NA	NA	NA	NA	NA	NA	NA	NA	NA	NA	NA	NA	NA	NA	NA	NA	NA	BlockProc	BlockList	NA	4	{LEFTARROW}	NA	-100	930	congruent	NA	NA	NA	NA	NA	NA	NA	NA	NA	NA	NA	NA	NA	NA	NA	NA	NA	NA	NA	NA	NA	NA	TrialProc	TrialList	1	5	381633	17	0	17	379801	566	1	{LEFTARROW}	-999999	0	380867	0	{LEFTARROW}	760	381627	NA	NA	left	lllll.bmp	354	0	NA	0	0	0	0	NA	0	0	0	NA	0	0	0	0	NA	0	0	1	1	4
Arrow Flanker 2014	12456	1	"<?xml version=""1.0""?>\n<Clock xmlns:dt=""urn:schemas-microsoft-com:datatypes""><Description dt:dt=""string"">E-Prime Primary Realtime Clock</Description><StartTime><Timestamp dt:dt=""int"">0</Timestamp><DateUtc dt:dt=""string"">2015-08-11T14:42:37Z</DateUtc></StartTime><FrequencyChanges><FrequencyChange><Frequency dt:dt=""r8"">2825673</Frequency><Timestamp dt:dt=""r8"">933153049374</Timestamp><Current dt:dt=""r8"">0</Current><DateUtc dt:dt=""string"">2015-08-11T14:42:37Z</DateUtc></FrequencyChange></FrequencyChanges></Clock>\n"	Arrow Flanker 2014-12456-1	60.018	1.0.0.98	1	1145710684	Professional	2.0.10.353	2.0.10.353	08-11-2015	8/11/2015 2:42:37 PM	10:42:37	2.0.10.248	5	1	1	1	NA	NA	NA	NA	NA	NA	NA	NA	NA	NA	NA	NA	NA	NA	NA	NA	NA	NA	NA	NA	NA	NA	NA	NA	BlockProc	BlockList	NA	5	{RIGHTARROW}	NA	-100	1412	neutral	NA	NA	NA	NA	NA	NA	NA	NA	NA	NA	NA	NA	NA	NA	NA	NA	NA	NA	NA	NA	NA	NA	TrialProc	TrialList	0	9	383916	17	0	17	382167	550	1	{RIGHTARROW}	-999999	16	383233	0	{RIGHTARROW}	674	383907	NA	NA	right	ooroo.bmp	354	0	NA	0	0	0	0	NA	0	0	0	NA	0	0	0	0	NA	0	0	6	1	5
Arrow Flanker 2014	12456	1	"<?xml version=""1.0""?>\n<Clock xmlns:dt=""urn:schemas-microsoft-com:datatypes""><Description dt:dt=""string"">E-Prime Primary Realtime Clock</Description><StartTime><Timestamp dt:dt=""int"">0</Timestamp><DateUtc dt:dt=""string"">2015-08-11T14:42:37Z</DateUtc></StartTime><FrequencyChanges><FrequencyChange><Frequency dt:dt=""r8"">2825673</Frequency><Timestamp dt:dt=""r8"">933153049374</Timestamp><Current dt:dt=""r8"">0</Current><DateUtc dt:dt=""string"">2015-08-11T14:42:37Z</DateUtc></FrequencyChange></FrequencyChanges></Clock>\n"	Arrow Flanker 2014-12456-1	60.018	1.0.0.98	1	1145710684	Professional	2.0.10.353	2.0.10.353	08-11-2015	8/11/2015 2:42:37 PM	10:42:37	2.0.10.248	5	1	1	1	NA	NA	NA	NA	NA	NA	NA	NA	NA	NA	NA	NA	NA	NA	NA	NA	NA	NA	NA	NA	NA	NA	NA	NA	BlockProc	BlockList	NA	6	{RIGHTARROW}	NA	-100	2153	neutral	NA	NA	NA	NA	NA	NA	NA	NA	NA	NA	NA	NA	NA	NA	NA	NA	NA	NA	NA	NA	NA	NA	TrialProc	TrialList	0	12	386999	16	0	16	384449	1383	1	{RIGHTARROW}	-999999	0	386332	0	{RIGHTARROW}	655	386987	NA	NA	right	ooroo.bmp	354	0	NA	0	0	0	0	NA	0	0	0	NA	0	0	0	0	NA	0	0	6	1	6
Arrow Flanker 2014	12456	1	"<?xml version=""1.0""?>\n<Clock xmlns:dt=""urn:schemas-microsoft-com:datatypes""><Description dt:dt=""string"">E-Prime Primary Realtime Clock</Description><StartTime><Timestamp dt:dt=""int"">0</Timestamp><DateUtc dt:dt=""string"">2015-08-11T14:42:37Z</DateUtc></StartTime><FrequencyChanges><FrequencyChange><Frequency dt:dt=""r8"">2825673</Frequency><Timestamp dt:dt=""r8"">933153049374</Timestamp><Current dt:dt=""r8"">0</Current><DateUtc dt:dt=""string"">2015-08-11T14:42:37Z</DateUtc></FrequencyChange></FrequencyChanges></Clock>\n"	Arrow Flanker 2014-12456-1	60.018	1.0.0.98	1	1145710684	Professional	2.0.10.353	2.0.10.353	08-11-2015	8/11/2015 2:42:37 PM	10:42:37	2.0.10.248	5	1	1	1	NA	NA	NA	NA	NA	NA	NA	NA	NA	NA	NA	NA	NA	NA	NA	NA	NA	NA	NA	NA	NA	NA	NA	NA	BlockProc	BlockList	NA	7	{LEFTARROW}	NA	-100	2021	congruent	NA	NA	NA	NA	NA	NA	NA	NA	NA	NA	NA	NA	NA	NA	NA	NA	NA	NA	NA	NA	NA	NA	TrialProc	TrialList	0	13	389848	16	0	17	387532	1299	1	{LEFTARROW}	-999999	0	389331	0	{LEFTARROW}	504	389835	NA	NA	left	lllll.bmp	354	0	NA	0	0	0	0	NA	0	0	0	NA	0	0	0	0	NA	0	0	1	1	7
Arrow Flanker 2014	12456	1	"<?xml version=""1.0""?>\n<Clock xmlns:dt=""urn:schemas-microsoft-com:datatypes""><Description dt:dt=""string"">E-Prime Primary Realtime Clock</Description><StartTime><Timestamp dt:dt=""int"">0</Timestamp><DateUtc dt:dt=""string"">2015-08-11T14:42:37Z</DateUtc></StartTime><FrequencyChanges><FrequencyChange><Frequency dt:dt=""r8"">2825673</Frequency><Timestamp dt:dt=""r8"">933153049374</Timestamp><Current dt:dt=""r8"">0</Current><DateUtc dt:dt=""string"">2015-08-11T14:42:37Z</DateUtc></FrequencyChange></FrequencyChanges></Clock>\n"	Arrow Flanker 2014-12456-1	60.018	1.0.0.98	1	1145710684	Professional	2.0.10.353	2.0.10.353	08-11-2015	8/11/2015 2:42:37 PM	10:42:37	2.0.10.248	5	1	1	1	NA	NA	NA	NA	NA	NA	NA	NA	NA	NA	NA	NA	NA	NA	NA	NA	NA	NA	NA	NA	NA	NA	NA	NA	BlockProc	BlockList	NA	8	{RIGHTARROW}	NA	-100	926	congruent	NA	NA	NA	NA	NA	NA	NA	NA	NA	NA	NA	NA	NA	NA	NA	NA	NA	NA	NA	NA	NA	NA	TrialProc	TrialList	1	7	392130	17	0	17	390381	483	1	{RIGHTARROW}	-999999	0	391364	0	{RIGHTARROW}	759	392123	NA	NA	right	rrrrr.bmp	354	0	NA	0	0	0	0	NA	0	0	0	NA	0	0	0	0	NA	0	0	2	1	8
Arrow Flanker 2014	12456	1	"<?xml version=""1.0""?>\n<Clock xmlns:dt=""urn:schemas-microsoft-com:datatypes""><Description dt:dt=""string"">E-Prime Primary Realtime Clock</Description><StartTime><Timestamp dt:dt=""int"">0</Timestamp><DateUtc dt:dt=""string"">2015-08-11T14:42:37Z</DateUtc></StartTime><FrequencyChanges><FrequencyChange><Frequency dt:dt=""r8"">2825673</Frequency><Timestamp dt:dt=""r8"">933153049374</Timestamp><Current dt:dt=""r8"">0</Current><DateUtc dt:dt=""string"">2015-08-11T14:42:37Z</DateUtc></FrequencyChange></FrequencyChanges></Clock>\n"	Arrow Flanker 2014-12456-1	60.018	1.0.0.98	1	1145710684	Professional	2.0.10.353	2.0.10.353	08-11-2015	8/11/2015 2:42:37 PM	10:42:37	2.0.10.248	5	1	1	1	NA	NA	NA	NA	NA	NA	NA	NA	NA	NA	NA	NA	NA	NA	NA	NA	NA	NA	NA	NA	NA	NA	NA	NA	BlockProc	BlockList	NA	9	{LEFTARROW}	NA	-100	1408	incongruent	NA	NA	NA	NA	NA	NA	NA	NA	NA	NA	NA	NA	NA	NA	NA	NA	NA	NA	NA	NA	NA	NA	TrialProc	TrialList	1	5	394696	17	0	16	392663	484	1	{LEFTARROW}	-999999	0	393647	0	{LEFTARROW}	1044	394691	NA	NA	left	rrlrr.bmp	354	0	NA	0	0	0	0	NA	0	0	0	NA	0	0	0	0	NA	0	0	3	1	9
Arrow Flanker 2014	12456	1	"<?xml version=""1.0""?>\n<Clock xmlns:dt=""urn:schemas-microsoft-com:datatypes""><Description dt:dt=""string"">E-Prime Primary Realtime Clock</Description><StartTime><Timestamp dt:dt=""int"">0</Timestamp><DateUtc dt:dt=""string"">2015-08-11T14:42:37Z</DateUtc></StartTime><FrequencyChanges><FrequencyChange><Frequency dt:dt=""r8"">2825673</Frequency><Timestamp dt:dt=""r8"">933153049374</Timestamp><Current dt:dt=""r8"">0</Current><DateUtc dt:dt=""string"">2015-08-11T14:42:37Z</DateUtc></FrequencyChange></FrequencyChanges></Clock>\n"	Arrow Flanker 2014-12456-1	60.018	1.0.0.98	1	1145710684	Professional	2.0.10.353	2.0.10.353	08-11-2015	8/11/2015 2:42:37 PM	10:42:37	2.0.10.248	5	1	1	1	NA	NA	NA	NA	NA	NA	NA	NA	NA	NA	NA	NA	NA	NA	NA	NA	NA	NA	NA	NA	NA	NA	NA	NA	BlockProc	BlockList	NA	10	{LEFTARROW}	NA	-100	1119	congruent	NA	NA	NA	NA	NA	NA	NA	NA	NA	NA	NA	NA	NA	NA	NA	NA	NA	NA	NA	NA	NA	NA	TrialProc	TrialList	0	14	397129	16	0	16	395229	633	1	{LEFTARROW}	-999999	16	396379	0	{LEFTARROW}	735	397114	NA	NA	left	lllll.bmp	354	0	NA	0	0	0	0	NA	0	0	0	NA	0	0	0	0	NA	0	0	1	1	10
Arrow Flanker 2014	12456	1	"<?xml version=""1.0""?>\n<Clock xmlns:dt=""urn:schemas-microsoft-com:datatypes""><Description dt:dt=""string"">E-Prime Primary Realtime Clock</Description><StartTime><Timestamp dt:dt=""int"">0</Timestamp><DateUtc dt:dt=""string"">2015-08-11T14:42:37Z</DateUtc></StartTime><FrequencyChanges><FrequencyChange><Frequency dt:dt=""r8"">2825673</Frequency><Timestamp dt:dt=""r8"">933153049374</Timestamp><Current dt:dt=""r8"">0</Current><DateUtc dt:dt=""string"">2015-08-11T14:42:37Z</DateUtc></FrequencyChange></FrequencyChanges></Clock>\n"	Arrow Flanker 2014-12456-1	60.018	1.0.0.98	1	1145710684	Professional	2.0.10.353	2.0.10.353	08-11-2015	8/11/2015 2:42:37 PM	10:42:37	2.0.10.248	5	1	1	1	NA	NA	NA	NA	NA	NA	NA	NA	NA	NA	NA	NA	NA	NA	NA	NA	NA	NA	NA	NA	NA	NA	NA	NA	BlockProc	BlockList	NA	11	{RIGHTARROW}	NA	-100	1556	congruent	NA	NA	NA	NA	NA	NA	NA	NA	NA	NA	NA	NA	NA	NA	NA	NA	NA	NA	NA	NA	NA	NA	TrialProc	TrialList	0	18	399228	17	0	17	397662	417	1	{RIGHTARROW}	-999999	16	398595	0	{RIGHTARROW}	615	399210	NA	NA	right	rrrrr.bmp	354	0	NA	0	0	0	0	NA	0	0	0	NA	0	0	0	0	NA	0	0	2	1	11
Arrow Flanker 2014	12456	1	"<?xml version=""1.0""?>\n<Clock xmlns:dt=""urn:schemas-microsoft-com:datatypes""><Description dt:dt=""string"">E-Prime Primary Realtime Clock</Description><StartTime><Timestamp dt:dt=""int"">0</Timestamp><DateUtc dt:dt=""string"">2015-08-11T14:42:37Z</DateUtc></StartTime><FrequencyChanges><FrequencyChange><Frequency dt:dt=""r8"">2825673</Frequency><Timestamp dt:dt=""r8"">933153049374</Timestamp><Current dt:dt=""r8"">0</Current><DateUtc dt:dt=""string"">2015-08-11T14:42:37Z</DateUtc></FrequencyChange></FrequencyChanges></Clock>\n"	Arrow Flanker 2014-12456-1	60.018	1.0.0.98	1	1145710684	Professional	2.0.10.353	2.0.10.353	08-11-2015	8/11/2015 2:42:37 PM	10:42:37	2.0.10.248	5	1	1	1	NA	NA	NA	NA	NA	NA	NA	NA	NA	NA	NA	NA	NA	NA	NA	NA	NA	NA	NA	NA	NA	NA	NA	NA	BlockProc	BlockList	NA	12	{RIGHTARROW}	NA	-100	1358	neutral	NA	NA	NA	NA	NA	NA	NA	NA	NA	NA	NA	NA	NA	NA	NA	NA	NA	NA	NA	NA	NA	NA	TrialProc	TrialList	1	9	402227	17	0	16	399761	1283	1	{RIGHTARROW}	-999999	0	401544	0	{RIGHTARROW}	674	402218	NA	NA	right	ooroo.bmp	354	0	NA	0	0	0	0	NA	0	0	0	NA	0	0	0	0	NA	0	0	6	1	12
Arrow Flanker 2014	12456	1	"<?xml version=""1.0""?>\n<Clock xmlns:dt=""urn:schemas-microsoft-com:datatypes""><Description dt:dt=""string"">E-Prime Primary Realtime Clock</Description><StartTime><Timestamp dt:dt=""int"">0</Timestamp><DateUtc dt:dt=""string"">2015-08-11T14:42:37Z</DateUtc></StartTime><FrequencyChanges><FrequencyChange><Frequency dt:dt=""r8"">2825673</Frequency><Timestamp dt:dt=""r8"">933153049374</Timestamp><Current dt:dt=""r8"">0</Current><DateUtc dt:dt=""string"">2015-08-11T14:42:37Z</DateUtc></FrequencyChange></FrequencyChanges></Clock>\n"	Arrow Flanker 2014-12456-1	60.018	1.0.0.98	1	1145710684	Professional	2.0.10.353	2.0.10.353	08-11-2015	8/11/2015 2:42:37 PM	10:42:37	2.0.10.248	5	1	1	1	NA	NA	NA	NA	NA	NA	NA	NA	NA	NA	NA	NA	NA	NA	NA	NA	NA	NA	NA	NA	NA	NA	NA	NA	BlockProc	BlockList	NA	13	{LEFTARROW}	NA	-100	1174	neutral	NA	NA	NA	NA	NA	NA	NA	NA	NA	NA	NA	NA	NA	NA	NA	NA	NA	NA	NA	NA	NA	NA	TrialProc	TrialList	0	21	404527	16	0	16	402760	467	1	{LEFTARROW}	-999999	0	403727	0	{LEFTARROW}	779	404506	NA	NA	left	ooloo.bmp	354	0	NA	0	0	0	0	NA	0	0	0	NA	0	0	0	0	NA	0	0	5	1	13
Arrow Flanker 2014	12456	1	"<?xml version=""1.0""?>\n<Clock xmlns:dt=""urn:schemas-microsoft-com:datatypes""><Description dt:dt=""string"">E-Prime Primary Realtime Clock</Description><StartTime><Timestamp dt:dt=""int"">0</Timestamp><DateUtc dt:dt=""string"">2015-08-11T14:42:37Z</DateUtc></StartTime><FrequencyChanges><FrequencyChange><Frequency dt:dt=""r8"">2825673</Frequency><Timestamp dt:dt=""r8"">933153049374</Timestamp><Current dt:dt=""r8"">0</Current><DateUtc dt:dt=""string"">2015-08-11T14:42:37Z</DateUtc></FrequencyChange></FrequencyChanges></Clock>\n"	Arrow Flanker 2014-12456-1	60.018	1.0.0.98	1	1145710684	Professional	2.0.10.353	2.0.10.353	08-11-2015	8/11/2015 2:42:37 PM	10:42:37	2.0.10.248	5	1	1	1	NA	NA	NA	NA	NA	NA	NA	NA	NA	NA	NA	NA	NA	NA	NA	NA	NA	NA	NA	NA	NA	NA	NA	NA	BlockProc	BlockList	NA	14	{RIGHTARROW}	NA	-100	1895	incongruent	NA	NA	NA	NA	NA	NA	NA	NA	NA	NA	NA	NA	NA	NA	NA	NA	NA	NA	NA	NA	NA	NA	TrialProc	TrialList	1	11	407742	17	0	17	405060	866	0	{RIGHTARROW}	0	0	406426	0	{LEFTARROW}	1304	407730	NA	NA	right	llrll.bmp	354	0	NA	0	0	0	0	NA	0	0	0	NA	0	0	0	0	NA	0	0	4	1	14
Arrow Flanker 2014	12456	1	"<?xml version=""1.0""?>\n<Clock xmlns:dt=""urn:schemas-microsoft-com:datatypes""><Description dt:dt=""string"">E-Prime Primary Realtime Clock</Description><StartTime><Timestamp dt:dt=""int"">0</Timestamp><DateUtc dt:dt=""string"">2015-08-11T14:42:37Z</DateUtc></StartTime><FrequencyChanges><FrequencyChange><Frequency dt:dt=""r8"">2825673</Frequency><Timestamp dt:dt=""r8"">933153049374</Timestamp><Current dt:dt=""r8"">0</Current><DateUtc dt:dt=""string"">2015-08-11T14:42:37Z</DateUtc></FrequencyChange></FrequencyChanges></Clock>\n"	Arrow Flanker 2014-12456-1	60.018	1.0.0.98	1	1145710684	Professional	2.0.10.353	2.0.10.353	08-11-2015	8/11/2015 2:42:37 PM	10:42:37	2.0.10.248	5	1	1	1	NA	NA	NA	NA	NA	NA	NA	NA	NA	NA	NA	NA	NA	NA	NA	NA	NA	NA	NA	NA	NA	NA	NA	NA	BlockProc	BlockList	NA	15	{LEFTARROW}	NA	-100	2716	incongruent	NA	NA	NA	NA	NA	NA	NA	NA	NA	NA	NA	NA	NA	NA	NA	NA	NA	NA	NA	NA	NA	NA	TrialProc	TrialList	0	18	411075	16	0	16	408275	1600	0	{LEFTARROW}	-999999	0	410375	0	{RIGHTARROW}	682	411057	NA	NA	left	rrlrr.bmp	354	0	NA	0	0	0	0	NA	0	0	0	NA	0	0	0	0	NA	0	0	3	1	15
Arrow Flanker 2014	12456	1	"<?xml version=""1.0""?>\n<Clock xmlns:dt=""urn:schemas-microsoft-com:datatypes""><Description dt:dt=""string"">E-Prime Primary Realtime Clock</Description><StartTime><Timestamp dt:dt=""int"">0</Timestamp><DateUtc dt:dt=""string"">2015-08-11T14:42:37Z</DateUtc></StartTime><FrequencyChanges><FrequencyChange><Frequency dt:dt=""r8"">2825673</Frequency><Timestamp dt:dt=""r8"">933153049374</Timestamp><Current dt:dt=""r8"">0</Current><DateUtc dt:dt=""string"">2015-08-11T14:42:37Z</DateUtc></FrequencyChange></FrequencyChanges></Clock>\n"	Arrow Flanker 2014-12456-1	60.018	1.0.0.98	1	1145710684	Professional	2.0.10.353	2.0.10.353	08-11-2015	8/11/2015 2:42:37 PM	10:42:37	2.0.10.248	5	1	1	1	NA	NA	NA	NA	NA	NA	NA	NA	NA	NA	NA	NA	NA	NA	NA	NA	NA	NA	NA	NA	NA	NA	NA	NA	BlockProc	BlockList	NA	16	{LEFTARROW}	NA	-100	1214	neutral	NA	NA	NA	NA	NA	NA	NA	NA	NA	NA	NA	NA	NA	NA	NA	NA	NA	NA	NA	NA	NA	NA	TrialProc	TrialList	0	7	413824	16	0	17	411608	1149	1	{LEFTARROW}	-999999	0	413257	0	{LEFTARROW}	560	413817	NA	NA	left	ooloo.bmp	354	0	NA	0	0	0	0	NA	0	0	0	NA	0	0	0	0	NA	0	0	5	1	16
Arrow Flanker 2014	12456	1	"<?xml version=""1.0""?>\n<Clock xmlns:dt=""urn:schemas-microsoft-com:datatypes""><Description dt:dt=""string"">E-Prime Primary Realtime Clock</Description><StartTime><Timestamp dt:dt=""int"">0</Timestamp><DateUtc dt:dt=""string"">2015-08-11T14:42:37Z</DateUtc></StartTime><FrequencyChanges><FrequencyChange><Frequency dt:dt=""r8"">2825673</Frequency><Timestamp dt:dt=""r8"">933153049374</Timestamp><Current dt:dt=""r8"">0</Current><DateUtc dt:dt=""string"">2015-08-11T14:42:37Z</DateUtc></FrequencyChange></FrequencyChanges></Clock>\n"	Arrow Flanker 2014-12456-1	60.018	1.0.0.98	1	1145710684	Professional	2.0.10.353	2.0.10.353	08-11-2015	8/11/2015 2:42:37 PM	10:42:37	2.0.10.248	5	1	1	1	NA	NA	NA	NA	NA	NA	NA	NA	NA	NA	NA	NA	NA	NA	NA	NA	NA	NA	NA	NA	NA	NA	NA	NA	BlockProc	BlockList	NA	17	{LEFTARROW}	NA	-100	2095	neutral	NA	NA	NA	NA	NA	NA	NA	NA	NA	NA	NA	NA	NA	NA	NA	NA	NA	NA	NA	NA	NA	NA	TrialProc	TrialList	1	4	416989	17	0	17	414357	1499	1	{LEFTARROW}	-999999	0	416356	0	{LEFTARROW}	629	416985	NA	NA	left	ooloo.bmp	354	0	NA	0	0	0	0	NA	0	0	0	NA	0	0	0	0	NA	0	0	5	1	17
Arrow Flanker 2014	12456	1	"<?xml version=""1.0""?>\n<Clock xmlns:dt=""urn:schemas-microsoft-com:datatypes""><Description dt:dt=""string"">E-Prime Primary Realtime Clock</Description><StartTime><Timestamp dt:dt=""int"">0</Timestamp><DateUtc dt:dt=""string"">2015-08-11T14:42:37Z</DateUtc></StartTime><FrequencyChanges><FrequencyChange><Frequency dt:dt=""r8"">2825673</Frequency><Timestamp dt:dt=""r8"">933153049374</Timestamp><Current dt:dt=""r8"">0</Current><DateUtc dt:dt=""string"">2015-08-11T14:42:37Z</DateUtc></FrequencyChange></FrequencyChanges></Clock>\n"	Arrow Flanker 2014-12456-1	60.018	1.0.0.98	1	1145710684	Professional	2.0.10.353	2.0.10.353	08-11-2015	8/11/2015 2:42:37 PM	10:42:37	2.0.10.248	5	1	1	1	NA	NA	NA	NA	NA	NA	NA	NA	NA	NA	NA	NA	NA	NA	NA	NA	NA	NA	NA	NA	NA	NA	NA	NA	BlockProc	BlockList	NA	18	{LEFTARROW}	NA	-100	2039	congruent	NA	NA	NA	NA	NA	NA	NA	NA	NA	NA	NA	NA	NA	NA	NA	NA	NA	NA	NA	NA	NA	NA	TrialProc	TrialList	0	8	419889	16	0	17	417523	999	1	{LEFTARROW}	-999999	0	419022	0	{LEFTARROW}	859	419881	NA	NA	left	lllll.bmp	354	0	NA	0	0	0	0	NA	0	0	0	NA	0	0	0	0	NA	0	0	1	1	18
Arrow Flanker 2014	12456	1	"<?xml version=""1.0""?>\n<Clock xmlns:dt=""urn:schemas-microsoft-com:datatypes""><Description dt:dt=""string"">E-Prime Primary Realtime Clock</Description><StartTime><Timestamp dt:dt=""int"">0</Timestamp><DateUtc dt:dt=""string"">2015-08-11T14:42:37Z</DateUtc></StartTime><FrequencyChanges><FrequencyChange><Frequency dt:dt=""r8"">2825673</Frequency><Timestamp dt:dt=""r8"">933153049374</Timestamp><Current dt:dt=""r8"">0</Current><DateUtc dt:dt=""string"">2015-08-11T14:42:37Z</DateUtc></FrequencyChange></FrequencyChanges></Clock>\n"	Arrow Flanker 2014-12456-1	60.018	1.0.0.98	1	1145710684	Professional	2.0.10.353	2.0.10.353	08-11-2015	8/11/2015 2:42:37 PM	10:42:37	2.0.10.248	5	1	1	1	NA	NA	NA	NA	NA	NA	NA	NA	NA	NA	NA	NA	NA	NA	NA	NA	NA	NA	NA	NA	NA	NA	NA	NA	BlockProc	BlockList	NA	19	{RIGHTARROW}	NA	-100	1639	congruent	NA	NA	NA	NA	NA	NA	NA	NA	NA	NA	NA	NA	NA	NA	NA	NA	NA	NA	NA	NA	NA	NA	TrialProc	TrialList	1	11	422404	17	0	17	420422	700	1	{RIGHTARROW}	-999999	0	421638	0	{RIGHTARROW}	755	422393	NA	NA	right	rrrrr.bmp	354	0	NA	0	0	0	0	NA	0	0	0	NA	0	0	0	0	NA	0	0	2	1	19
Arrow Flanker 2014	12456	1	"<?xml version=""1.0""?>\n<Clock xmlns:dt=""urn:schemas-microsoft-com:datatypes""><Description dt:dt=""string"">E-Prime Primary Realtime Clock</Description><StartTime><Timestamp dt:dt=""int"">0</Timestamp><DateUtc dt:dt=""string"">2015-08-11T14:42:37Z</DateUtc></StartTime><FrequencyChanges><FrequencyChange><Frequency dt:dt=""r8"">2825673</Frequency><Timestamp dt:dt=""r8"">933153049374</Timestamp><Current dt:dt=""r8"">0</Current><DateUtc dt:dt=""string"">2015-08-11T14:42:37Z</DateUtc></FrequencyChange></FrequencyChanges></Clock>\n"	Arrow Flanker 2014-12456-1	60.018	1.0.0.98	1	1145710684	Professional	2.0.10.353	2.0.10.353	08-11-2015	8/11/2015 2:42:37 PM	10:42:37	2.0.10.248	5	1	1	1	NA	NA	NA	NA	NA	NA	NA	NA	NA	NA	NA	NA	NA	NA	NA	NA	NA	NA	NA	NA	NA	NA	NA	NA	BlockProc	BlockList	NA	20	{LEFTARROW}	NA	-100	750	incongruent	NA	NA	NA	NA	NA	NA	NA	NA	NA	NA	NA	NA	NA	NA	NA	NA	NA	NA	NA	NA	NA	NA	TrialProc	TrialList	0	6	425087	17	0	17	422938	583	1	{LEFTARROW}	-999999	0	424021	0	{LEFTARROW}	1059	425080	NA	NA	left	rrlrr.bmp	354	0	NA	0	0	0	0	NA	0	0	0	NA	0	0	0	0	NA	0	0	3	1	20
Arrow Flanker 2014	12456	1	"<?xml version=""1.0""?>\n<Clock xmlns:dt=""urn:schemas-microsoft-com:datatypes""><Description dt:dt=""string"">E-Prime Primary Realtime Clock</Description><StartTime><Timestamp dt:dt=""int"">0</Timestamp><DateUtc dt:dt=""string"">2015-08-11T14:42:37Z</DateUtc></StartTime><FrequencyChanges><FrequencyChange><Frequency dt:dt=""r8"">2825673</Frequency><Timestamp dt:dt=""r8"">933153049374</Timestamp><Current dt:dt=""r8"">0</Current><DateUtc dt:dt=""string"">2015-08-11T14:42:37Z</DateUtc></FrequencyChange></FrequencyChanges></Clock>\n"	Arrow Flanker 2014-12456-1	60.018	1.0.0.98	1	1145710684	Professional	2.0.10.353	2.0.10.353	08-11-2015	8/11/2015 2:42:37 PM	10:42:37	2.0.10.248	5	1	1	1	NA	NA	NA	NA	NA	NA	NA	NA	NA	NA	NA	NA	NA	NA	NA	NA	NA	NA	NA	NA	NA	NA	NA	NA	BlockProc	BlockList	NA	21	{LEFTARROW}	NA	-100	1979	incongruent	NA	NA	NA	NA	NA	NA	NA	NA	NA	NA	NA	NA	NA	NA	NA	NA	NA	NA	NA	NA	NA	NA	TrialProc	TrialList	0	0	428503	16	0	16	425620	983	0	{LEFTARROW}	0	0	427103	1400	NA	0	0	NA	NA	left	rrlrr.bmp	354	0	NA	0	0	0	0	NA	0	0	0	NA	0	0	0	0	NA	0	0	3	1	21
Arrow Flanker 2014	12456	1	"<?xml version=""1.0""?>\n<Clock xmlns:dt=""urn:schemas-microsoft-com:datatypes""><Description dt:dt=""string"">E-Prime Primary Realtime Clock</Description><StartTime><Timestamp dt:dt=""int"">0</Timestamp><DateUtc dt:dt=""string"">2015-08-11T14:42:37Z</DateUtc></StartTime><FrequencyChanges><FrequencyChange><Frequency dt:dt=""r8"">2825673</Frequency><Timestamp dt:dt=""r8"">933153049374</Timestamp><Current dt:dt=""r8"">0</Current><DateUtc dt:dt=""string"">2015-08-11T14:42:37Z</DateUtc></FrequencyChange></FrequencyChanges></Clock>\n"	Arrow Flanker 2014-12456-1	60.018	1.0.0.98	1	1145710684	Professional	2.0.10.353	2.0.10.353	08-11-2015	8/11/2015 2:42:37 PM	10:42:37	2.0.10.248	5	1	1	1	NA	NA	NA	NA	NA	NA	NA	NA	NA	NA	NA	NA	NA	NA	NA	NA	NA	NA	NA	NA	NA	NA	NA	NA	BlockProc	BlockList	NA	22	{LEFTARROW}	NA	-100	1322	neutral	NA	NA	NA	NA	NA	NA	NA	NA	NA	NA	NA	NA	NA	NA	NA	NA	NA	NA	NA	NA	1	NA	TrialProc	TrialList	0	13	431085	17	0	17	429036	983	1	{LEFTARROW}	-999999	0	430519	0	{LEFTARROW}	553	431072	NA	NA	left	ooloo.bmp	354	0	NA	-999999	16	431618	0	1	13401	445019	0	NA	0	0	0	0	NA	0	0	5	1	22
Arrow Flanker 2014	12456	1	"<?xml version=""1.0""?>\n<Clock xmlns:dt=""urn:schemas-microsoft-com:datatypes""><Description dt:dt=""string"">E-Prime Primary Realtime Clock</Description><StartTime><Timestamp dt:dt=""int"">0</Timestamp><DateUtc dt:dt=""string"">2015-08-11T14:42:37Z</DateUtc></StartTime><FrequencyChanges><FrequencyChange><Frequency dt:dt=""r8"">2825673</Frequency><Timestamp dt:dt=""r8"">933153049374</Timestamp><Current dt:dt=""r8"">0</Current><DateUtc dt:dt=""string"">2015-08-11T14:42:37Z</DateUtc></FrequencyChange></FrequencyChanges></Clock>\n"	Arrow Flanker 2014-12456-1	60.018	1.0.0.98	1	1145710684	Professional	2.0.10.353	2.0.10.353	08-11-2015	8/11/2015 2:42:37 PM	10:42:37	2.0.10.248	5	1	1	1	NA	NA	NA	NA	NA	NA	NA	NA	NA	NA	NA	NA	NA	NA	NA	NA	NA	NA	NA	NA	NA	NA	NA	NA	BlockProc	BlockList	NA	23	{LEFTARROW}	NA	-100	1194	neutral	NA	NA	NA	NA	NA	NA	NA	NA	NA	NA	NA	NA	NA	NA	NA	NA	NA	NA	NA	NA	NA	NA	TrialProc	TrialList	0	11	451546	16	0	7	448846	850	1	{LEFTARROW}	0	0	450196	0	{LEFTARROW}	1339	451535	NA	NA	left	ooloo.bmp	354	0	NA	0	0	0	0	NA	0	0	0	NA	0	0	0	0	NA	0	0	5	1	23
Arrow Flanker 2014	12456	1	"<?xml version=""1.0""?>\n<Clock xmlns:dt=""urn:schemas-microsoft-com:datatypes""><Description dt:dt=""string"">E-Prime Primary Realtime Clock</Description><StartTime><Timestamp dt:dt=""int"">0</Timestamp><DateUtc dt:dt=""string"">2015-08-11T14:42:37Z</DateUtc></StartTime><FrequencyChanges><FrequencyChange><Frequency dt:dt=""r8"">2825673</Frequency><Timestamp dt:dt=""r8"">933153049374</Timestamp><Current dt:dt=""r8"">0</Current><DateUtc dt:dt=""string"">2015-08-11T14:42:37Z</DateUtc></FrequencyChange></FrequencyChanges></Clock>\n"	Arrow Flanker 2014-12456-1	60.018	1.0.0.98	1	1145710684	Professional	2.0.10.353	2.0.10.353	08-11-2015	8/11/2015 2:42:37 PM	10:42:37	2.0.10.248	5	1	1	1	NA	NA	NA	NA	NA	NA	NA	NA	NA	NA	NA	NA	NA	NA	NA	NA	NA	NA	NA	NA	NA	NA	NA	NA	BlockProc	BlockList	NA	24	{RIGHTARROW}	NA	-100	2705	incongruent	NA	NA	NA	NA	NA	NA	NA	NA	NA	NA	NA	NA	NA	NA	NA	NA	NA	NA	NA	NA	NA	NA	TrialProc	TrialList	0	17	455328	17	0	17	452079	1533	0	{RIGHTARROW}	-999999	0	454112	0	{LEFTARROW}	1199	455311	NA	NA	right	llrll.bmp	354	0	NA	0	0	0	0	NA	0	0	0	NA	0	0	0	0	NA	0	0	4	1	24
Arrow Flanker 2014	12456	1	"<?xml version=""1.0""?>\n<Clock xmlns:dt=""urn:schemas-microsoft-com:datatypes""><Description dt:dt=""string"">E-Prime Primary Realtime Clock</Description><StartTime><Timestamp dt:dt=""int"">0</Timestamp><DateUtc dt:dt=""string"">2015-08-11T14:42:37Z</DateUtc></StartTime><FrequencyChanges><FrequencyChange><Frequency dt:dt=""r8"">2825673</Frequency><Timestamp dt:dt=""r8"">933153049374</Timestamp><Current dt:dt=""r8"">0</Current><DateUtc dt:dt=""string"">2015-08-11T14:42:37Z</DateUtc></FrequencyChange></FrequencyChanges></Clock>\n"	Arrow Flanker 2014-12456-1	60.018	1.0.0.98	1	1145710684	Professional	2.0.10.353	2.0.10.353	08-11-2015	8/11/2015 2:42:37 PM	10:42:37	2.0.10.248	5	1	1	1	NA	NA	NA	NA	NA	NA	NA	NA	NA	NA	NA	NA	NA	NA	NA	NA	NA	NA	NA	NA	NA	NA	NA	NA	BlockProc	BlockList	NA	25	{RIGHTARROW}	NA	-100	2373	incongruent	NA	NA	NA	NA	NA	NA	NA	NA	NA	NA	NA	NA	NA	NA	NA	NA	NA	NA	NA	NA	NA	NA	TrialProc	TrialList	0	12	458810	17	0	16	455861	1316	1	{RIGHTARROW}	-999999	0	457677	0	{RIGHTARROW}	1121	458798	NA	NA	right	llrll.bmp	354	0	NA	0	0	0	0	NA	0	0	0	NA	0	0	0	0	NA	0	0	4	1	25
Arrow Flanker 2014	12456	1	"<?xml version=""1.0""?>\n<Clock xmlns:dt=""urn:schemas-microsoft-com:datatypes""><Description dt:dt=""string"">E-Prime Primary Realtime Clock</Description><StartTime><Timestamp dt:dt=""int"">0</Timestamp><DateUtc dt:dt=""string"">2015-08-11T14:42:37Z</DateUtc></StartTime><FrequencyChanges><FrequencyChange><Frequency dt:dt=""r8"">2825673</Frequency><Timestamp dt:dt=""r8"">933153049374</Timestamp><Current dt:dt=""r8"">0</Current><DateUtc dt:dt=""string"">2015-08-11T14:42:37Z</DateUtc></FrequencyChange></FrequencyChanges></Clock>\n"	Arrow Flanker 2014-12456-1	60.018	1.0.0.98	1	1145710684	Professional	2.0.10.353	2.0.10.353	08-11-2015	8/11/2015 2:42:37 PM	10:42:37	2.0.10.248	5	1	1	1	NA	NA	NA	NA	NA	NA	NA	NA	NA	NA	NA	NA	NA	NA	NA	NA	NA	NA	NA	NA	NA	NA	NA	NA	BlockProc	BlockList	NA	26	{RIGHTARROW}	NA	-100	2391	incongruent	NA	NA	NA	NA	NA	NA	NA	NA	NA	NA	NA	NA	NA	NA	NA	NA	NA	NA	NA	NA	NA	NA	TrialProc	TrialList	0	19	462209	17	0	16	459343	0	0	{RIGHTARROW}	-999999	16	461276	0	{LEFTARROW}	914	462190	NA	NA	right	llrll.bmp	354	0	NA	0	0	0	0	NA	0	0	0	NA	0	0	0	0	NA	0	0	4	1	26
Arrow Flanker 2014	12456	1	"<?xml version=""1.0""?>\n<Clock xmlns:dt=""urn:schemas-microsoft-com:datatypes""><Description dt:dt=""string"">E-Prime Primary Realtime Clock</Description><StartTime><Timestamp dt:dt=""int"">0</Timestamp><DateUtc dt:dt=""string"">2015-08-11T14:42:37Z</DateUtc></StartTime><FrequencyChanges><FrequencyChange><Frequency dt:dt=""r8"">2825673</Frequency><Timestamp dt:dt=""r8"">933153049374</Timestamp><Current dt:dt=""r8"">0</Current><DateUtc dt:dt=""string"">2015-08-11T14:42:37Z</DateUtc></FrequencyChange></FrequencyChanges></Clock>\n"	Arrow Flanker 2014-12456-1	60.018	1.0.0.98	1	1145710684	Professional	2.0.10.353	2.0.10.353	08-11-2015	8/11/2015 2:42:37 PM	10:42:37	2.0.10.248	5	1	1	1	NA	NA	NA	NA	NA	NA	NA	NA	NA	NA	NA	NA	NA	NA	NA	NA	NA	NA	NA	NA	NA	NA	NA	NA	BlockProc	BlockList	NA	27	{RIGHTARROW}	NA	-100	2098	neutral	NA	NA	NA	NA	NA	NA	NA	NA	NA	NA	NA	NA	NA	NA	NA	NA	NA	NA	NA	NA	NA	NA	TrialProc	TrialList	0	16	465358	17	0	16	462742	0	1	{RIGHTARROW}	-999999	0	464758	0	{RIGHTARROW}	584	465342	NA	NA	right	ooroo.bmp	354	0	NA	0	0	0	0	NA	0	0	0	NA	0	0	0	0	NA	0	0	6	1	27
Arrow Flanker 2014	12456	1	"<?xml version=""1.0""?>\n<Clock xmlns:dt=""urn:schemas-microsoft-com:datatypes""><Description dt:dt=""string"">E-Prime Primary Realtime Clock</Description><StartTime><Timestamp dt:dt=""int"">0</Timestamp><DateUtc dt:dt=""string"">2015-08-11T14:42:37Z</DateUtc></StartTime><FrequencyChanges><FrequencyChange><Frequency dt:dt=""r8"">2825673</Frequency><Timestamp dt:dt=""r8"">933153049374</Timestamp><Current dt:dt=""r8"">0</Current><DateUtc dt:dt=""string"">2015-08-11T14:42:37Z</DateUtc></FrequencyChange></FrequencyChanges></Clock>\n"	Arrow Flanker 2014-12456-1	60.018	1.0.0.98	1	1145710684	Professional	2.0.10.353	2.0.10.353	08-11-2015	8/11/2015 2:42:37 PM	10:42:37	2.0.10.248	5	1	1	1	NA	NA	NA	NA	NA	NA	NA	NA	NA	NA	NA	NA	NA	NA	NA	NA	NA	NA	NA	NA	NA	NA	NA	NA	BlockProc	BlockList	NA	28	{LEFTARROW}	NA	-100	1459	neutral	NA	NA	NA	NA	NA	NA	NA	NA	NA	NA	NA	NA	NA	NA	NA	NA	NA	NA	NA	NA	NA	NA	TrialProc	TrialList	1	5	467907	17	0	16	465891	0	1	{LEFTARROW}	-999999	0	467324	0	{LEFTARROW}	578	467902	NA	NA	left	ooloo.bmp	354	0	NA	0	0	0	0	NA	0	0	0	NA	0	0	0	0	NA	0	0	5	1	28
Arrow Flanker 2014	12456	1	"<?xml version=""1.0""?>\n<Clock xmlns:dt=""urn:schemas-microsoft-com:datatypes""><Description dt:dt=""string"">E-Prime Primary Realtime Clock</Description><StartTime><Timestamp dt:dt=""int"">0</Timestamp><DateUtc dt:dt=""string"">2015-08-11T14:42:37Z</DateUtc></StartTime><FrequencyChanges><FrequencyChange><Frequency dt:dt=""r8"">2825673</Frequency><Timestamp dt:dt=""r8"">933153049374</Timestamp><Current dt:dt=""r8"">0</Current><DateUtc dt:dt=""string"">2015-08-11T14:42:37Z</DateUtc></FrequencyChange></FrequencyChanges></Clock>\n"	Arrow Flanker 2014-12456-1	60.018	1.0.0.98	1	1145710684	Professional	2.0.10.353	2.0.10.353	08-11-2015	8/11/2015 2:42:37 PM	10:42:37	2.0.10.248	5	1	1	1	NA	NA	NA	NA	NA	NA	NA	NA	NA	NA	NA	NA	NA	NA	NA	NA	NA	NA	NA	NA	NA	NA	NA	NA	BlockProc	BlockList	NA	29	{RIGHTARROW}	NA	-100	527	incongruent	NA	NA	NA	NA	NA	NA	NA	NA	NA	NA	NA	NA	NA	NA	NA	NA	NA	NA	NA	NA	NA	NA	TrialProc	TrialList	1	17	470423	17	0	17	468441	0	0	{RIGHTARROW}	-999999	0	469357	0	{LEFTARROW}	1049	470406	NA	NA	right	llrll.bmp	354	0	NA	0	0	0	0	NA	0	0	0	NA	0	0	0	0	NA	0	0	4	1	29
Arrow Flanker 2014	12456	1	"<?xml version=""1.0""?>\n<Clock xmlns:dt=""urn:schemas-microsoft-com:datatypes""><Description dt:dt=""string"">E-Prime Primary Realtime Clock</Description><StartTime><Timestamp dt:dt=""int"">0</Timestamp><DateUtc dt:dt=""string"">2015-08-11T14:42:37Z</DateUtc></StartTime><FrequencyChanges><FrequencyChange><Frequency dt:dt=""r8"">2825673</Frequency><Timestamp dt:dt=""r8"">933153049374</Timestamp><Current dt:dt=""r8"">0</Current><DateUtc dt:dt=""string"">2015-08-11T14:42:37Z</DateUtc></FrequencyChange></FrequencyChanges></Clock>\n"	Arrow Flanker 2014-12456-1	60.018	1.0.0.98	1	1145710684	Professional	2.0.10.353	2.0.10.353	08-11-2015	8/11/2015 2:42:37 PM	10:42:37	2.0.10.248	5	1	1	1	NA	NA	NA	NA	NA	NA	NA	NA	NA	NA	NA	NA	NA	NA	NA	NA	NA	NA	NA	NA	NA	NA	NA	NA	BlockProc	BlockList	NA	30	{RIGHTARROW}	NA	-100	2641	neutral	NA	NA	NA	NA	NA	NA	NA	NA	NA	NA	NA	NA	NA	NA	NA	NA	NA	NA	NA	NA	NA	NA	TrialProc	TrialList	0	13	473506	16	0	16	470956	0	1	{RIGHTARROW}	-999999	0	472973	0	{RIGHTARROW}	520	473493	NA	NA	right	ooroo.bmp	354	0	NA	0	0	0	0	NA	0	0	0	NA	0	0	0	0	NA	0	0	6	1	30
Arrow Flanker 2014	12456	1	"<?xml version=""1.0""?>\n<Clock xmlns:dt=""urn:schemas-microsoft-com:datatypes""><Description dt:dt=""string"">E-Prime Primary Realtime Clock</Description><StartTime><Timestamp dt:dt=""int"">0</Timestamp><DateUtc dt:dt=""string"">2015-08-11T14:42:37Z</DateUtc></StartTime><FrequencyChanges><FrequencyChange><Frequency dt:dt=""r8"">2825673</Frequency><Timestamp dt:dt=""r8"">933153049374</Timestamp><Current dt:dt=""r8"">0</Current><DateUtc dt:dt=""string"">2015-08-11T14:42:37Z</DateUtc></FrequencyChange></FrequencyChanges></Clock>\n"	Arrow Flanker 2014-12456-1	60.018	1.0.0.98	1	1145710684	Professional	2.0.10.353	2.0.10.353	08-11-2015	8/11/2015 2:42:37 PM	10:42:37	2.0.10.248	5	1	1	1	NA	NA	NA	NA	NA	NA	NA	NA	NA	NA	NA	NA	NA	NA	NA	NA	NA	NA	NA	NA	NA	NA	NA	NA	BlockProc	BlockList	NA	31	{RIGHTARROW}	NA	-100	1135	congruent	NA	NA	NA	NA	NA	NA	NA	NA	NA	NA	NA	NA	NA	NA	NA	NA	NA	NA	NA	NA	NA	NA	TrialProc	TrialList	1	12	476321	17	0	17	474039	0	1	{RIGHTARROW}	-999999	0	475655	0	{RIGHTARROW}	654	476309	NA	NA	right	rrrrr.bmp	354	0	NA	0	0	0	0	NA	0	0	0	NA	0	0	0	0	NA	0	0	2	1	31
Arrow Flanker 2014	12456	1	"<?xml version=""1.0""?>\n<Clock xmlns:dt=""urn:schemas-microsoft-com:datatypes""><Description dt:dt=""string"">E-Prime Primary Realtime Clock</Description><StartTime><Timestamp dt:dt=""int"">0</Timestamp><DateUtc dt:dt=""string"">2015-08-11T14:42:37Z</DateUtc></StartTime><FrequencyChanges><FrequencyChange><Frequency dt:dt=""r8"">2825673</Frequency><Timestamp dt:dt=""r8"">933153049374</Timestamp><Current dt:dt=""r8"">0</Current><DateUtc dt:dt=""string"">2015-08-11T14:42:37Z</DateUtc></FrequencyChange></FrequencyChanges></Clock>\n"	Arrow Flanker 2014-12456-1	60.018	1.0.0.98	1	1145710684	Professional	2.0.10.353	2.0.10.353	08-11-2015	8/11/2015 2:42:37 PM	10:42:37	2.0.10.248	5	1	1	1	NA	NA	NA	NA	NA	NA	NA	NA	NA	NA	NA	NA	NA	NA	NA	NA	NA	NA	NA	NA	NA	NA	NA	NA	BlockProc	BlockList	NA	32	{RIGHTARROW}	NA	-100	1347	congruent	NA	NA	NA	NA	NA	NA	NA	NA	NA	NA	NA	NA	NA	NA	NA	NA	NA	NA	NA	NA	NA	NA	TrialProc	TrialList	0	8	479221	16	0	17	476855	0	1	{RIGHTARROW}	-999999	0	478571	0	{RIGHTARROW}	642	479213	NA	NA	right	rrrrr.bmp	354	0	NA	0	0	0	0	NA	0	0	0	NA	0	0	0	0	NA	0	0	2	1	32
Arrow Flanker 2014	12456	1	"<?xml version=""1.0""?>\n<Clock xmlns:dt=""urn:schemas-microsoft-com:datatypes""><Description dt:dt=""string"">E-Prime Primary Realtime Clock</Description><StartTime><Timestamp dt:dt=""int"">0</Timestamp><DateUtc dt:dt=""string"">2015-08-11T14:42:37Z</DateUtc></StartTime><FrequencyChanges><FrequencyChange><Frequency dt:dt=""r8"">2825673</Frequency><Timestamp dt:dt=""r8"">933153049374</Timestamp><Current dt:dt=""r8"">0</Current><DateUtc dt:dt=""string"">2015-08-11T14:42:37Z</DateUtc></FrequencyChange></FrequencyChanges></Clock>\n"	Arrow Flanker 2014-12456-1	60.018	1.0.0.98	1	1145710684	Professional	2.0.10.353	2.0.10.353	08-11-2015	8/11/2015 2:42:37 PM	10:42:37	2.0.10.248	5	1	1	1	NA	NA	NA	NA	NA	NA	NA	NA	NA	NA	NA	NA	NA	NA	NA	NA	NA	NA	NA	NA	NA	NA	NA	NA	BlockProc	BlockList	NA	33	{LEFTARROW}	NA	-100	875	neutral	NA	NA	NA	NA	NA	NA	NA	NA	NA	NA	NA	NA	NA	NA	NA	NA	NA	NA	NA	NA	NA	NA	TrialProc	TrialList	0	17	481670	17	0	17	479754	0	1	{LEFTARROW}	-999999	0	480920	0	{LEFTARROW}	733	481653	NA	NA	left	ooloo.bmp	354	0	NA	0	0	0	0	NA	0	0	0	NA	0	0	0	0	NA	0	0	5	1	33
Arrow Flanker 2014	12456	1	"<?xml version=""1.0""?>\n<Clock xmlns:dt=""urn:schemas-microsoft-com:datatypes""><Description dt:dt=""string"">E-Prime Primary Realtime Clock</Description><StartTime><Timestamp dt:dt=""int"">0</Timestamp><DateUtc dt:dt=""string"">2015-08-11T14:42:37Z</DateUtc></StartTime><FrequencyChanges><FrequencyChange><Frequency dt:dt=""r8"">2825673</Frequency><Timestamp dt:dt=""r8"">933153049374</Timestamp><Current dt:dt=""r8"">0</Current><DateUtc dt:dt=""string"">2015-08-11T14:42:37Z</DateUtc></FrequencyChange></FrequencyChanges></Clock>\n"	Arrow Flanker 2014-12456-1	60.018	1.0.0.98	1	1145710684	Professional	2.0.10.353	2.0.10.353	08-11-2015	8/11/2015 2:42:37 PM	10:42:37	2.0.10.248	5	1	1	1	NA	NA	NA	NA	NA	NA	NA	NA	NA	NA	NA	NA	NA	NA	NA	NA	NA	NA	NA	NA	NA	NA	NA	NA	BlockProc	BlockList	NA	34	{RIGHTARROW}	NA	-100	1619	congruent	NA	NA	NA	NA	NA	NA	NA	NA	NA	NA	NA	NA	NA	NA	NA	NA	NA	NA	NA	NA	NA	NA	TrialProc	TrialList	1	3	484736	16	0	16	482203	0	1	{RIGHTARROW}	-999999	0	484069	0	{RIGHTARROW}	664	484733	NA	NA	right	rrrrr.bmp	354	0	NA	0	0	0	0	NA	0	0	0	NA	0	0	0	0	NA	0	0	2	1	34
Arrow Flanker 2014	12456	1	"<?xml version=""1.0""?>\n<Clock xmlns:dt=""urn:schemas-microsoft-com:datatypes""><Description dt:dt=""string"">E-Prime Primary Realtime Clock</Description><StartTime><Timestamp dt:dt=""int"">0</Timestamp><DateUtc dt:dt=""string"">2015-08-11T14:42:37Z</DateUtc></StartTime><FrequencyChanges><FrequencyChange><Frequency dt:dt=""r8"">2825673</Frequency><Timestamp dt:dt=""r8"">933153049374</Timestamp><Current dt:dt=""r8"">0</Current><DateUtc dt:dt=""string"">2015-08-11T14:42:37Z</DateUtc></FrequencyChange></FrequencyChanges></Clock>\n"	Arrow Flanker 2014-12456-1	60.018	1.0.0.98	1	1145710684	Professional	2.0.10.353	2.0.10.353	08-11-2015	8/11/2015 2:42:37 PM	10:42:37	2.0.10.248	5	1	1	1	NA	NA	NA	NA	NA	NA	NA	NA	NA	NA	NA	NA	NA	NA	NA	NA	NA	NA	NA	NA	NA	NA	NA	NA	BlockProc	BlockList	NA	35	{RIGHTARROW}	NA	-100	2078	incongruent	NA	NA	NA	NA	NA	NA	NA	NA	NA	NA	NA	NA	NA	NA	NA	NA	NA	NA	NA	NA	NA	NA	TrialProc	TrialList	0	0	488418	17	0	17	485269	0	0	{RIGHTARROW}	0	0	487018	1400	NA	0	0	NA	NA	right	llrll.bmp	354	0	NA	0	0	0	0	NA	0	0	0	NA	0	0	0	0	NA	0	0	4	1	35
Arrow Flanker 2014	12456	1	"<?xml version=""1.0""?>\n<Clock xmlns:dt=""urn:schemas-microsoft-com:datatypes""><Description dt:dt=""string"">E-Prime Primary Realtime Clock</Description><StartTime><Timestamp dt:dt=""int"">0</Timestamp><DateUtc dt:dt=""string"">2015-08-11T14:42:37Z</DateUtc></StartTime><FrequencyChanges><FrequencyChange><Frequency dt:dt=""r8"">2825673</Frequency><Timestamp dt:dt=""r8"">933153049374</Timestamp><Current dt:dt=""r8"">0</Current><DateUtc dt:dt=""string"">2015-08-11T14:42:37Z</DateUtc></FrequencyChange></FrequencyChanges></Clock>\n"	Arrow Flanker 2014-12456-1	60.018	1.0.0.98	1	1145710684	Professional	2.0.10.353	2.0.10.353	08-11-2015	8/11/2015 2:42:37 PM	10:42:37	2.0.10.248	5	1	1	1	NA	NA	NA	NA	NA	NA	NA	NA	NA	NA	NA	NA	NA	NA	NA	NA	NA	NA	NA	NA	NA	NA	NA	NA	BlockProc	BlockList	NA	36	{RIGHTARROW}	NA	-100	1745	congruent	NA	NA	NA	NA	NA	NA	NA	NA	NA	NA	NA	NA	NA	NA	NA	NA	NA	NA	NA	NA	NA	NA	TrialProc	TrialList	0	5	491617	17	0	16	488951	0	1	{RIGHTARROW}	-999999	0	490867	0	{RIGHTARROW}	745	491612	NA	NA	right	rrrrr.bmp	354	0	NA	0	0	0	0	NA	0	0	0	NA	0	0	0	0	NA	0	0	2	1	36
Arrow Flanker 2014	12456	1	"<?xml version=""1.0""?>\n<Clock xmlns:dt=""urn:schemas-microsoft-com:datatypes""><Description dt:dt=""string"">E-Prime Primary Realtime Clock</Description><StartTime><Timestamp dt:dt=""int"">0</Timestamp><DateUtc dt:dt=""string"">2015-08-11T14:42:37Z</DateUtc></StartTime><FrequencyChanges><FrequencyChange><Frequency dt:dt=""r8"">2825673</Frequency><Timestamp dt:dt=""r8"">933153049374</Timestamp><Current dt:dt=""r8"">0</Current><DateUtc dt:dt=""string"">2015-08-11T14:42:37Z</DateUtc></FrequencyChange></FrequencyChanges></Clock>\n"	Arrow Flanker 2014-12456-1	60.018	1.0.0.98	1	1145710684	Professional	2.0.10.353	2.0.10.353	08-11-2015	8/11/2015 2:42:37 PM	10:42:37	2.0.10.248	5	1	1	1	NA	NA	NA	NA	NA	NA	NA	NA	NA	NA	NA	NA	NA	NA	NA	NA	NA	NA	NA	NA	NA	NA	NA	NA	BlockProc	BlockList	NA	37	{RIGHTARROW}	NA	-100	2029	incongruent	NA	NA	NA	NA	NA	NA	NA	NA	NA	NA	NA	NA	NA	NA	NA	NA	NA	NA	NA	NA	1	NA	TrialProc	TrialList	0	15	495099	17	0	16	492150	0	0	{RIGHTARROW}	-999999	0	494183	0	{LEFTARROW}	901	495084	NA	NA	right	llrll.bmp	354	0	NA	-999999	16	495632	0	1	11079	506711	0	NA	0	0	0	0	NA	0	0	4	1	37
Arrow Flanker 2014	12456	1	"<?xml version=""1.0""?>\n<Clock xmlns:dt=""urn:schemas-microsoft-com:datatypes""><Description dt:dt=""string"">E-Prime Primary Realtime Clock</Description><StartTime><Timestamp dt:dt=""int"">0</Timestamp><DateUtc dt:dt=""string"">2015-08-11T14:42:37Z</DateUtc></StartTime><FrequencyChanges><FrequencyChange><Frequency dt:dt=""r8"">2825673</Frequency><Timestamp dt:dt=""r8"">933153049374</Timestamp><Current dt:dt=""r8"">0</Current><DateUtc dt:dt=""string"">2015-08-11T14:42:37Z</DateUtc></FrequencyChange></FrequencyChanges></Clock>\n"	Arrow Flanker 2014-12456-1	60.018	1.0.0.98	1	1145710684	Professional	2.0.10.353	2.0.10.353	08-11-2015	8/11/2015 2:42:37 PM	10:42:37	2.0.10.248	5	1	1	1	NA	NA	NA	NA	NA	NA	NA	NA	NA	NA	NA	NA	NA	NA	NA	NA	NA	NA	NA	NA	NA	NA	NA	NA	BlockProc	BlockList	NA	38	{RIGHTARROW}	NA	-100	1908	neutral	NA	NA	NA	NA	NA	NA	NA	NA	NA	NA	NA	NA	NA	NA	NA	NA	NA	NA	NA	NA	NA	NA	TrialProc	TrialList	0	13	513344	16	0	16	510411	0	1	{RIGHTARROW}	-999999	0	512444	0	{RIGHTARROW}	887	513331	NA	NA	right	ooroo.bmp	354	0	NA	0	0	0	0	NA	0	0	0	NA	0	0	0	0	NA	0	0	6	1	38
Arrow Flanker 2014	12456	1	"<?xml version=""1.0""?>\n<Clock xmlns:dt=""urn:schemas-microsoft-com:datatypes""><Description dt:dt=""string"">E-Prime Primary Realtime Clock</Description><StartTime><Timestamp dt:dt=""int"">0</Timestamp><DateUtc dt:dt=""string"">2015-08-11T14:42:37Z</DateUtc></StartTime><FrequencyChanges><FrequencyChange><Frequency dt:dt=""r8"">2825673</Frequency><Timestamp dt:dt=""r8"">933153049374</Timestamp><Current dt:dt=""r8"">0</Current><DateUtc dt:dt=""string"">2015-08-11T14:42:37Z</DateUtc></FrequencyChange></FrequencyChanges></Clock>\n"	Arrow Flanker 2014-12456-1	60.018	1.0.0.98	1	1145710684	Professional	2.0.10.353	2.0.10.353	08-11-2015	8/11/2015 2:42:37 PM	10:42:37	2.0.10.248	5	1	1	1	NA	NA	NA	NA	NA	NA	NA	NA	NA	NA	NA	NA	NA	NA	NA	NA	NA	NA	NA	NA	NA	NA	NA	NA	BlockProc	BlockList	NA	39	{LEFTARROW}	NA	-100	1175	incongruent	NA	NA	NA	NA	NA	NA	NA	NA	NA	NA	NA	NA	NA	NA	NA	NA	NA	NA	NA	NA	NA	NA	TrialProc	TrialList	0	0	516693	16	0	17	513877	0	0	{LEFTARROW}	0	0	515293	1400	NA	0	0	NA	NA	left	rrlrr.bmp	354	0	NA	0	0	0	0	NA	0	0	0	NA	0	0	0	0	NA	0	0	3	1	39
Arrow Flanker 2014	12456	1	"<?xml version=""1.0""?>\n<Clock xmlns:dt=""urn:schemas-microsoft-com:datatypes""><Description dt:dt=""string"">E-Prime Primary Realtime Clock</Description><StartTime><Timestamp dt:dt=""int"">0</Timestamp><DateUtc dt:dt=""string"">2015-08-11T14:42:37Z</DateUtc></StartTime><FrequencyChanges><FrequencyChange><Frequency dt:dt=""r8"">2825673</Frequency><Timestamp dt:dt=""r8"">933153049374</Timestamp><Current dt:dt=""r8"">0</Current><DateUtc dt:dt=""string"">2015-08-11T14:42:37Z</DateUtc></FrequencyChange></FrequencyChanges></Clock>\n"	Arrow Flanker 2014-12456-1	60.018	1.0.0.98	1	1145710684	Professional	2.0.10.353	2.0.10.353	08-11-2015	8/11/2015 2:42:37 PM	10:42:37	2.0.10.248	5	1	1	1	NA	NA	NA	NA	NA	NA	NA	NA	NA	NA	NA	NA	NA	NA	NA	NA	NA	NA	NA	NA	NA	NA	NA	NA	BlockProc	BlockList	NA	40	{LEFTARROW}	NA	-100	1096	neutral	NA	NA	NA	NA	NA	NA	NA	NA	NA	NA	NA	NA	NA	NA	NA	NA	NA	NA	NA	NA	NA	NA	TrialProc	TrialList	1	16	519458	17	0	17	517226	0	1	{LEFTARROW}	-999999	0	518609	0	{LEFTARROW}	833	519442	NA	NA	left	ooloo.bmp	354	0	NA	0	0	0	0	NA	0	0	0	NA	0	0	0	0	NA	0	0	5	1	40
Arrow Flanker 2014	12456	1	"<?xml version=""1.0""?>\n<Clock xmlns:dt=""urn:schemas-microsoft-com:datatypes""><Description dt:dt=""string"">E-Prime Primary Realtime Clock</Description><StartTime><Timestamp dt:dt=""int"">0</Timestamp><DateUtc dt:dt=""string"">2015-08-11T14:42:37Z</DateUtc></StartTime><FrequencyChanges><FrequencyChange><Frequency dt:dt=""r8"">2825673</Frequency><Timestamp dt:dt=""r8"">933153049374</Timestamp><Current dt:dt=""r8"">0</Current><DateUtc dt:dt=""string"">2015-08-11T14:42:37Z</DateUtc></FrequencyChange></FrequencyChanges></Clock>\n"	Arrow Flanker 2014-12456-1	60.018	1.0.0.98	1	1145710684	Professional	2.0.10.353	2.0.10.353	08-11-2015	8/11/2015 2:42:37 PM	10:42:37	2.0.10.248	5	1	1	1	NA	NA	NA	NA	NA	NA	NA	NA	NA	NA	NA	NA	NA	NA	NA	NA	NA	NA	NA	NA	NA	NA	NA	NA	BlockProc	BlockList	NA	41	{LEFTARROW}	NA	-100	1177	congruent	NA	NA	NA	NA	NA	NA	NA	NA	NA	NA	NA	NA	NA	NA	NA	NA	NA	NA	NA	NA	NA	NA	TrialProc	TrialList	0	9	521891	17	0	17	519992	0	1	{LEFTARROW}	-999999	0	521041	0	{LEFTARROW}	841	521882	NA	NA	left	lllll.bmp	354	0	NA	0	0	0	0	NA	0	0	0	NA	0	0	0	0	NA	0	0	1	1	41
Arrow Flanker 2014	12456	1	"<?xml version=""1.0""?>\n<Clock xmlns:dt=""urn:schemas-microsoft-com:datatypes""><Description dt:dt=""string"">E-Prime Primary Realtime Clock</Description><StartTime><Timestamp dt:dt=""int"">0</Timestamp><DateUtc dt:dt=""string"">2015-08-11T14:42:37Z</DateUtc></StartTime><FrequencyChanges><FrequencyChange><Frequency dt:dt=""r8"">2825673</Frequency><Timestamp dt:dt=""r8"">933153049374</Timestamp><Current dt:dt=""r8"">0</Current><DateUtc dt:dt=""string"">2015-08-11T14:42:37Z</DateUtc></FrequencyChange></FrequencyChanges></Clock>\n"	Arrow Flanker 2014-12456-1	60.018	1.0.0.98	1	1145710684	Professional	2.0.10.353	2.0.10.353	08-11-2015	8/11/2015 2:42:37 PM	10:42:37	2.0.10.248	5	1	1	1	NA	NA	NA	NA	NA	NA	NA	NA	NA	NA	NA	NA	NA	NA	NA	NA	NA	NA	NA	NA	NA	NA	NA	NA	BlockProc	BlockList	NA	42	{RIGHTARROW}	NA	-100	2003	incongruent	NA	NA	NA	NA	NA	NA	NA	NA	NA	NA	NA	NA	NA	NA	NA	NA	NA	NA	NA	NA	NA	NA	TrialProc	TrialList	0	13	525007	16	0	16	522424	0	1	{RIGHTARROW}	-999999	0	524224	0	{RIGHTARROW}	770	524994	NA	NA	right	llrll.bmp	354	0	NA	0	0	0	0	NA	0	0	0	NA	0	0	0	0	NA	0	0	4	1	42
Arrow Flanker 2014	12456	1	"<?xml version=""1.0""?>\n<Clock xmlns:dt=""urn:schemas-microsoft-com:datatypes""><Description dt:dt=""string"">E-Prime Primary Realtime Clock</Description><StartTime><Timestamp dt:dt=""int"">0</Timestamp><DateUtc dt:dt=""string"">2015-08-11T14:42:37Z</DateUtc></StartTime><FrequencyChanges><FrequencyChange><Frequency dt:dt=""r8"">2825673</Frequency><Timestamp dt:dt=""r8"">933153049374</Timestamp><Current dt:dt=""r8"">0</Current><DateUtc dt:dt=""string"">2015-08-11T14:42:37Z</DateUtc></FrequencyChange></FrequencyChanges></Clock>\n"	Arrow Flanker 2014-12456-1	60.018	1.0.0.98	1	1145710684	Professional	2.0.10.353	2.0.10.353	08-11-2015	8/11/2015 2:42:37 PM	10:42:37	2.0.10.248	5	1	1	1	NA	NA	NA	NA	NA	NA	NA	NA	NA	NA	NA	NA	NA	NA	NA	NA	NA	NA	NA	NA	NA	NA	NA	NA	BlockProc	BlockList	NA	43	{RIGHTARROW}	NA	-100	2249	neutral	NA	NA	NA	NA	NA	NA	NA	NA	NA	NA	NA	NA	NA	NA	NA	NA	NA	NA	NA	NA	NA	NA	TrialProc	TrialList	0	6	527856	17	0	17	525540	0	1	{RIGHTARROW}	-999999	16	527256	0	{RIGHTARROW}	594	527850	NA	NA	right	ooroo.bmp	354	0	NA	0	0	0	0	NA	0	0	0	NA	0	0	0	0	NA	0	0	6	1	43
Arrow Flanker 2014	12456	1	"<?xml version=""1.0""?>\n<Clock xmlns:dt=""urn:schemas-microsoft-com:datatypes""><Description dt:dt=""string"">E-Prime Primary Realtime Clock</Description><StartTime><Timestamp dt:dt=""int"">0</Timestamp><DateUtc dt:dt=""string"">2015-08-11T14:42:37Z</DateUtc></StartTime><FrequencyChanges><FrequencyChange><Frequency dt:dt=""r8"">2825673</Frequency><Timestamp dt:dt=""r8"">933153049374</Timestamp><Current dt:dt=""r8"">0</Current><DateUtc dt:dt=""string"">2015-08-11T14:42:37Z</DateUtc></FrequencyChange></FrequencyChanges></Clock>\n"	Arrow Flanker 2014-12456-1	60.018	1.0.0.98	1	1145710684	Professional	2.0.10.353	2.0.10.353	08-11-2015	8/11/2015 2:42:37 PM	10:42:37	2.0.10.248	5	1	1	1	NA	NA	NA	NA	NA	NA	NA	NA	NA	NA	NA	NA	NA	NA	NA	NA	NA	NA	NA	NA	NA	NA	NA	NA	BlockProc	BlockList	NA	44	{RIGHTARROW}	NA	-100	1020	neutral	NA	NA	NA	NA	NA	NA	NA	NA	NA	NA	NA	NA	NA	NA	NA	NA	NA	NA	NA	NA	NA	NA	TrialProc	TrialList	1	9	530155	17	0	16	528389	0	1	{RIGHTARROW}	-999999	0	529522	0	{RIGHTARROW}	624	530146	NA	NA	right	ooroo.bmp	354	0	NA	0	0	0	0	NA	0	0	0	NA	0	0	0	0	NA	0	0	6	1	44
Arrow Flanker 2014	12456	1	"<?xml version=""1.0""?>\n<Clock xmlns:dt=""urn:schemas-microsoft-com:datatypes""><Description dt:dt=""string"">E-Prime Primary Realtime Clock</Description><StartTime><Timestamp dt:dt=""int"">0</Timestamp><DateUtc dt:dt=""string"">2015-08-11T14:42:37Z</DateUtc></StartTime><FrequencyChanges><FrequencyChange><Frequency dt:dt=""r8"">2825673</Frequency><Timestamp dt:dt=""r8"">933153049374</Timestamp><Current dt:dt=""r8"">0</Current><DateUtc dt:dt=""string"">2015-08-11T14:42:37Z</DateUtc></FrequencyChange></FrequencyChanges></Clock>\n"	Arrow Flanker 2014-12456-1	60.018	1.0.0.98	1	1145710684	Professional	2.0.10.353	2.0.10.353	08-11-2015	8/11/2015 2:42:37 PM	10:42:37	2.0.10.248	5	1	1	1	NA	NA	NA	NA	NA	NA	NA	NA	NA	NA	NA	NA	NA	NA	NA	NA	NA	NA	NA	NA	NA	NA	NA	NA	BlockProc	BlockList	NA	45	{RIGHTARROW}	NA	-100	2231	neutral	NA	NA	NA	NA	NA	NA	NA	NA	NA	NA	NA	NA	NA	NA	NA	NA	NA	NA	NA	NA	NA	NA	TrialProc	TrialList	0	13	533071	17	0	16	530688	0	1	{RIGHTARROW}	-999999	-1	532604	0	{RIGHTARROW}	454	533058	NA	NA	right	ooroo.bmp	354	0	NA	0	0	0	0	NA	0	0	0	NA	0	0	0	0	NA	0	0	6	1	45
Arrow Flanker 2014	12456	1	"<?xml version=""1.0""?>\n<Clock xmlns:dt=""urn:schemas-microsoft-com:datatypes""><Description dt:dt=""string"">E-Prime Primary Realtime Clock</Description><StartTime><Timestamp dt:dt=""int"">0</Timestamp><DateUtc dt:dt=""string"">2015-08-11T14:42:37Z</DateUtc></StartTime><FrequencyChanges><FrequencyChange><Frequency dt:dt=""r8"">2825673</Frequency><Timestamp dt:dt=""r8"">933153049374</Timestamp><Current dt:dt=""r8"">0</Current><DateUtc dt:dt=""string"">2015-08-11T14:42:37Z</DateUtc></FrequencyChange></FrequencyChanges></Clock>\n"	Arrow Flanker 2014-12456-1	60.018	1.0.0.98	1	1145710684	Professional	2.0.10.353	2.0.10.353	08-11-2015	8/11/2015 2:42:37 PM	10:42:37	2.0.10.248	5	1	1	1	NA	NA	NA	NA	NA	NA	NA	NA	NA	NA	NA	NA	NA	NA	NA	NA	NA	NA	NA	NA	NA	NA	NA	NA	BlockProc	BlockList	NA	46	{LEFTARROW}	NA	-100	2200	congruent	NA	NA	NA	NA	NA	NA	NA	NA	NA	NA	NA	NA	NA	NA	NA	NA	NA	NA	NA	NA	NA	NA	TrialProc	TrialList	1	8	536153	17	0	16	533604	0	1	{LEFTARROW}	-999999	0	535387	0	{LEFTARROW}	758	536145	NA	NA	left	lllll.bmp	354	0	NA	0	0	0	0	NA	0	0	0	NA	0	0	0	0	NA	0	0	1	1	46
Arrow Flanker 2014	12456	1	"<?xml version=""1.0""?>\n<Clock xmlns:dt=""urn:schemas-microsoft-com:datatypes""><Description dt:dt=""string"">E-Prime Primary Realtime Clock</Description><StartTime><Timestamp dt:dt=""int"">0</Timestamp><DateUtc dt:dt=""string"">2015-08-11T14:42:37Z</DateUtc></StartTime><FrequencyChanges><FrequencyChange><Frequency dt:dt=""r8"">2825673</Frequency><Timestamp dt:dt=""r8"">933153049374</Timestamp><Current dt:dt=""r8"">0</Current><DateUtc dt:dt=""string"">2015-08-11T14:42:37Z</DateUtc></FrequencyChange></FrequencyChanges></Clock>\n"	Arrow Flanker 2014-12456-1	60.018	1.0.0.98	1	1145710684	Professional	2.0.10.353	2.0.10.353	08-11-2015	8/11/2015 2:42:37 PM	10:42:37	2.0.10.248	5	1	1	1	NA	NA	NA	NA	NA	NA	NA	NA	NA	NA	NA	NA	NA	NA	NA	NA	NA	NA	NA	NA	NA	NA	NA	NA	BlockProc	BlockList	NA	47	{RIGHTARROW}	NA	-100	1560	incongruent	NA	NA	NA	NA	NA	NA	NA	NA	NA	NA	NA	NA	NA	NA	NA	NA	NA	NA	NA	NA	NA	NA	TrialProc	TrialList	0	15	539136	17	0	17	536687	0	0	{RIGHTARROW}	-999999	16	538236	0	{LEFTARROW}	885	539121	NA	NA	right	llrll.bmp	354	0	NA	0	0	0	0	NA	0	0	0	NA	0	0	0	0	NA	0	0	4	1	47
Arrow Flanker 2014	12456	1	"<?xml version=""1.0""?>\n<Clock xmlns:dt=""urn:schemas-microsoft-com:datatypes""><Description dt:dt=""string"">E-Prime Primary Realtime Clock</Description><StartTime><Timestamp dt:dt=""int"">0</Timestamp><DateUtc dt:dt=""string"">2015-08-11T14:42:37Z</DateUtc></StartTime><FrequencyChanges><FrequencyChange><Frequency dt:dt=""r8"">2825673</Frequency><Timestamp dt:dt=""r8"">933153049374</Timestamp><Current dt:dt=""r8"">0</Current><DateUtc dt:dt=""string"">2015-08-11T14:42:37Z</DateUtc></FrequencyChange></FrequencyChanges></Clock>\n"	Arrow Flanker 2014-12456-1	60.018	1.0.0.98	1	1145710684	Professional	2.0.10.353	2.0.10.353	08-11-2015	8/11/2015 2:42:37 PM	10:42:37	2.0.10.248	5	1	1	1	NA	NA	NA	NA	NA	NA	NA	NA	NA	NA	NA	NA	NA	NA	NA	NA	NA	NA	NA	NA	NA	NA	NA	NA	BlockProc	BlockList	NA	48	{LEFTARROW}	NA	-100	1397	congruent	NA	NA	NA	NA	NA	NA	NA	NA	NA	NA	NA	NA	NA	NA	NA	NA	NA	NA	NA	NA	NA	NA	TrialProc	TrialList	1	14	541335	17	0	16	539669	0	1	{LEFTARROW}	-999999	0	540719	0	{LEFTARROW}	602	541321	NA	NA	left	lllll.bmp	354	0	NA	0	0	0	0	NA	0	0	0	NA	0	0	0	0	NA	0	0	1	1	48
Arrow Flanker 2014	12456	1	"<?xml version=""1.0""?>\n<Clock xmlns:dt=""urn:schemas-microsoft-com:datatypes""><Description dt:dt=""string"">E-Prime Primary Realtime Clock</Description><StartTime><Timestamp dt:dt=""int"">0</Timestamp><DateUtc dt:dt=""string"">2015-08-11T14:42:37Z</DateUtc></StartTime><FrequencyChanges><FrequencyChange><Frequency dt:dt=""r8"">2825673</Frequency><Timestamp dt:dt=""r8"">933153049374</Timestamp><Current dt:dt=""r8"">0</Current><DateUtc dt:dt=""string"">2015-08-11T14:42:37Z</DateUtc></FrequencyChange></FrequencyChanges></Clock>\n"	Arrow Flanker 2014-12456-1	60.018	1.0.0.98	1	1145710684	Professional	2.0.10.353	2.0.10.353	08-11-2015	8/11/2015 2:42:37 PM	10:42:37	2.0.10.248	5	1	1	1	NA	NA	NA	NA	NA	NA	NA	NA	NA	NA	NA	NA	NA	NA	NA	NA	NA	NA	NA	NA	NA	NA	NA	NA	BlockProc	BlockList	NA	49	{LEFTARROW}	NA	-100	1861	incongruent	NA	NA	NA	NA	NA	NA	NA	NA	NA	NA	NA	NA	NA	NA	NA	NA	NA	NA	NA	NA	NA	NA	TrialProc	TrialList	0	8	544201	17	0	16	541868	0	0	{LEFTARROW}	-999999	0	543335	0	{RIGHTARROW}	858	544193	NA	NA	left	rrlrr.bmp	354	0	NA	0	0	0	0	NA	0	0	0	NA	0	0	0	0	NA	0	0	3	1	49
Arrow Flanker 2014	12456	1	"<?xml version=""1.0""?>\n<Clock xmlns:dt=""urn:schemas-microsoft-com:datatypes""><Description dt:dt=""string"">E-Prime Primary Realtime Clock</Description><StartTime><Timestamp dt:dt=""int"">0</Timestamp><DateUtc dt:dt=""string"">2015-08-11T14:42:37Z</DateUtc></StartTime><FrequencyChanges><FrequencyChange><Frequency dt:dt=""r8"">2825673</Frequency><Timestamp dt:dt=""r8"">933153049374</Timestamp><Current dt:dt=""r8"">0</Current><DateUtc dt:dt=""string"">2015-08-11T14:42:37Z</DateUtc></FrequencyChange></FrequencyChanges></Clock>\n"	Arrow Flanker 2014-12456-1	60.018	1.0.0.98	1	1145710684	Professional	2.0.10.353	2.0.10.353	08-11-2015	8/11/2015 2:42:37 PM	10:42:37	2.0.10.248	5	1	1	1	NA	NA	NA	NA	NA	NA	NA	NA	NA	NA	NA	NA	NA	NA	NA	NA	NA	NA	NA	NA	NA	NA	NA	NA	BlockProc	BlockList	NA	50	{LEFTARROW}	NA	-100	1818	neutral	NA	NA	NA	NA	NA	NA	NA	NA	NA	NA	NA	NA	NA	NA	NA	NA	NA	NA	NA	NA	NA	NA	TrialProc	TrialList	0	7	546584	16	0	16	544734	0	1	{LEFTARROW}	-999999	0	545934	0	{LEFTARROW}	643	546577	NA	NA	left	ooloo.bmp	354	0	NA	0	0	0	0	NA	0	0	0	NA	0	0	0	0	NA	0	0	5	1	50
Arrow Flanker 2014	12456	1	"<?xml version=""1.0""?>\n<Clock xmlns:dt=""urn:schemas-microsoft-com:datatypes""><Description dt:dt=""string"">E-Prime Primary Realtime Clock</Description><StartTime><Timestamp dt:dt=""int"">0</Timestamp><DateUtc dt:dt=""string"">2015-08-11T14:42:37Z</DateUtc></StartTime><FrequencyChanges><FrequencyChange><Frequency dt:dt=""r8"">2825673</Frequency><Timestamp dt:dt=""r8"">933153049374</Timestamp><Current dt:dt=""r8"">0</Current><DateUtc dt:dt=""string"">2015-08-11T14:42:37Z</DateUtc></FrequencyChange></FrequencyChanges></Clock>\n"	Arrow Flanker 2014-12456-1	60.018	1.0.0.98	1	1145710684	Professional	2.0.10.353	2.0.10.353	08-11-2015	8/11/2015 2:42:37 PM	10:42:37	2.0.10.248	5	1	1	1	NA	NA	NA	NA	NA	NA	NA	NA	NA	NA	NA	NA	NA	NA	NA	NA	NA	NA	NA	NA	NA	NA	NA	NA	BlockProc	BlockList	NA	51	{RIGHTARROW}	NA	-100	2016	incongruent	NA	NA	NA	NA	NA	NA	NA	NA	NA	NA	NA	NA	NA	NA	NA	NA	NA	NA	NA	NA	NA	NA	TrialProc	TrialList	0	16	549433	16	0	17	547117	0	0	{RIGHTARROW}	-999999	0	548583	0	{LEFTARROW}	833	549416	NA	NA	right	llrll.bmp	354	0	NA	0	0	0	0	NA	0	0	0	NA	0	0	0	0	NA	0	0	4	1	51
Arrow Flanker 2014	12456	1	"<?xml version=""1.0""?>\n<Clock xmlns:dt=""urn:schemas-microsoft-com:datatypes""><Description dt:dt=""string"">E-Prime Primary Realtime Clock</Description><StartTime><Timestamp dt:dt=""int"">0</Timestamp><DateUtc dt:dt=""string"">2015-08-11T14:42:37Z</DateUtc></StartTime><FrequencyChanges><FrequencyChange><Frequency dt:dt=""r8"">2825673</Frequency><Timestamp dt:dt=""r8"">933153049374</Timestamp><Current dt:dt=""r8"">0</Current><DateUtc dt:dt=""string"">2015-08-11T14:42:37Z</DateUtc></FrequencyChange></FrequencyChanges></Clock>\n"	Arrow Flanker 2014-12456-1	60.018	1.0.0.98	1	1145710684	Professional	2.0.10.353	2.0.10.353	08-11-2015	8/11/2015 2:42:37 PM	10:42:37	2.0.10.248	5	1	1	1	NA	NA	NA	NA	NA	NA	NA	NA	NA	NA	NA	NA	NA	NA	NA	NA	NA	NA	NA	NA	NA	NA	NA	NA	BlockProc	BlockList	NA	52	{LEFTARROW}	NA	-100	2255	congruent	NA	NA	NA	NA	NA	NA	NA	NA	NA	NA	NA	NA	NA	NA	NA	NA	NA	NA	NA	NA	NA	NA	TrialProc	TrialList	0	5	552565	17	0	17	549966	0	1	{LEFTARROW}	-999999	0	551965	0	{LEFTARROW}	595	552560	NA	NA	left	lllll.bmp	354	0	NA	0	0	0	0	NA	0	0	0	NA	0	0	0	0	NA	0	0	1	1	52
Arrow Flanker 2014	12456	1	"<?xml version=""1.0""?>\n<Clock xmlns:dt=""urn:schemas-microsoft-com:datatypes""><Description dt:dt=""string"">E-Prime Primary Realtime Clock</Description><StartTime><Timestamp dt:dt=""int"">0</Timestamp><DateUtc dt:dt=""string"">2015-08-11T14:42:37Z</DateUtc></StartTime><FrequencyChanges><FrequencyChange><Frequency dt:dt=""r8"">2825673</Frequency><Timestamp dt:dt=""r8"">933153049374</Timestamp><Current dt:dt=""r8"">0</Current><DateUtc dt:dt=""string"">2015-08-11T14:42:37Z</DateUtc></FrequencyChange></FrequencyChanges></Clock>\n"	Arrow Flanker 2014-12456-1	60.018	1.0.0.98	1	1145710684	Professional	2.0.10.353	2.0.10.353	08-11-2015	8/11/2015 2:42:37 PM	10:42:37	2.0.10.248	5	1	1	1	NA	NA	NA	NA	NA	NA	NA	NA	NA	NA	NA	NA	NA	NA	NA	NA	NA	NA	NA	NA	NA	NA	NA	NA	BlockProc	BlockList	NA	53	{RIGHTARROW}	NA	-100	2391	congruent	NA	NA	NA	NA	NA	NA	NA	NA	NA	NA	NA	NA	NA	NA	NA	NA	NA	NA	NA	NA	NA	NA	TrialProc	TrialList	1	8	555664	17	0	16	553098	0	1	{RIGHTARROW}	-999999	0	554998	0	{RIGHTARROW}	658	555656	NA	NA	right	rrrrr.bmp	354	0	NA	0	0	0	0	NA	0	0	0	NA	0	0	0	0	NA	0	0	2	1	53
Arrow Flanker 2014	12456	1	"<?xml version=""1.0""?>\n<Clock xmlns:dt=""urn:schemas-microsoft-com:datatypes""><Description dt:dt=""string"">E-Prime Primary Realtime Clock</Description><StartTime><Timestamp dt:dt=""int"">0</Timestamp><DateUtc dt:dt=""string"">2015-08-11T14:42:37Z</DateUtc></StartTime><FrequencyChanges><FrequencyChange><Frequency dt:dt=""r8"">2825673</Frequency><Timestamp dt:dt=""r8"">933153049374</Timestamp><Current dt:dt=""r8"">0</Current><DateUtc dt:dt=""string"">2015-08-11T14:42:37Z</DateUtc></FrequencyChange></FrequencyChanges></Clock>\n"	Arrow Flanker 2014-12456-1	60.018	1.0.0.98	1	1145710684	Professional	2.0.10.353	2.0.10.353	08-11-2015	8/11/2015 2:42:37 PM	10:42:37	2.0.10.248	5	1	1	1	NA	NA	NA	NA	NA	NA	NA	NA	NA	NA	NA	NA	NA	NA	NA	NA	NA	NA	NA	NA	NA	NA	NA	NA	BlockProc	BlockList	NA	54	{RIGHTARROW}	NA	-100	2210	neutral	NA	NA	NA	NA	NA	NA	NA	NA	NA	NA	NA	NA	NA	NA	NA	NA	NA	NA	NA	NA	2	1	TrialProc	TrialList	0	8	558680	17	0	16	556197	1317	1	{RIGHTARROW}	-999999	-1	558013	0	{RIGHTARROW}	659	558672	NA	NA	right	ooroo.bmp	354	0	NA	-999999	16	559213	0	1	4855	564068	0	NA	-999999	10	564078	0	1	10845	574923	6	1	54
Arrow Flanker 2014	12456	1	"<?xml version=""1.0""?>\n<Clock xmlns:dt=""urn:schemas-microsoft-com:datatypes""><Description dt:dt=""string"">E-Prime Primary Realtime Clock</Description><StartTime><Timestamp dt:dt=""int"">0</Timestamp><DateUtc dt:dt=""string"">2015-08-11T14:42:37Z</DateUtc></StartTime><FrequencyChanges><FrequencyChange><Frequency dt:dt=""r8"">2825673</Frequency><Timestamp dt:dt=""r8"">933153049374</Timestamp><Current dt:dt=""r8"">0</Current><DateUtc dt:dt=""string"">2015-08-11T14:42:37Z</DateUtc></FrequencyChange></FrequencyChanges></Clock>\n"	Arrow Flanker 2014-12456-1	60.018	1.0.0.98	1	1145710684	Professional	2.0.10.353	2.0.10.353	08-11-2015	8/11/2015 2:42:37 PM	10:42:37	2.0.10.248	5	1	1	1	NA	NA	NA	NA	NA	NA	NA	NA	NA	NA	NA	NA	NA	NA	NA	NA	NA	NA	NA	NA	NA	NA	NA	NA	BlockProc	BlockList	NA	55	{RIGHTARROW}	NA	-100	924	incongruent	NA	NA	NA	NA	NA	NA	NA	NA	NA	NA	NA	NA	NA	NA	NA	NA	NA	NA	NA	NA	NA	NA	TrialProc	TrialList	0	0	580057	16	0	13	577724	0	0	{RIGHTARROW}	0	0	578657	1400	NA	0	0	NA	NA	right	llrll.bmp	354	0	NA	0	0	0	0	NA	0	0	0	NA	0	0	0	0	NA	0	0	4	1	55
Arrow Flanker 2014	12456	1	"<?xml version=""1.0""?>\n<Clock xmlns:dt=""urn:schemas-microsoft-com:datatypes""><Description dt:dt=""string"">E-Prime Primary Realtime Clock</Description><StartTime><Timestamp dt:dt=""int"">0</Timestamp><DateUtc dt:dt=""string"">2015-08-11T14:42:37Z</DateUtc></StartTime><FrequencyChanges><FrequencyChange><Frequency dt:dt=""r8"">2825673</Frequency><Timestamp dt:dt=""r8"">933153049374</Timestamp><Current dt:dt=""r8"">0</Current><DateUtc dt:dt=""string"">2015-08-11T14:42:37Z</DateUtc></FrequencyChange></FrequencyChanges></Clock>\n"	Arrow Flanker 2014-12456-1	60.018	1.0.0.98	1	1145710684	Professional	2.0.10.353	2.0.10.353	08-11-2015	8/11/2015 2:42:37 PM	10:42:37	2.0.10.248	5	1	1	1	NA	NA	NA	NA	NA	NA	NA	NA	NA	NA	NA	NA	NA	NA	NA	NA	NA	NA	NA	NA	NA	NA	NA	NA	BlockProc	BlockList	NA	56	{RIGHTARROW}	NA	-100	1544	congruent	NA	NA	NA	NA	NA	NA	NA	NA	NA	NA	NA	NA	NA	NA	NA	NA	NA	NA	NA	NA	NA	NA	TrialProc	TrialList	0	6	582356	17	0	17	580590	0	1	{RIGHTARROW}	-999999	0	581573	0	{RIGHTARROW}	777	582350	NA	NA	right	rrrrr.bmp	354	0	NA	0	0	0	0	NA	0	0	0	NA	0	0	0	0	NA	0	0	2	1	56
Arrow Flanker 2014	12456	1	"<?xml version=""1.0""?>\n<Clock xmlns:dt=""urn:schemas-microsoft-com:datatypes""><Description dt:dt=""string"">E-Prime Primary Realtime Clock</Description><StartTime><Timestamp dt:dt=""int"">0</Timestamp><DateUtc dt:dt=""string"">2015-08-11T14:42:37Z</DateUtc></StartTime><FrequencyChanges><FrequencyChange><Frequency dt:dt=""r8"">2825673</Frequency><Timestamp dt:dt=""r8"">933153049374</Timestamp><Current dt:dt=""r8"">0</Current><DateUtc dt:dt=""string"">2015-08-11T14:42:37Z</DateUtc></FrequencyChange></FrequencyChanges></Clock>\n"	Arrow Flanker 2014-12456-1	60.018	1.0.0.98	1	1145710684	Professional	2.0.10.353	2.0.10.353	08-11-2015	8/11/2015 2:42:37 PM	10:42:37	2.0.10.248	5	1	1	1	NA	NA	NA	NA	NA	NA	NA	NA	NA	NA	NA	NA	NA	NA	NA	NA	NA	NA	NA	NA	NA	NA	NA	NA	BlockProc	BlockList	NA	57	{RIGHTARROW}	NA	-100	1059	congruent	NA	NA	NA	NA	NA	NA	NA	NA	NA	NA	NA	NA	NA	NA	NA	NA	NA	NA	NA	NA	NA	NA	TrialProc	TrialList	0	12	584922	17	0	16	582889	0	1	{RIGHTARROW}	-999999	0	584256	0	{RIGHTARROW}	654	584910	NA	NA	right	rrrrr.bmp	354	0	NA	0	0	0	0	NA	0	0	0	NA	0	0	0	0	NA	0	0	2	1	57
Arrow Flanker 2014	12456	1	"<?xml version=""1.0""?>\n<Clock xmlns:dt=""urn:schemas-microsoft-com:datatypes""><Description dt:dt=""string"">E-Prime Primary Realtime Clock</Description><StartTime><Timestamp dt:dt=""int"">0</Timestamp><DateUtc dt:dt=""string"">2015-08-11T14:42:37Z</DateUtc></StartTime><FrequencyChanges><FrequencyChange><Frequency dt:dt=""r8"">2825673</Frequency><Timestamp dt:dt=""r8"">933153049374</Timestamp><Current dt:dt=""r8"">0</Current><DateUtc dt:dt=""string"">2015-08-11T14:42:37Z</DateUtc></FrequencyChange></FrequencyChanges></Clock>\n"	Arrow Flanker 2014-12456-1	60.018	1.0.0.98	1	1145710684	Professional	2.0.10.353	2.0.10.353	08-11-2015	8/11/2015 2:42:37 PM	10:42:37	2.0.10.248	5	1	1	1	NA	NA	NA	NA	NA	NA	NA	NA	NA	NA	NA	NA	NA	NA	NA	NA	NA	NA	NA	NA	NA	NA	NA	NA	BlockProc	BlockList	NA	58	{LEFTARROW}	NA	-100	1981	congruent	NA	NA	NA	NA	NA	NA	NA	NA	NA	NA	NA	NA	NA	NA	NA	NA	NA	NA	NA	NA	NA	NA	TrialProc	TrialList	0	12	588138	16	0	16	585455	0	1	{LEFTARROW}	-999999	0	587455	0	{LEFTARROW}	671	588126	NA	NA	left	lllll.bmp	354	0	NA	0	0	0	0	NA	0	0	0	NA	0	0	0	0	NA	0	0	1	1	58
Arrow Flanker 2014	12456	1	"<?xml version=""1.0""?>\n<Clock xmlns:dt=""urn:schemas-microsoft-com:datatypes""><Description dt:dt=""string"">E-Prime Primary Realtime Clock</Description><StartTime><Timestamp dt:dt=""int"">0</Timestamp><DateUtc dt:dt=""string"">2015-08-11T14:42:37Z</DateUtc></StartTime><FrequencyChanges><FrequencyChange><Frequency dt:dt=""r8"">2825673</Frequency><Timestamp dt:dt=""r8"">933153049374</Timestamp><Current dt:dt=""r8"">0</Current><DateUtc dt:dt=""string"">2015-08-11T14:42:37Z</DateUtc></FrequencyChange></FrequencyChanges></Clock>\n"	Arrow Flanker 2014-12456-1	60.018	1.0.0.98	1	1145710684	Professional	2.0.10.353	2.0.10.353	08-11-2015	8/11/2015 2:42:37 PM	10:42:37	2.0.10.248	5	1	1	1	NA	NA	NA	NA	NA	NA	NA	NA	NA	NA	NA	NA	NA	NA	NA	NA	NA	NA	NA	NA	NA	NA	NA	NA	BlockProc	BlockList	NA	59	{RIGHTARROW}	NA	-100	1420	congruent	NA	NA	NA	NA	NA	NA	NA	NA	NA	NA	NA	NA	NA	NA	NA	NA	NA	NA	NA	NA	NA	NA	TrialProc	TrialList	0	13	590787	17	0	17	588671	0	1	{RIGHTARROW}	-999999	0	589937	0	{RIGHTARROW}	837	590774	NA	NA	right	rrrrr.bmp	354	0	NA	0	0	0	0	NA	0	0	0	NA	0	0	0	0	NA	0	0	2	1	59
Arrow Flanker 2014	12456	1	"<?xml version=""1.0""?>\n<Clock xmlns:dt=""urn:schemas-microsoft-com:datatypes""><Description dt:dt=""string"">E-Prime Primary Realtime Clock</Description><StartTime><Timestamp dt:dt=""int"">0</Timestamp><DateUtc dt:dt=""string"">2015-08-11T14:42:37Z</DateUtc></StartTime><FrequencyChanges><FrequencyChange><Frequency dt:dt=""r8"">2825673</Frequency><Timestamp dt:dt=""r8"">933153049374</Timestamp><Current dt:dt=""r8"">0</Current><DateUtc dt:dt=""string"">2015-08-11T14:42:37Z</DateUtc></FrequencyChange></FrequencyChanges></Clock>\n"	Arrow Flanker 2014-12456-1	60.018	1.0.0.98	1	1145710684	Professional	2.0.10.353	2.0.10.353	08-11-2015	8/11/2015 2:42:37 PM	10:42:37	2.0.10.248	5	1	1	1	NA	NA	NA	NA	NA	NA	NA	NA	NA	NA	NA	NA	NA	NA	NA	NA	NA	NA	NA	NA	NA	NA	NA	NA	BlockProc	BlockList	NA	60	{LEFTARROW}	NA	-100	1898	neutral	NA	NA	NA	NA	NA	NA	NA	NA	NA	NA	NA	NA	NA	NA	NA	NA	NA	NA	NA	NA	NA	NA	TrialProc	TrialList	0	17	593303	16	0	16	591320	0	1	{LEFTARROW}	-999999	0	592603	0	{LEFTARROW}	683	593286	NA	NA	left	ooloo.bmp	354	0	NA	0	0	0	0	NA	0	0	0	NA	0	0	0	0	NA	0	0	5	1	60
Arrow Flanker 2014	12456	1	"<?xml version=""1.0""?>\n<Clock xmlns:dt=""urn:schemas-microsoft-com:datatypes""><Description dt:dt=""string"">E-Prime Primary Realtime Clock</Description><StartTime><Timestamp dt:dt=""int"">0</Timestamp><DateUtc dt:dt=""string"">2015-08-11T14:42:37Z</DateUtc></StartTime><FrequencyChanges><FrequencyChange><Frequency dt:dt=""r8"">2825673</Frequency><Timestamp dt:dt=""r8"">933153049374</Timestamp><Current dt:dt=""r8"">0</Current><DateUtc dt:dt=""string"">2015-08-11T14:42:37Z</DateUtc></FrequencyChange></FrequencyChanges></Clock>\n"	Arrow Flanker 2014-12456-1	60.018	1.0.0.98	1	1145710684	Professional	2.0.10.353	2.0.10.353	08-11-2015	8/11/2015 2:42:37 PM	10:42:37	2.0.10.248	5	1	1	1	NA	NA	NA	NA	NA	NA	NA	NA	NA	NA	NA	NA	NA	NA	NA	NA	NA	NA	NA	NA	NA	NA	NA	NA	BlockProc	BlockList	NA	61	{RIGHTARROW}	NA	-100	1708	incongruent	NA	NA	NA	NA	NA	NA	NA	NA	NA	NA	NA	NA	NA	NA	NA	NA	NA	NA	NA	NA	NA	NA	TrialProc	TrialList	0	9	596302	17	0	17	593836	0	1	{RIGHTARROW}	-999999	0	595186	0	{RIGHTARROW}	1107	596293	NA	NA	right	llrll.bmp	354	0	NA	0	0	0	0	NA	0	0	0	NA	0	0	0	0	NA	0	0	4	1	61
