ExperimentName	Subject	Session	Clock.Information	DataFile.Basename	Display.RefreshRate	ExperimentVersion	Group	RandomSeed	RuntimeCapabilities	RuntimeVersion	RuntimeVersionExpected	SessionDate	SessionStartDateTimeUtc	SessionTime	StudioVersion	Block	BlockList	BlockList.Cycle	BlockList.Sample	Both	CompletelyMW	CongMeanRT	CongTotal	Fragmented	GoodByeList	GoodByeList.Cycle	GoodByeList.Sample	IncongMeanRT	IncongTotal	MapBlockList	MapBlockList.Cycle	MapBlockList.Sample	Mindwandering	MostlyMW	MostlyOT	NeutralMeanRT	NeutralTotal	NumberProbes1	NumberProbes2	OnTask	PracBlockList	PracBlockList.Cycle	PracBlockList.Sample	Procedure[Block]	Running[Block]	Sequential	Trial	CorrectAnswer	CuePositionY	CuePositionY2	DurationOfFixation	FlankerType	MapTrialList	MapTrialList.Cycle	MapTrialList.Sample	PracSlideFixationStart.DurationError	PracSlideFixationStart.OnsetDelay	PracSlideFixationStart.OnsetTime	PracSlideFixationStart.OnsetToOnsetTime	PracSlideTarget.ACC	PracSlideTarget.CRESP	PracSlideTarget.DurationError	PracSlideTarget.OnsetDelay	PracSlideTarget.OnsetTime	PracSlideTarget.OnsetToOnsetTime	PracSlideTarget.RESP	PracSlideTarget.RT	PracSlideTarget.RTTime	PracSlideTarget.Tag	PracTrialList	PracTrialList.Cycle	PracTrialList.Sample	Probe1Resp	Probe2Resp	Procedure[Trial]	Running[Trial]	SlideFixationEnd.DurationError	SlideFixationEnd.OnsetDelay	SlideFixationEnd.OnsetTime	SlideFixationEnd.OnsetToOnsetTime	SlideFixationStart.DurationError	SlideFixationStart.OnsetDelay	SlideFixationStart.OnsetTime	SlideFixationStart.OnsetToOnsetTime	SlideTarget.ACC	SlideTarget.CRESP	SlideTarget.DurationError	SlideTarget.OnsetDelay	SlideTarget.OnsetTime	SlideTarget.OnsetToOnsetTime	SlideTarget.RESP	SlideTarget.RT	SlideTarget.RTTime	SlideTarget.Tag	TargerDirection	TargetDirection	TargetImage	TargetPosition	ThoughtProbe1.ACC	ThoughtProbe1.CRESP	ThoughtProbe1.DurationError	ThoughtProbe1.OnsetDelay	ThoughtProbe1.OnsetTime	ThoughtProbe1.OnsetToOnsetTime	ThoughtProbe1.RESP	ThoughtProbe1.RT	ThoughtProbe1.RTTime	ThoughtProbe2.ACC	ThoughtProbe2.CRESP	ThoughtProbe2.DurationError	ThoughtProbe2.OnsetDelay	ThoughtProbe2.OnsetTime	ThoughtProbe2.OnsetToOnsetTime	ThoughtProbe2.RESP	ThoughtProbe2.RT	ThoughtProbe2.RTTime	TrialList	TrialList.Cycle	TrialList.Sample
Arrow Flanker 2014	12474	1	"<?xml version=""1.0""?>\n<Clock xmlns:dt=""urn:schemas-microsoft-com:datatypes""><Description dt:dt=""string"">E-Prime Primary Realtime Clock</Description><StartTime><Timestamp dt:dt=""int"">0</Timestamp><DateUtc dt:dt=""string"">2015-09-22T19:32:36Z</DateUtc></StartTime><FrequencyChanges><FrequencyChange><Frequency dt:dt=""r8"">2825566</Frequency><Timestamp dt:dt=""r8"">27569679983842</Timestamp><Current dt:dt=""r8"">0</Current><DateUtc dt:dt=""string"">2015-09-22T19:32:36Z</DateUtc></FrequencyChange></FrequencyChanges></Clock>\n"	Arrow Flanker 2014-12474-1	60.016	1.0.0.100	1	285445587	Professional	2.0.10.353	2.0.10.353	09-22-2015	9/22/2015 7:32:36 PM	15:32:36	2.0.10.248	1	NA	NA	NA	NA	NA	NA	NA	NA	NA	NA	NA	NA	NA	1	1	1	NA	NA	NA	NA	NA	NA	NA	NA	NA	NA	NA	MapBlockProc	MapBlockList	NA	1	{RIGHTARROW}	-100	NA	1470	NA	2	1	1	0	21	261721	1483	1	{RIGHTARROW}	-999999	0	263704	0	{RIGHTARROW}	956	264660	NA	NA	NA	NA	NA	NA	MapTrialProc	MapTrialList	NA	NA	NA	NA	NA	NA	NA	NA	NA	NA	NA	NA	NA	NA	NA	NA	NA	NA	right	NA	R.bmp	354	NA	NA	NA	NA	NA	NA	NA	NA	NA	NA	NA	NA	NA	NA	NA	NA	NA	NA	NA	NA	NA
Arrow Flanker 2014	12474	1	"<?xml version=""1.0""?>\n<Clock xmlns:dt=""urn:schemas-microsoft-com:datatypes""><Description dt:dt=""string"">E-Prime Primary Realtime Clock</Description><StartTime><Timestamp dt:dt=""int"">0</Timestamp><DateUtc dt:dt=""string"">2015-09-22T19:32:36Z</DateUtc></StartTime><FrequencyChanges><FrequencyChange><Frequency dt:dt=""r8"">2825566</Frequency><Timestamp dt:dt=""r8"">27569679983842</Timestamp><Current dt:dt=""r8"">0</Current><DateUtc dt:dt=""string"">2015-09-22T19:32:36Z</DateUtc></FrequencyChange></FrequencyChanges></Clock>\n"	Arrow Flanker 2014-12474-1	60.016	1.0.0.100	1	285445587	Professional	2.0.10.353	2.0.10.353	09-22-2015	9/22/2015 7:32:36 PM	15:32:36	2.0.10.248	1	NA	NA	NA	NA	NA	NA	NA	NA	NA	NA	NA	NA	NA	1	1	1	NA	NA	NA	NA	NA	NA	NA	NA	NA	NA	NA	MapBlockProc	MapBlockList	NA	2	{LEFTARROW}	-100	NA	548	NA	1	1	2	0	16	266203	550	1	{LEFTARROW}	-999999	0	267253	0	{LEFTARROW}	382	267635	NA	NA	NA	NA	NA	NA	MapTrialProc	MapTrialList	NA	NA	NA	NA	NA	NA	NA	NA	NA	NA	NA	NA	NA	NA	NA	NA	NA	NA	left	NA	L.bmp	354	NA	NA	NA	NA	NA	NA	NA	NA	NA	NA	NA	NA	NA	NA	NA	NA	NA	NA	NA	NA	NA
Arrow Flanker 2014	12474	1	"<?xml version=""1.0""?>\n<Clock xmlns:dt=""urn:schemas-microsoft-com:datatypes""><Description dt:dt=""string"">E-Prime Primary Realtime Clock</Description><StartTime><Timestamp dt:dt=""int"">0</Timestamp><DateUtc dt:dt=""string"">2015-09-22T19:32:36Z</DateUtc></StartTime><FrequencyChanges><FrequencyChange><Frequency dt:dt=""r8"">2825566</Frequency><Timestamp dt:dt=""r8"">27569679983842</Timestamp><Current dt:dt=""r8"">0</Current><DateUtc dt:dt=""string"">2015-09-22T19:32:36Z</DateUtc></FrequencyChange></FrequencyChanges></Clock>\n"	Arrow Flanker 2014-12474-1	60.016	1.0.0.100	1	285445587	Professional	2.0.10.353	2.0.10.353	09-22-2015	9/22/2015 7:32:36 PM	15:32:36	2.0.10.248	1	NA	NA	NA	NA	NA	NA	NA	NA	NA	NA	NA	NA	NA	1	1	1	NA	NA	NA	NA	NA	NA	NA	NA	NA	NA	NA	MapBlockProc	MapBlockList	NA	3	{RIGHTARROW}	-100	NA	1582	NA	2	1	3	0	16	269169	1583	1	{RIGHTARROW}	-999999	0	271252	0	{RIGHTARROW}	383	271635	NA	NA	NA	NA	NA	NA	MapTrialProc	MapTrialList	NA	NA	NA	NA	NA	NA	NA	NA	NA	NA	NA	NA	NA	NA	NA	NA	NA	NA	right	NA	R.bmp	354	NA	NA	NA	NA	NA	NA	NA	NA	NA	NA	NA	NA	NA	NA	NA	NA	NA	NA	NA	NA	NA
Arrow Flanker 2014	12474	1	"<?xml version=""1.0""?>\n<Clock xmlns:dt=""urn:schemas-microsoft-com:datatypes""><Description dt:dt=""string"">E-Prime Primary Realtime Clock</Description><StartTime><Timestamp dt:dt=""int"">0</Timestamp><DateUtc dt:dt=""string"">2015-09-22T19:32:36Z</DateUtc></StartTime><FrequencyChanges><FrequencyChange><Frequency dt:dt=""r8"">2825566</Frequency><Timestamp dt:dt=""r8"">27569679983842</Timestamp><Current dt:dt=""r8"">0</Current><DateUtc dt:dt=""string"">2015-09-22T19:32:36Z</DateUtc></FrequencyChange></FrequencyChanges></Clock>\n"	Arrow Flanker 2014-12474-1	60.016	1.0.0.100	1	285445587	Professional	2.0.10.353	2.0.10.353	09-22-2015	9/22/2015 7:32:36 PM	15:32:36	2.0.10.248	1	NA	NA	NA	NA	NA	NA	NA	NA	NA	NA	NA	NA	NA	1	1	1	NA	NA	NA	NA	NA	NA	NA	NA	NA	NA	NA	MapBlockProc	MapBlockList	NA	4	{RIGHTARROW}	-100	NA	1393	NA	2	1	4	0	16	273168	1399	1	{RIGHTARROW}	-999999	0	275067	0	{RIGHTARROW}	824	275891	NA	NA	NA	NA	NA	NA	MapTrialProc	MapTrialList	NA	NA	NA	NA	NA	NA	NA	NA	NA	NA	NA	NA	NA	NA	NA	NA	NA	NA	right	NA	R.bmp	354	NA	NA	NA	NA	NA	NA	NA	NA	NA	NA	NA	NA	NA	NA	NA	NA	NA	NA	NA	NA	NA
Arrow Flanker 2014	12474	1	"<?xml version=""1.0""?>\n<Clock xmlns:dt=""urn:schemas-microsoft-com:datatypes""><Description dt:dt=""string"">E-Prime Primary Realtime Clock</Description><StartTime><Timestamp dt:dt=""int"">0</Timestamp><DateUtc dt:dt=""string"">2015-09-22T19:32:36Z</DateUtc></StartTime><FrequencyChanges><FrequencyChange><Frequency dt:dt=""r8"">2825566</Frequency><Timestamp dt:dt=""r8"">27569679983842</Timestamp><Current dt:dt=""r8"">0</Current><DateUtc dt:dt=""string"">2015-09-22T19:32:36Z</DateUtc></FrequencyChange></FrequencyChanges></Clock>\n"	Arrow Flanker 2014-12474-1	60.016	1.0.0.100	1	285445587	Professional	2.0.10.353	2.0.10.353	09-22-2015	9/22/2015 7:32:36 PM	15:32:36	2.0.10.248	1	NA	NA	NA	NA	NA	NA	NA	NA	NA	NA	NA	NA	NA	1	1	1	NA	NA	NA	NA	NA	NA	NA	NA	NA	NA	NA	MapBlockProc	MapBlockList	NA	5	{LEFTARROW}	-100	NA	725	NA	1	1	5	0	16	277433	733	1	{LEFTARROW}	-999999	0	278666	0	{LEFTARROW}	409	279075	NA	NA	NA	NA	NA	NA	MapTrialProc	MapTrialList	NA	NA	NA	NA	NA	NA	NA	NA	NA	NA	NA	NA	NA	NA	NA	NA	NA	NA	left	NA	L.bmp	354	NA	NA	NA	NA	NA	NA	NA	NA	NA	NA	NA	NA	NA	NA	NA	NA	NA	NA	NA	NA	NA
Arrow Flanker 2014	12474	1	"<?xml version=""1.0""?>\n<Clock xmlns:dt=""urn:schemas-microsoft-com:datatypes""><Description dt:dt=""string"">E-Prime Primary Realtime Clock</Description><StartTime><Timestamp dt:dt=""int"">0</Timestamp><DateUtc dt:dt=""string"">2015-09-22T19:32:36Z</DateUtc></StartTime><FrequencyChanges><FrequencyChange><Frequency dt:dt=""r8"">2825566</Frequency><Timestamp dt:dt=""r8"">27569679983842</Timestamp><Current dt:dt=""r8"">0</Current><DateUtc dt:dt=""string"">2015-09-22T19:32:36Z</DateUtc></FrequencyChange></FrequencyChanges></Clock>\n"	Arrow Flanker 2014-12474-1	60.016	1.0.0.100	1	285445587	Professional	2.0.10.353	2.0.10.353	09-22-2015	9/22/2015 7:32:36 PM	15:32:36	2.0.10.248	1	NA	NA	NA	NA	NA	NA	NA	NA	NA	NA	NA	NA	NA	1	1	1	NA	NA	NA	NA	NA	NA	NA	NA	NA	NA	NA	MapBlockProc	MapBlockList	NA	6	{RIGHTARROW}	-100	NA	1415	NA	2	1	6	0	16	280616	1416	1	{RIGHTARROW}	-999999	0	282532	0	{RIGHTARROW}	303	282835	NA	NA	NA	NA	NA	NA	MapTrialProc	MapTrialList	NA	NA	NA	NA	NA	NA	NA	NA	NA	NA	NA	NA	NA	NA	NA	NA	NA	NA	right	NA	R.bmp	354	NA	NA	NA	NA	NA	NA	NA	NA	NA	NA	NA	NA	NA	NA	NA	NA	NA	NA	NA	NA	NA
Arrow Flanker 2014	12474	1	"<?xml version=""1.0""?>\n<Clock xmlns:dt=""urn:schemas-microsoft-com:datatypes""><Description dt:dt=""string"">E-Prime Primary Realtime Clock</Description><StartTime><Timestamp dt:dt=""int"">0</Timestamp><DateUtc dt:dt=""string"">2015-09-22T19:32:36Z</DateUtc></StartTime><FrequencyChanges><FrequencyChange><Frequency dt:dt=""r8"">2825566</Frequency><Timestamp dt:dt=""r8"">27569679983842</Timestamp><Current dt:dt=""r8"">0</Current><DateUtc dt:dt=""string"">2015-09-22T19:32:36Z</DateUtc></FrequencyChange></FrequencyChanges></Clock>\n"	Arrow Flanker 2014-12474-1	60.016	1.0.0.100	1	285445587	Professional	2.0.10.353	2.0.10.353	09-22-2015	9/22/2015 7:32:36 PM	15:32:36	2.0.10.248	1	NA	NA	NA	NA	NA	NA	NA	NA	NA	NA	NA	NA	NA	1	1	1	NA	NA	NA	NA	NA	NA	NA	NA	NA	NA	NA	MapBlockProc	MapBlockList	NA	7	{LEFTARROW}	-100	NA	1578	NA	1	1	7	0	16	284365	1583	1	{LEFTARROW}	-999999	0	286448	0	{LEFTARROW}	563	287011	NA	NA	NA	NA	NA	NA	MapTrialProc	MapTrialList	NA	NA	NA	NA	NA	NA	NA	NA	NA	NA	NA	NA	NA	NA	NA	NA	NA	NA	left	NA	L.bmp	354	NA	NA	NA	NA	NA	NA	NA	NA	NA	NA	NA	NA	NA	NA	NA	NA	NA	NA	NA	NA	NA
Arrow Flanker 2014	12474	1	"<?xml version=""1.0""?>\n<Clock xmlns:dt=""urn:schemas-microsoft-com:datatypes""><Description dt:dt=""string"">E-Prime Primary Realtime Clock</Description><StartTime><Timestamp dt:dt=""int"">0</Timestamp><DateUtc dt:dt=""string"">2015-09-22T19:32:36Z</DateUtc></StartTime><FrequencyChanges><FrequencyChange><Frequency dt:dt=""r8"">2825566</Frequency><Timestamp dt:dt=""r8"">27569679983842</Timestamp><Current dt:dt=""r8"">0</Current><DateUtc dt:dt=""string"">2015-09-22T19:32:36Z</DateUtc></FrequencyChange></FrequencyChanges></Clock>\n"	Arrow Flanker 2014-12474-1	60.016	1.0.0.100	1	285445587	Professional	2.0.10.353	2.0.10.353	09-22-2015	9/22/2015 7:32:36 PM	15:32:36	2.0.10.248	1	NA	NA	NA	NA	NA	NA	NA	NA	NA	NA	NA	NA	NA	1	1	1	NA	NA	NA	NA	NA	NA	NA	NA	NA	NA	NA	MapBlockProc	MapBlockList	NA	8	{LEFTARROW}	-100	NA	415	NA	1	1	8	0	16	288547	417	1	{LEFTARROW}	-999999	16	289480	0	{LEFTARROW}	603	290083	NA	NA	NA	NA	NA	NA	MapTrialProc	MapTrialList	NA	NA	NA	NA	NA	NA	NA	NA	NA	NA	NA	NA	NA	NA	NA	NA	NA	NA	left	NA	L.bmp	354	NA	NA	NA	NA	NA	NA	NA	NA	NA	NA	NA	NA	NA	NA	NA	NA	NA	NA	NA	NA	NA
Arrow Flanker 2014	12474	1	"<?xml version=""1.0""?>\n<Clock xmlns:dt=""urn:schemas-microsoft-com:datatypes""><Description dt:dt=""string"">E-Prime Primary Realtime Clock</Description><StartTime><Timestamp dt:dt=""int"">0</Timestamp><DateUtc dt:dt=""string"">2015-09-22T19:32:36Z</DateUtc></StartTime><FrequencyChanges><FrequencyChange><Frequency dt:dt=""r8"">2825566</Frequency><Timestamp dt:dt=""r8"">27569679983842</Timestamp><Current dt:dt=""r8"">0</Current><DateUtc dt:dt=""string"">2015-09-22T19:32:36Z</DateUtc></FrequencyChange></FrequencyChanges></Clock>\n"	Arrow Flanker 2014-12474-1	60.016	1.0.0.100	1	285445587	Professional	2.0.10.353	2.0.10.353	09-22-2015	9/22/2015 7:32:36 PM	15:32:36	2.0.10.248	1	NA	NA	NA	NA	NA	NA	NA	NA	NA	NA	NA	NA	NA	1	1	1	NA	NA	NA	NA	NA	NA	NA	NA	NA	NA	NA	MapBlockProc	MapBlockList	NA	9	{RIGHTARROW}	-100	NA	632	NA	2	1	9	0	16	291613	633	1	{RIGHTARROW}	-999999	0	292746	0	{RIGHTARROW}	553	293299	NA	NA	NA	NA	NA	NA	MapTrialProc	MapTrialList	NA	NA	NA	NA	NA	NA	NA	NA	NA	NA	NA	NA	NA	NA	NA	NA	NA	NA	right	NA	R.bmp	354	NA	NA	NA	NA	NA	NA	NA	NA	NA	NA	NA	NA	NA	NA	NA	NA	NA	NA	NA	NA	NA
Arrow Flanker 2014	12474	1	"<?xml version=""1.0""?>\n<Clock xmlns:dt=""urn:schemas-microsoft-com:datatypes""><Description dt:dt=""string"">E-Prime Primary Realtime Clock</Description><StartTime><Timestamp dt:dt=""int"">0</Timestamp><DateUtc dt:dt=""string"">2015-09-22T19:32:36Z</DateUtc></StartTime><FrequencyChanges><FrequencyChange><Frequency dt:dt=""r8"">2825566</Frequency><Timestamp dt:dt=""r8"">27569679983842</Timestamp><Current dt:dt=""r8"">0</Current><DateUtc dt:dt=""string"">2015-09-22T19:32:36Z</DateUtc></FrequencyChange></FrequencyChanges></Clock>\n"	Arrow Flanker 2014-12474-1	60.016	1.0.0.100	1	285445587	Professional	2.0.10.353	2.0.10.353	09-22-2015	9/22/2015 7:32:36 PM	15:32:36	2.0.10.248	1	NA	NA	NA	NA	NA	NA	NA	NA	NA	NA	NA	NA	NA	1	1	1	NA	NA	NA	NA	NA	NA	NA	NA	NA	NA	NA	MapBlockProc	MapBlockList	NA	10	{LEFTARROW}	-100	NA	512	NA	1	1	10	0	17	294829	516	1	{LEFTARROW}	-999999	0	295845	0	{LEFTARROW}	430	296275	NA	NA	NA	NA	NA	NA	MapTrialProc	MapTrialList	NA	NA	NA	NA	NA	NA	NA	NA	NA	NA	NA	NA	NA	NA	NA	NA	NA	NA	left	NA	L.bmp	354	NA	NA	NA	NA	NA	NA	NA	NA	NA	NA	NA	NA	NA	NA	NA	NA	NA	NA	NA	NA	NA
Arrow Flanker 2014	12474	1	"<?xml version=""1.0""?>\n<Clock xmlns:dt=""urn:schemas-microsoft-com:datatypes""><Description dt:dt=""string"">E-Prime Primary Realtime Clock</Description><StartTime><Timestamp dt:dt=""int"">0</Timestamp><DateUtc dt:dt=""string"">2015-09-22T19:32:36Z</DateUtc></StartTime><FrequencyChanges><FrequencyChange><Frequency dt:dt=""r8"">2825566</Frequency><Timestamp dt:dt=""r8"">27569679983842</Timestamp><Current dt:dt=""r8"">0</Current><DateUtc dt:dt=""string"">2015-09-22T19:32:36Z</DateUtc></FrequencyChange></FrequencyChanges></Clock>\n"	Arrow Flanker 2014-12474-1	60.016	1.0.0.100	1	285445587	Professional	2.0.10.353	2.0.10.353	09-22-2015	9/22/2015 7:32:36 PM	15:32:36	2.0.10.248	2	NA	NA	NA	NA	NA	NA	NA	NA	NA	NA	NA	NA	NA	NA	NA	NA	NA	NA	NA	NA	NA	NA	NA	NA	1	1	1	PracBlockProc	PracBlockList	NA	1	{RIGHTARROW}	-100	NA	556	neutral	NA	NA	NA	0	11	333085	567	1	{RIGHTARROW}	-999999	0	334152	0	{RIGHTARROW}	666	334818	NA	6	1	1	NA	NA	PracTrialProc	PracTrialList	NA	NA	NA	NA	NA	NA	NA	NA	NA	NA	NA	NA	NA	NA	NA	NA	NA	NA	right	NA	ooroo.bmp	354	NA	NA	NA	NA	NA	NA	NA	NA	NA	NA	NA	NA	NA	NA	NA	NA	NA	NA	NA	NA	NA
Arrow Flanker 2014	12474	1	"<?xml version=""1.0""?>\n<Clock xmlns:dt=""urn:schemas-microsoft-com:datatypes""><Description dt:dt=""string"">E-Prime Primary Realtime Clock</Description><StartTime><Timestamp dt:dt=""int"">0</Timestamp><DateUtc dt:dt=""string"">2015-09-22T19:32:36Z</DateUtc></StartTime><FrequencyChanges><FrequencyChange><Frequency dt:dt=""r8"">2825566</Frequency><Timestamp dt:dt=""r8"">27569679983842</Timestamp><Current dt:dt=""r8"">0</Current><DateUtc dt:dt=""string"">2015-09-22T19:32:36Z</DateUtc></FrequencyChange></FrequencyChanges></Clock>\n"	Arrow Flanker 2014-12474-1	60.016	1.0.0.100	1	285445587	Professional	2.0.10.353	2.0.10.353	09-22-2015	9/22/2015 7:32:36 PM	15:32:36	2.0.10.248	2	NA	NA	NA	NA	NA	NA	NA	NA	NA	NA	NA	NA	NA	NA	NA	NA	NA	NA	NA	NA	NA	NA	NA	NA	1	1	1	PracBlockProc	PracBlockList	NA	2	{LEFTARROW}	-100	NA	886	neutral	NA	NA	NA	0	16	336351	900	1	{LEFTARROW}	-999999	0	337751	0	{LEFTARROW}	779	338530	NA	3	1	2	NA	NA	PracTrialProc	PracTrialList	NA	NA	NA	NA	NA	NA	NA	NA	NA	NA	NA	NA	NA	NA	NA	NA	NA	NA	left	NA	ooloo.bmp	354	NA	NA	NA	NA	NA	NA	NA	NA	NA	NA	NA	NA	NA	NA	NA	NA	NA	NA	NA	NA	NA
Arrow Flanker 2014	12474	1	"<?xml version=""1.0""?>\n<Clock xmlns:dt=""urn:schemas-microsoft-com:datatypes""><Description dt:dt=""string"">E-Prime Primary Realtime Clock</Description><StartTime><Timestamp dt:dt=""int"">0</Timestamp><DateUtc dt:dt=""string"">2015-09-22T19:32:36Z</DateUtc></StartTime><FrequencyChanges><FrequencyChange><Frequency dt:dt=""r8"">2825566</Frequency><Timestamp dt:dt=""r8"">27569679983842</Timestamp><Current dt:dt=""r8"">0</Current><DateUtc dt:dt=""string"">2015-09-22T19:32:36Z</DateUtc></FrequencyChange></FrequencyChanges></Clock>\n"	Arrow Flanker 2014-12474-1	60.016	1.0.0.100	1	285445587	Professional	2.0.10.353	2.0.10.353	09-22-2015	9/22/2015 7:32:36 PM	15:32:36	2.0.10.248	2	NA	NA	NA	NA	NA	NA	NA	NA	NA	NA	NA	NA	NA	NA	NA	NA	NA	NA	NA	NA	NA	NA	NA	NA	1	1	1	PracBlockProc	PracBlockList	NA	3	{RIGHTARROW}	-100	NA	748	incongruent	NA	NA	NA	0	16	340067	750	1	{RIGHTARROW}	-999999	16	341333	0	{RIGHTARROW}	525	341858	NA	5	1	3	NA	NA	PracTrialProc	PracTrialList	NA	NA	NA	NA	NA	NA	NA	NA	NA	NA	NA	NA	NA	NA	NA	NA	NA	NA	right	NA	llrll.bmp	354	NA	NA	NA	NA	NA	NA	NA	NA	NA	NA	NA	NA	NA	NA	NA	NA	NA	NA	NA	NA	NA
Arrow Flanker 2014	12474	1	"<?xml version=""1.0""?>\n<Clock xmlns:dt=""urn:schemas-microsoft-com:datatypes""><Description dt:dt=""string"">E-Prime Primary Realtime Clock</Description><StartTime><Timestamp dt:dt=""int"">0</Timestamp><DateUtc dt:dt=""string"">2015-09-22T19:32:36Z</DateUtc></StartTime><FrequencyChanges><FrequencyChange><Frequency dt:dt=""r8"">2825566</Frequency><Timestamp dt:dt=""r8"">27569679983842</Timestamp><Current dt:dt=""r8"">0</Current><DateUtc dt:dt=""string"">2015-09-22T19:32:36Z</DateUtc></FrequencyChange></FrequencyChanges></Clock>\n"	Arrow Flanker 2014-12474-1	60.016	1.0.0.100	1	285445587	Professional	2.0.10.353	2.0.10.353	09-22-2015	9/22/2015 7:32:36 PM	15:32:36	2.0.10.248	2	NA	NA	NA	NA	NA	NA	NA	NA	NA	NA	NA	NA	NA	NA	NA	NA	NA	NA	NA	NA	NA	NA	NA	NA	1	1	1	PracBlockProc	PracBlockList	NA	4	{LEFTARROW}	-100	NA	772	incongruent	NA	NA	NA	0	16	343399	783	1	{LEFTARROW}	-999999	0	344682	0	{LEFTARROW}	919	345601	NA	2	1	4	NA	NA	PracTrialProc	PracTrialList	NA	NA	NA	NA	NA	NA	NA	NA	NA	NA	NA	NA	NA	NA	NA	NA	NA	NA	left	NA	rrlrr.bmp	354	NA	NA	NA	NA	NA	NA	NA	NA	NA	NA	NA	NA	NA	NA	NA	NA	NA	NA	NA	NA	NA
Arrow Flanker 2014	12474	1	"<?xml version=""1.0""?>\n<Clock xmlns:dt=""urn:schemas-microsoft-com:datatypes""><Description dt:dt=""string"">E-Prime Primary Realtime Clock</Description><StartTime><Timestamp dt:dt=""int"">0</Timestamp><DateUtc dt:dt=""string"">2015-09-22T19:32:36Z</DateUtc></StartTime><FrequencyChanges><FrequencyChange><Frequency dt:dt=""r8"">2825566</Frequency><Timestamp dt:dt=""r8"">27569679983842</Timestamp><Current dt:dt=""r8"">0</Current><DateUtc dt:dt=""string"">2015-09-22T19:32:36Z</DateUtc></FrequencyChange></FrequencyChanges></Clock>\n"	Arrow Flanker 2014-12474-1	60.016	1.0.0.100	1	285445587	Professional	2.0.10.353	2.0.10.353	09-22-2015	9/22/2015 7:32:36 PM	15:32:36	2.0.10.248	2	NA	NA	NA	NA	NA	NA	NA	NA	NA	NA	NA	NA	NA	NA	NA	NA	NA	NA	NA	NA	NA	NA	NA	NA	1	1	1	PracBlockProc	PracBlockList	NA	5	{LEFTARROW}	-100	NA	1444	congruent	NA	NA	NA	0	17	347132	1449	1	{LEFTARROW}	-999999	0	349081	0	{LEFTARROW}	584	349665	NA	1	1	5	NA	NA	PracTrialProc	PracTrialList	NA	NA	NA	NA	NA	NA	NA	NA	NA	NA	NA	NA	NA	NA	NA	NA	NA	NA	left	NA	lllll.bmp	354	NA	NA	NA	NA	NA	NA	NA	NA	NA	NA	NA	NA	NA	NA	NA	NA	NA	NA	NA	NA	NA
Arrow Flanker 2014	12474	1	"<?xml version=""1.0""?>\n<Clock xmlns:dt=""urn:schemas-microsoft-com:datatypes""><Description dt:dt=""string"">E-Prime Primary Realtime Clock</Description><StartTime><Timestamp dt:dt=""int"">0</Timestamp><DateUtc dt:dt=""string"">2015-09-22T19:32:36Z</DateUtc></StartTime><FrequencyChanges><FrequencyChange><Frequency dt:dt=""r8"">2825566</Frequency><Timestamp dt:dt=""r8"">27569679983842</Timestamp><Current dt:dt=""r8"">0</Current><DateUtc dt:dt=""string"">2015-09-22T19:32:36Z</DateUtc></FrequencyChange></FrequencyChanges></Clock>\n"	Arrow Flanker 2014-12474-1	60.016	1.0.0.100	1	285445587	Professional	2.0.10.353	2.0.10.353	09-22-2015	9/22/2015 7:32:36 PM	15:32:36	2.0.10.248	2	NA	NA	NA	NA	NA	NA	NA	NA	NA	NA	NA	NA	NA	NA	NA	NA	NA	NA	NA	NA	NA	NA	NA	NA	1	1	1	PracBlockProc	PracBlockList	NA	6	{RIGHTARROW}	-100	NA	1532	congruent	NA	NA	NA	0	16	351197	1533	1	{RIGHTARROW}	-999999	0	353230	0	{RIGHTARROW}	435	353665	NA	4	1	6	NA	NA	PracTrialProc	PracTrialList	NA	NA	NA	NA	NA	NA	NA	NA	NA	NA	NA	NA	NA	NA	NA	NA	NA	NA	right	NA	rrrrr.bmp	354	NA	NA	NA	NA	NA	NA	NA	NA	NA	NA	NA	NA	NA	NA	NA	NA	NA	NA	NA	NA	NA
Arrow Flanker 2014	12474	1	"<?xml version=""1.0""?>\n<Clock xmlns:dt=""urn:schemas-microsoft-com:datatypes""><Description dt:dt=""string"">E-Prime Primary Realtime Clock</Description><StartTime><Timestamp dt:dt=""int"">0</Timestamp><DateUtc dt:dt=""string"">2015-09-22T19:32:36Z</DateUtc></StartTime><FrequencyChanges><FrequencyChange><Frequency dt:dt=""r8"">2825566</Frequency><Timestamp dt:dt=""r8"">27569679983842</Timestamp><Current dt:dt=""r8"">0</Current><DateUtc dt:dt=""string"">2015-09-22T19:32:36Z</DateUtc></FrequencyChange></FrequencyChanges></Clock>\n"	Arrow Flanker 2014-12474-1	60.016	1.0.0.100	1	285445587	Professional	2.0.10.353	2.0.10.353	09-22-2015	9/22/2015 7:32:36 PM	15:32:36	2.0.10.248	3	1	1	1	NA	NA	NA	NA	NA	NA	NA	NA	NA	NA	NA	NA	NA	NA	NA	NA	NA	NA	NA	NA	NA	NA	NA	NA	BlockProc	BlockList	NA	1	{LEFTARROW}	NA	-100	2196	neutral	NA	NA	NA	NA	NA	NA	NA	NA	NA	NA	NA	NA	NA	NA	NA	NA	NA	NA	NA	NA	NA	NA	TrialProc	TrialList	0	20	406516	17	0	16	403583	1300	1	{LEFTARROW}	-999999	0	405383	0	{LEFTARROW}	1113	406496	NA	NA	left	ooloo.bmp	354	0	NA	0	0	0	0	NA	0	0	0	NA	0	0	0	0	NA	0	0	5	1	1
Arrow Flanker 2014	12474	1	"<?xml version=""1.0""?>\n<Clock xmlns:dt=""urn:schemas-microsoft-com:datatypes""><Description dt:dt=""string"">E-Prime Primary Realtime Clock</Description><StartTime><Timestamp dt:dt=""int"">0</Timestamp><DateUtc dt:dt=""string"">2015-09-22T19:32:36Z</DateUtc></StartTime><FrequencyChanges><FrequencyChange><Frequency dt:dt=""r8"">2825566</Frequency><Timestamp dt:dt=""r8"">27569679983842</Timestamp><Current dt:dt=""r8"">0</Current><DateUtc dt:dt=""string"">2015-09-22T19:32:36Z</DateUtc></FrequencyChange></FrequencyChanges></Clock>\n"	Arrow Flanker 2014-12474-1	60.016	1.0.0.100	1	285445587	Professional	2.0.10.353	2.0.10.353	09-22-2015	9/22/2015 7:32:36 PM	15:32:36	2.0.10.248	3	1	1	1	NA	NA	NA	NA	NA	NA	NA	NA	NA	NA	NA	NA	NA	NA	NA	NA	NA	NA	NA	NA	NA	NA	NA	NA	BlockProc	BlockList	NA	2	{RIGHTARROW}	NA	-100	2067	neutral	NA	NA	NA	NA	NA	NA	NA	NA	NA	NA	NA	NA	NA	NA	NA	NA	NA	NA	NA	NA	NA	NA	TrialProc	TrialList	0	11	409515	17	0	16	407049	1216	1	{RIGHTARROW}	-999999	0	408765	0	{RIGHTARROW}	739	409504	NA	NA	right	ooroo.bmp	354	0	NA	0	0	0	0	NA	0	0	0	NA	0	0	0	0	NA	0	0	6	1	2
Arrow Flanker 2014	12474	1	"<?xml version=""1.0""?>\n<Clock xmlns:dt=""urn:schemas-microsoft-com:datatypes""><Description dt:dt=""string"">E-Prime Primary Realtime Clock</Description><StartTime><Timestamp dt:dt=""int"">0</Timestamp><DateUtc dt:dt=""string"">2015-09-22T19:32:36Z</DateUtc></StartTime><FrequencyChanges><FrequencyChange><Frequency dt:dt=""r8"">2825566</Frequency><Timestamp dt:dt=""r8"">27569679983842</Timestamp><Current dt:dt=""r8"">0</Current><DateUtc dt:dt=""string"">2015-09-22T19:32:36Z</DateUtc></FrequencyChange></FrequencyChanges></Clock>\n"	Arrow Flanker 2014-12474-1	60.016	1.0.0.100	1	285445587	Professional	2.0.10.353	2.0.10.353	09-22-2015	9/22/2015 7:32:36 PM	15:32:36	2.0.10.248	3	1	1	1	NA	NA	NA	NA	NA	NA	NA	NA	NA	NA	NA	NA	NA	NA	NA	NA	NA	NA	NA	NA	NA	NA	NA	NA	BlockProc	BlockList	NA	3	{LEFTARROW}	NA	-100	1148	congruent	NA	NA	NA	NA	NA	NA	NA	NA	NA	NA	NA	NA	NA	NA	NA	NA	NA	NA	NA	NA	NA	NA	TrialProc	TrialList	1	10	411914	17	0	16	410048	800	1	{LEFTARROW}	-999999	0	411348	0	{LEFTARROW}	556	411904	NA	NA	left	lllll.bmp	354	0	NA	0	0	0	0	NA	0	0	0	NA	0	0	0	0	NA	0	0	1	1	3
Arrow Flanker 2014	12474	1	"<?xml version=""1.0""?>\n<Clock xmlns:dt=""urn:schemas-microsoft-com:datatypes""><Description dt:dt=""string"">E-Prime Primary Realtime Clock</Description><StartTime><Timestamp dt:dt=""int"">0</Timestamp><DateUtc dt:dt=""string"">2015-09-22T19:32:36Z</DateUtc></StartTime><FrequencyChanges><FrequencyChange><Frequency dt:dt=""r8"">2825566</Frequency><Timestamp dt:dt=""r8"">27569679983842</Timestamp><Current dt:dt=""r8"">0</Current><DateUtc dt:dt=""string"">2015-09-22T19:32:36Z</DateUtc></FrequencyChange></FrequencyChanges></Clock>\n"	Arrow Flanker 2014-12474-1	60.016	1.0.0.100	1	285445587	Professional	2.0.10.353	2.0.10.353	09-22-2015	9/22/2015 7:32:36 PM	15:32:36	2.0.10.248	3	1	1	1	NA	NA	NA	NA	NA	NA	NA	NA	NA	NA	NA	NA	NA	NA	NA	NA	NA	NA	NA	NA	NA	NA	NA	NA	BlockProc	BlockList	NA	4	{LEFTARROW}	NA	-100	1543	neutral	NA	NA	NA	NA	NA	NA	NA	NA	NA	NA	NA	NA	NA	NA	NA	NA	NA	NA	NA	NA	NA	NA	TrialProc	TrialList	0	11	415147	17	0	17	412448	1533	1	{LEFTARROW}	-999999	16	414497	0	{LEFTARROW}	639	415136	NA	NA	left	ooloo.bmp	354	0	NA	0	0	0	0	NA	0	0	0	NA	0	0	0	0	NA	0	0	5	1	4
Arrow Flanker 2014	12474	1	"<?xml version=""1.0""?>\n<Clock xmlns:dt=""urn:schemas-microsoft-com:datatypes""><Description dt:dt=""string"">E-Prime Primary Realtime Clock</Description><StartTime><Timestamp dt:dt=""int"">0</Timestamp><DateUtc dt:dt=""string"">2015-09-22T19:32:36Z</DateUtc></StartTime><FrequencyChanges><FrequencyChange><Frequency dt:dt=""r8"">2825566</Frequency><Timestamp dt:dt=""r8"">27569679983842</Timestamp><Current dt:dt=""r8"">0</Current><DateUtc dt:dt=""string"">2015-09-22T19:32:36Z</DateUtc></FrequencyChange></FrequencyChanges></Clock>\n"	Arrow Flanker 2014-12474-1	60.016	1.0.0.100	1	285445587	Professional	2.0.10.353	2.0.10.353	09-22-2015	9/22/2015 7:32:36 PM	15:32:36	2.0.10.248	3	1	1	1	NA	NA	NA	NA	NA	NA	NA	NA	NA	NA	NA	NA	NA	NA	NA	NA	NA	NA	NA	NA	NA	NA	NA	NA	BlockProc	BlockList	NA	5	{RIGHTARROW}	NA	-100	2150	congruent	NA	NA	NA	NA	NA	NA	NA	NA	NA	NA	NA	NA	NA	NA	NA	NA	NA	NA	NA	NA	NA	NA	TrialProc	TrialList	0	17	418113	16	0	16	415680	1400	1	{RIGHTARROW}	-999999	0	417580	0	{RIGHTARROW}	515	418095	NA	NA	right	rrrrr.bmp	354	0	NA	0	0	0	0	NA	0	0	0	NA	0	0	0	0	NA	0	0	2	1	5
Arrow Flanker 2014	12474	1	"<?xml version=""1.0""?>\n<Clock xmlns:dt=""urn:schemas-microsoft-com:datatypes""><Description dt:dt=""string"">E-Prime Primary Realtime Clock</Description><StartTime><Timestamp dt:dt=""int"">0</Timestamp><DateUtc dt:dt=""string"">2015-09-22T19:32:36Z</DateUtc></StartTime><FrequencyChanges><FrequencyChange><Frequency dt:dt=""r8"">2825566</Frequency><Timestamp dt:dt=""r8"">27569679983842</Timestamp><Current dt:dt=""r8"">0</Current><DateUtc dt:dt=""string"">2015-09-22T19:32:36Z</DateUtc></FrequencyChange></FrequencyChanges></Clock>\n"	Arrow Flanker 2014-12474-1	60.016	1.0.0.100	1	285445587	Professional	2.0.10.353	2.0.10.353	09-22-2015	9/22/2015 7:32:36 PM	15:32:36	2.0.10.248	3	1	1	1	NA	NA	NA	NA	NA	NA	NA	NA	NA	NA	NA	NA	NA	NA	NA	NA	NA	NA	NA	NA	NA	NA	NA	NA	BlockProc	BlockList	NA	6	{RIGHTARROW}	NA	-100	1142	incongruent	NA	NA	NA	NA	NA	NA	NA	NA	NA	NA	NA	NA	NA	NA	NA	NA	NA	NA	NA	NA	NA	NA	TrialProc	TrialList	0	10	420346	16	0	17	418646	583	1	{RIGHTARROW}	-999999	0	419729	0	{RIGHTARROW}	606	420335	NA	NA	right	llrll.bmp	354	0	NA	0	0	0	0	NA	0	0	0	NA	0	0	0	0	NA	0	0	4	1	6
Arrow Flanker 2014	12474	1	"<?xml version=""1.0""?>\n<Clock xmlns:dt=""urn:schemas-microsoft-com:datatypes""><Description dt:dt=""string"">E-Prime Primary Realtime Clock</Description><StartTime><Timestamp dt:dt=""int"">0</Timestamp><DateUtc dt:dt=""string"">2015-09-22T19:32:36Z</DateUtc></StartTime><FrequencyChanges><FrequencyChange><Frequency dt:dt=""r8"">2825566</Frequency><Timestamp dt:dt=""r8"">27569679983842</Timestamp><Current dt:dt=""r8"">0</Current><DateUtc dt:dt=""string"">2015-09-22T19:32:36Z</DateUtc></FrequencyChange></FrequencyChanges></Clock>\n"	Arrow Flanker 2014-12474-1	60.016	1.0.0.100	1	285445587	Professional	2.0.10.353	2.0.10.353	09-22-2015	9/22/2015 7:32:36 PM	15:32:36	2.0.10.248	3	1	1	1	NA	NA	NA	NA	NA	NA	NA	NA	NA	NA	NA	NA	NA	NA	NA	NA	NA	NA	NA	NA	NA	NA	NA	NA	BlockProc	BlockList	NA	7	{LEFTARROW}	NA	-100	1755	incongruent	NA	NA	NA	NA	NA	NA	NA	NA	NA	NA	NA	NA	NA	NA	NA	NA	NA	NA	NA	NA	NA	NA	TrialProc	TrialList	1	14	422878	17	0	17	420879	583	1	{LEFTARROW}	-999999	0	421962	0	{LEFTARROW}	901	422863	NA	NA	left	rrlrr.bmp	354	0	NA	0	0	0	0	NA	0	0	0	NA	0	0	0	0	NA	0	0	3	1	7
Arrow Flanker 2014	12474	1	"<?xml version=""1.0""?>\n<Clock xmlns:dt=""urn:schemas-microsoft-com:datatypes""><Description dt:dt=""string"">E-Prime Primary Realtime Clock</Description><StartTime><Timestamp dt:dt=""int"">0</Timestamp><DateUtc dt:dt=""string"">2015-09-22T19:32:36Z</DateUtc></StartTime><FrequencyChanges><FrequencyChange><Frequency dt:dt=""r8"">2825566</Frequency><Timestamp dt:dt=""r8"">27569679983842</Timestamp><Current dt:dt=""r8"">0</Current><DateUtc dt:dt=""string"">2015-09-22T19:32:36Z</DateUtc></FrequencyChange></FrequencyChanges></Clock>\n"	Arrow Flanker 2014-12474-1	60.016	1.0.0.100	1	285445587	Professional	2.0.10.353	2.0.10.353	09-22-2015	9/22/2015 7:32:36 PM	15:32:36	2.0.10.248	3	1	1	1	NA	NA	NA	NA	NA	NA	NA	NA	NA	NA	NA	NA	NA	NA	NA	NA	NA	NA	NA	NA	NA	NA	NA	NA	BlockProc	BlockList	NA	8	{RIGHTARROW}	NA	-100	1560	congruent	NA	NA	NA	NA	NA	NA	NA	NA	NA	NA	NA	NA	NA	NA	NA	NA	NA	NA	NA	NA	NA	NA	TrialProc	TrialList	0	19	425794	17	0	16	423411	1350	1	{RIGHTARROW}	-999999	0	425261	0	{RIGHTARROW}	514	425775	NA	NA	right	rrrrr.bmp	354	0	NA	0	0	0	0	NA	0	0	0	NA	0	0	0	0	NA	0	0	2	1	8
Arrow Flanker 2014	12474	1	"<?xml version=""1.0""?>\n<Clock xmlns:dt=""urn:schemas-microsoft-com:datatypes""><Description dt:dt=""string"">E-Prime Primary Realtime Clock</Description><StartTime><Timestamp dt:dt=""int"">0</Timestamp><DateUtc dt:dt=""string"">2015-09-22T19:32:36Z</DateUtc></StartTime><FrequencyChanges><FrequencyChange><Frequency dt:dt=""r8"">2825566</Frequency><Timestamp dt:dt=""r8"">27569679983842</Timestamp><Current dt:dt=""r8"">0</Current><DateUtc dt:dt=""string"">2015-09-22T19:32:36Z</DateUtc></FrequencyChange></FrequencyChanges></Clock>\n"	Arrow Flanker 2014-12474-1	60.016	1.0.0.100	1	285445587	Professional	2.0.10.353	2.0.10.353	09-22-2015	9/22/2015 7:32:36 PM	15:32:36	2.0.10.248	3	1	1	1	NA	NA	NA	NA	NA	NA	NA	NA	NA	NA	NA	NA	NA	NA	NA	NA	NA	NA	NA	NA	NA	NA	NA	NA	BlockProc	BlockList	NA	9	{LEFTARROW}	NA	-100	1579	neutral	NA	NA	NA	NA	NA	NA	NA	NA	NA	NA	NA	NA	NA	NA	NA	NA	NA	NA	NA	NA	NA	NA	TrialProc	TrialList	1	5	427844	16	0	16	426327	500	1	{LEFTARROW}	-999999	0	427327	0	{LEFTARROW}	512	427839	NA	NA	left	ooloo.bmp	354	0	NA	0	0	0	0	NA	0	0	0	NA	0	0	0	0	NA	0	0	5	1	9
Arrow Flanker 2014	12474	1	"<?xml version=""1.0""?>\n<Clock xmlns:dt=""urn:schemas-microsoft-com:datatypes""><Description dt:dt=""string"">E-Prime Primary Realtime Clock</Description><StartTime><Timestamp dt:dt=""int"">0</Timestamp><DateUtc dt:dt=""string"">2015-09-22T19:32:36Z</DateUtc></StartTime><FrequencyChanges><FrequencyChange><Frequency dt:dt=""r8"">2825566</Frequency><Timestamp dt:dt=""r8"">27569679983842</Timestamp><Current dt:dt=""r8"">0</Current><DateUtc dt:dt=""string"">2015-09-22T19:32:36Z</DateUtc></FrequencyChange></FrequencyChanges></Clock>\n"	Arrow Flanker 2014-12474-1	60.016	1.0.0.100	1	285445587	Professional	2.0.10.353	2.0.10.353	09-22-2015	9/22/2015 7:32:36 PM	15:32:36	2.0.10.248	3	1	1	1	NA	NA	NA	NA	NA	NA	NA	NA	NA	NA	NA	NA	NA	NA	NA	NA	NA	NA	NA	NA	NA	NA	NA	NA	BlockProc	BlockList	NA	10	{LEFTARROW}	NA	-100	1590	congruent	NA	NA	NA	NA	NA	NA	NA	NA	NA	NA	NA	NA	NA	NA	NA	NA	NA	NA	NA	NA	NA	NA	TrialProc	TrialList	0	11	430410	16	0	17	428377	683	1	{LEFTARROW}	-999999	0	429560	0	{LEFTARROW}	839	430399	NA	NA	left	lllll.bmp	354	0	NA	0	0	0	0	NA	0	0	0	NA	0	0	0	0	NA	0	0	1	1	10
Arrow Flanker 2014	12474	1	"<?xml version=""1.0""?>\n<Clock xmlns:dt=""urn:schemas-microsoft-com:datatypes""><Description dt:dt=""string"">E-Prime Primary Realtime Clock</Description><StartTime><Timestamp dt:dt=""int"">0</Timestamp><DateUtc dt:dt=""string"">2015-09-22T19:32:36Z</DateUtc></StartTime><FrequencyChanges><FrequencyChange><Frequency dt:dt=""r8"">2825566</Frequency><Timestamp dt:dt=""r8"">27569679983842</Timestamp><Current dt:dt=""r8"">0</Current><DateUtc dt:dt=""string"">2015-09-22T19:32:36Z</DateUtc></FrequencyChange></FrequencyChanges></Clock>\n"	Arrow Flanker 2014-12474-1	60.016	1.0.0.100	1	285445587	Professional	2.0.10.353	2.0.10.353	09-22-2015	9/22/2015 7:32:36 PM	15:32:36	2.0.10.248	3	1	1	1	NA	NA	NA	NA	NA	NA	NA	NA	NA	NA	NA	NA	NA	NA	NA	NA	NA	NA	NA	NA	NA	NA	NA	NA	BlockProc	BlockList	NA	11	{LEFTARROW}	NA	-100	1958	congruent	NA	NA	NA	NA	NA	NA	NA	NA	NA	NA	NA	NA	NA	NA	NA	NA	NA	NA	NA	NA	NA	NA	TrialProc	TrialList	1	21	433092	17	0	17	430943	950	1	{LEFTARROW}	-999999	0	432409	0	{LEFTARROW}	662	433071	NA	NA	left	lllll.bmp	354	0	NA	0	0	0	0	NA	0	0	0	NA	0	0	0	0	NA	0	0	1	1	11
Arrow Flanker 2014	12474	1	"<?xml version=""1.0""?>\n<Clock xmlns:dt=""urn:schemas-microsoft-com:datatypes""><Description dt:dt=""string"">E-Prime Primary Realtime Clock</Description><StartTime><Timestamp dt:dt=""int"">0</Timestamp><DateUtc dt:dt=""string"">2015-09-22T19:32:36Z</DateUtc></StartTime><FrequencyChanges><FrequencyChange><Frequency dt:dt=""r8"">2825566</Frequency><Timestamp dt:dt=""r8"">27569679983842</Timestamp><Current dt:dt=""r8"">0</Current><DateUtc dt:dt=""string"">2015-09-22T19:32:36Z</DateUtc></FrequencyChange></FrequencyChanges></Clock>\n"	Arrow Flanker 2014-12474-1	60.016	1.0.0.100	1	285445587	Professional	2.0.10.353	2.0.10.353	09-22-2015	9/22/2015 7:32:36 PM	15:32:36	2.0.10.248	3	1	1	1	NA	NA	NA	NA	NA	NA	NA	NA	NA	NA	NA	NA	NA	NA	NA	NA	NA	NA	NA	NA	NA	NA	NA	NA	BlockProc	BlockList	NA	12	{LEFTARROW}	NA	-100	1162	incongruent	NA	NA	NA	NA	NA	NA	NA	NA	NA	NA	NA	NA	NA	NA	NA	NA	NA	NA	NA	NA	NA	NA	TrialProc	TrialList	0	10	435625	17	0	16	433625	517	1	{LEFTARROW}	-999999	0	434642	0	{LEFTARROW}	973	435615	NA	NA	left	rrlrr.bmp	354	0	NA	0	0	0	0	NA	0	0	0	NA	0	0	0	0	NA	0	0	3	1	12
Arrow Flanker 2014	12474	1	"<?xml version=""1.0""?>\n<Clock xmlns:dt=""urn:schemas-microsoft-com:datatypes""><Description dt:dt=""string"">E-Prime Primary Realtime Clock</Description><StartTime><Timestamp dt:dt=""int"">0</Timestamp><DateUtc dt:dt=""string"">2015-09-22T19:32:36Z</DateUtc></StartTime><FrequencyChanges><FrequencyChange><Frequency dt:dt=""r8"">2825566</Frequency><Timestamp dt:dt=""r8"">27569679983842</Timestamp><Current dt:dt=""r8"">0</Current><DateUtc dt:dt=""string"">2015-09-22T19:32:36Z</DateUtc></FrequencyChange></FrequencyChanges></Clock>\n"	Arrow Flanker 2014-12474-1	60.016	1.0.0.100	1	285445587	Professional	2.0.10.353	2.0.10.353	09-22-2015	9/22/2015 7:32:36 PM	15:32:36	2.0.10.248	3	1	1	1	NA	NA	NA	NA	NA	NA	NA	NA	NA	NA	NA	NA	NA	NA	NA	NA	NA	NA	NA	NA	NA	NA	NA	NA	BlockProc	BlockList	NA	13	{RIGHTARROW}	NA	-100	2557	incongruent	NA	NA	NA	NA	NA	NA	NA	NA	NA	NA	NA	NA	NA	NA	NA	NA	NA	NA	NA	NA	NA	NA	TrialProc	TrialList	0	8	438791	16	0	16	436158	1500	1	{RIGHTARROW}	-999999	-1	438157	0	{RIGHTARROW}	626	438783	NA	NA	right	llrll.bmp	354	0	NA	0	0	0	0	NA	0	0	0	NA	0	0	0	0	NA	0	0	4	1	13
Arrow Flanker 2014	12474	1	"<?xml version=""1.0""?>\n<Clock xmlns:dt=""urn:schemas-microsoft-com:datatypes""><Description dt:dt=""string"">E-Prime Primary Realtime Clock</Description><StartTime><Timestamp dt:dt=""int"">0</Timestamp><DateUtc dt:dt=""string"">2015-09-22T19:32:36Z</DateUtc></StartTime><FrequencyChanges><FrequencyChange><Frequency dt:dt=""r8"">2825566</Frequency><Timestamp dt:dt=""r8"">27569679983842</Timestamp><Current dt:dt=""r8"">0</Current><DateUtc dt:dt=""string"">2015-09-22T19:32:36Z</DateUtc></FrequencyChange></FrequencyChanges></Clock>\n"	Arrow Flanker 2014-12474-1	60.016	1.0.0.100	1	285445587	Professional	2.0.10.353	2.0.10.353	09-22-2015	9/22/2015 7:32:36 PM	15:32:36	2.0.10.248	3	1	1	1	NA	NA	NA	NA	NA	NA	NA	NA	NA	NA	NA	NA	NA	NA	NA	NA	NA	NA	NA	NA	NA	NA	NA	NA	BlockProc	BlockList	NA	14	{RIGHTARROW}	NA	-100	1333	incongruent	NA	NA	NA	NA	NA	NA	NA	NA	NA	NA	NA	NA	NA	NA	NA	NA	NA	NA	NA	NA	NA	NA	TrialProc	TrialList	1	8	441623	17	0	17	439324	1216	1	{RIGHTARROW}	-999999	0	441040	0	{RIGHTARROW}	575	441615	NA	NA	right	llrll.bmp	354	0	NA	0	0	0	0	NA	0	0	0	NA	0	0	0	0	NA	0	0	4	1	14
Arrow Flanker 2014	12474	1	"<?xml version=""1.0""?>\n<Clock xmlns:dt=""urn:schemas-microsoft-com:datatypes""><Description dt:dt=""string"">E-Prime Primary Realtime Clock</Description><StartTime><Timestamp dt:dt=""int"">0</Timestamp><DateUtc dt:dt=""string"">2015-09-22T19:32:36Z</DateUtc></StartTime><FrequencyChanges><FrequencyChange><Frequency dt:dt=""r8"">2825566</Frequency><Timestamp dt:dt=""r8"">27569679983842</Timestamp><Current dt:dt=""r8"">0</Current><DateUtc dt:dt=""string"">2015-09-22T19:32:36Z</DateUtc></FrequencyChange></FrequencyChanges></Clock>\n"	Arrow Flanker 2014-12474-1	60.016	1.0.0.100	1	285445587	Professional	2.0.10.353	2.0.10.353	09-22-2015	9/22/2015 7:32:36 PM	15:32:36	2.0.10.248	3	1	1	1	NA	NA	NA	NA	NA	NA	NA	NA	NA	NA	NA	NA	NA	NA	NA	NA	NA	NA	NA	NA	NA	NA	NA	NA	BlockProc	BlockList	NA	15	{RIGHTARROW}	NA	-100	1655	incongruent	NA	NA	NA	NA	NA	NA	NA	NA	NA	NA	NA	NA	NA	NA	NA	NA	NA	NA	NA	NA	NA	NA	TrialProc	TrialList	0	11	444106	17	0	16	442156	467	1	{RIGHTARROW}	-999999	0	443123	0	{RIGHTARROW}	972	444095	NA	NA	right	llrll.bmp	354	0	NA	0	0	0	0	NA	0	0	0	NA	0	0	0	0	NA	0	0	4	1	15
Arrow Flanker 2014	12474	1	"<?xml version=""1.0""?>\n<Clock xmlns:dt=""urn:schemas-microsoft-com:datatypes""><Description dt:dt=""string"">E-Prime Primary Realtime Clock</Description><StartTime><Timestamp dt:dt=""int"">0</Timestamp><DateUtc dt:dt=""string"">2015-09-22T19:32:36Z</DateUtc></StartTime><FrequencyChanges><FrequencyChange><Frequency dt:dt=""r8"">2825566</Frequency><Timestamp dt:dt=""r8"">27569679983842</Timestamp><Current dt:dt=""r8"">0</Current><DateUtc dt:dt=""string"">2015-09-22T19:32:36Z</DateUtc></FrequencyChange></FrequencyChanges></Clock>\n"	Arrow Flanker 2014-12474-1	60.016	1.0.0.100	1	285445587	Professional	2.0.10.353	2.0.10.353	09-22-2015	9/22/2015 7:32:36 PM	15:32:36	2.0.10.248	3	1	1	1	NA	NA	NA	NA	NA	NA	NA	NA	NA	NA	NA	NA	NA	NA	NA	NA	NA	NA	NA	NA	NA	NA	NA	NA	BlockProc	BlockList	NA	16	{RIGHTARROW}	NA	-100	1729	neutral	NA	NA	NA	NA	NA	NA	NA	NA	NA	NA	NA	NA	NA	NA	NA	NA	NA	NA	NA	NA	NA	NA	TrialProc	TrialList	0	12	446939	16	0	16	444639	1233	1	{RIGHTARROW}	-999999	0	446372	0	{RIGHTARROW}	555	446927	NA	NA	right	ooroo.bmp	354	0	NA	0	0	0	0	NA	0	0	0	NA	0	0	0	0	NA	0	0	6	1	16
Arrow Flanker 2014	12474	1	"<?xml version=""1.0""?>\n<Clock xmlns:dt=""urn:schemas-microsoft-com:datatypes""><Description dt:dt=""string"">E-Prime Primary Realtime Clock</Description><StartTime><Timestamp dt:dt=""int"">0</Timestamp><DateUtc dt:dt=""string"">2015-09-22T19:32:36Z</DateUtc></StartTime><FrequencyChanges><FrequencyChange><Frequency dt:dt=""r8"">2825566</Frequency><Timestamp dt:dt=""r8"">27569679983842</Timestamp><Current dt:dt=""r8"">0</Current><DateUtc dt:dt=""string"">2015-09-22T19:32:36Z</DateUtc></FrequencyChange></FrequencyChanges></Clock>\n"	Arrow Flanker 2014-12474-1	60.016	1.0.0.100	1	285445587	Professional	2.0.10.353	2.0.10.353	09-22-2015	9/22/2015 7:32:36 PM	15:32:36	2.0.10.248	3	1	1	1	NA	NA	NA	NA	NA	NA	NA	NA	NA	NA	NA	NA	NA	NA	NA	NA	NA	NA	NA	NA	NA	NA	NA	NA	BlockProc	BlockList	NA	17	{RIGHTARROW}	NA	-100	1202	neutral	NA	NA	NA	NA	NA	NA	NA	NA	NA	NA	NA	NA	NA	NA	NA	NA	NA	NA	NA	NA	NA	NA	TrialProc	TrialList	0	20	449155	16	0	17	447472	666	1	{RIGHTARROW}	-999999	0	448638	0	{RIGHTARROW}	497	449135	NA	NA	right	ooroo.bmp	354	0	NA	0	0	0	0	NA	0	0	0	NA	0	0	0	0	NA	0	0	6	1	17
Arrow Flanker 2014	12474	1	"<?xml version=""1.0""?>\n<Clock xmlns:dt=""urn:schemas-microsoft-com:datatypes""><Description dt:dt=""string"">E-Prime Primary Realtime Clock</Description><StartTime><Timestamp dt:dt=""int"">0</Timestamp><DateUtc dt:dt=""string"">2015-09-22T19:32:36Z</DateUtc></StartTime><FrequencyChanges><FrequencyChange><Frequency dt:dt=""r8"">2825566</Frequency><Timestamp dt:dt=""r8"">27569679983842</Timestamp><Current dt:dt=""r8"">0</Current><DateUtc dt:dt=""string"">2015-09-22T19:32:36Z</DateUtc></FrequencyChange></FrequencyChanges></Clock>\n"	Arrow Flanker 2014-12474-1	60.016	1.0.0.100	1	285445587	Professional	2.0.10.353	2.0.10.353	09-22-2015	9/22/2015 7:32:36 PM	15:32:36	2.0.10.248	3	1	1	1	NA	NA	NA	NA	NA	NA	NA	NA	NA	NA	NA	NA	NA	NA	NA	NA	NA	NA	NA	NA	NA	NA	NA	NA	BlockProc	BlockList	NA	18	{LEFTARROW}	NA	-100	2401	incongruent	NA	NA	NA	NA	NA	NA	NA	NA	NA	NA	NA	NA	NA	NA	NA	NA	NA	NA	NA	NA	NA	NA	TrialProc	TrialList	1	9	452120	17	0	17	449688	1383	1	{LEFTARROW}	-999999	0	451571	0	{LEFTARROW}	540	452111	NA	NA	left	rrlrr.bmp	354	0	NA	0	0	0	0	NA	0	0	0	NA	0	0	0	0	NA	0	0	3	1	18
Arrow Flanker 2014	12474	1	"<?xml version=""1.0""?>\n<Clock xmlns:dt=""urn:schemas-microsoft-com:datatypes""><Description dt:dt=""string"">E-Prime Primary Realtime Clock</Description><StartTime><Timestamp dt:dt=""int"">0</Timestamp><DateUtc dt:dt=""string"">2015-09-22T19:32:36Z</DateUtc></StartTime><FrequencyChanges><FrequencyChange><Frequency dt:dt=""r8"">2825566</Frequency><Timestamp dt:dt=""r8"">27569679983842</Timestamp><Current dt:dt=""r8"">0</Current><DateUtc dt:dt=""string"">2015-09-22T19:32:36Z</DateUtc></FrequencyChange></FrequencyChanges></Clock>\n"	Arrow Flanker 2014-12474-1	60.016	1.0.0.100	1	285445587	Professional	2.0.10.353	2.0.10.353	09-22-2015	9/22/2015 7:32:36 PM	15:32:36	2.0.10.248	3	1	1	1	NA	NA	NA	NA	NA	NA	NA	NA	NA	NA	NA	NA	NA	NA	NA	NA	NA	NA	NA	NA	NA	NA	NA	NA	BlockProc	BlockList	NA	19	{RIGHTARROW}	NA	-100	1688	incongruent	NA	NA	NA	NA	NA	NA	NA	NA	NA	NA	NA	NA	NA	NA	NA	NA	NA	NA	NA	NA	NA	NA	TrialProc	TrialList	0	8	454903	17	0	17	452654	1166	1	{RIGHTARROW}	-999999	0	454320	0	{RIGHTARROW}	575	454895	NA	NA	right	llrll.bmp	354	0	NA	0	0	0	0	NA	0	0	0	NA	0	0	0	0	NA	0	0	4	1	19
Arrow Flanker 2014	12474	1	"<?xml version=""1.0""?>\n<Clock xmlns:dt=""urn:schemas-microsoft-com:datatypes""><Description dt:dt=""string"">E-Prime Primary Realtime Clock</Description><StartTime><Timestamp dt:dt=""int"">0</Timestamp><DateUtc dt:dt=""string"">2015-09-22T19:32:36Z</DateUtc></StartTime><FrequencyChanges><FrequencyChange><Frequency dt:dt=""r8"">2825566</Frequency><Timestamp dt:dt=""r8"">27569679983842</Timestamp><Current dt:dt=""r8"">0</Current><DateUtc dt:dt=""string"">2015-09-22T19:32:36Z</DateUtc></FrequencyChange></FrequencyChanges></Clock>\n"	Arrow Flanker 2014-12474-1	60.016	1.0.0.100	1	285445587	Professional	2.0.10.353	2.0.10.353	09-22-2015	9/22/2015 7:32:36 PM	15:32:36	2.0.10.248	3	1	1	1	NA	NA	NA	NA	NA	NA	NA	NA	NA	NA	NA	NA	NA	NA	NA	NA	NA	NA	NA	NA	NA	NA	NA	NA	BlockProc	BlockList	NA	20	{RIGHTARROW}	NA	-100	1536	neutral	NA	NA	NA	NA	NA	NA	NA	NA	NA	NA	NA	NA	NA	NA	NA	NA	NA	NA	NA	NA	NA	NA	TrialProc	TrialList	1	11	458202	17	0	16	455436	1367	1	{RIGHTARROW}	-999999	16	457319	0	{RIGHTARROW}	871	458190	NA	NA	right	ooroo.bmp	354	0	NA	0	0	0	0	NA	0	0	0	NA	0	0	0	0	NA	0	0	6	1	20
Arrow Flanker 2014	12474	1	"<?xml version=""1.0""?>\n<Clock xmlns:dt=""urn:schemas-microsoft-com:datatypes""><Description dt:dt=""string"">E-Prime Primary Realtime Clock</Description><StartTime><Timestamp dt:dt=""int"">0</Timestamp><DateUtc dt:dt=""string"">2015-09-22T19:32:36Z</DateUtc></StartTime><FrequencyChanges><FrequencyChange><Frequency dt:dt=""r8"">2825566</Frequency><Timestamp dt:dt=""r8"">27569679983842</Timestamp><Current dt:dt=""r8"">0</Current><DateUtc dt:dt=""string"">2015-09-22T19:32:36Z</DateUtc></FrequencyChange></FrequencyChanges></Clock>\n"	Arrow Flanker 2014-12474-1	60.016	1.0.0.100	1	285445587	Professional	2.0.10.353	2.0.10.353	09-22-2015	9/22/2015 7:32:36 PM	15:32:36	2.0.10.248	3	1	1	1	NA	NA	NA	NA	NA	NA	NA	NA	NA	NA	NA	NA	NA	NA	NA	NA	NA	NA	NA	NA	NA	NA	NA	NA	BlockProc	BlockList	NA	21	{LEFTARROW}	NA	-100	1142	incongruent	NA	NA	NA	NA	NA	NA	NA	NA	NA	NA	NA	NA	NA	NA	NA	NA	NA	NA	NA	NA	NA	NA	TrialProc	TrialList	0	6	460852	16	0	16	458735	1000	1	{LEFTARROW}	-999999	0	460235	0	{LEFTARROW}	611	460846	NA	NA	left	rrlrr.bmp	354	0	NA	0	0	0	0	NA	0	0	0	NA	0	0	0	0	NA	0	0	3	1	21
Arrow Flanker 2014	12474	1	"<?xml version=""1.0""?>\n<Clock xmlns:dt=""urn:schemas-microsoft-com:datatypes""><Description dt:dt=""string"">E-Prime Primary Realtime Clock</Description><StartTime><Timestamp dt:dt=""int"">0</Timestamp><DateUtc dt:dt=""string"">2015-09-22T19:32:36Z</DateUtc></StartTime><FrequencyChanges><FrequencyChange><Frequency dt:dt=""r8"">2825566</Frequency><Timestamp dt:dt=""r8"">27569679983842</Timestamp><Current dt:dt=""r8"">0</Current><DateUtc dt:dt=""string"">2015-09-22T19:32:36Z</DateUtc></FrequencyChange></FrequencyChanges></Clock>\n"	Arrow Flanker 2014-12474-1	60.016	1.0.0.100	1	285445587	Professional	2.0.10.353	2.0.10.353	09-22-2015	9/22/2015 7:32:36 PM	15:32:36	2.0.10.248	3	1	1	1	NA	NA	NA	NA	NA	NA	NA	NA	NA	NA	NA	NA	NA	NA	NA	NA	NA	NA	NA	NA	NA	NA	NA	NA	BlockProc	BlockList	NA	22	{LEFTARROW}	NA	-100	1697	congruent	NA	NA	NA	NA	NA	NA	NA	NA	NA	NA	NA	NA	NA	NA	NA	NA	NA	NA	NA	NA	3	1	TrialProc	TrialList	1	17	463184	17	0	17	461385	766	1	{LEFTARROW}	-999999	0	462651	0	{LEFTARROW}	515	463166	NA	NA	left	lllll.bmp	354	0	NA	-999999	16	463717	0	1	13425	477142	0	NA	-999999	21	477164	0	1	5746	482910	1	1	22
Arrow Flanker 2014	12474	1	"<?xml version=""1.0""?>\n<Clock xmlns:dt=""urn:schemas-microsoft-com:datatypes""><Description dt:dt=""string"">E-Prime Primary Realtime Clock</Description><StartTime><Timestamp dt:dt=""int"">0</Timestamp><DateUtc dt:dt=""string"">2015-09-22T19:32:36Z</DateUtc></StartTime><FrequencyChanges><FrequencyChange><Frequency dt:dt=""r8"">2825566</Frequency><Timestamp dt:dt=""r8"">27569679983842</Timestamp><Current dt:dt=""r8"">0</Current><DateUtc dt:dt=""string"">2015-09-22T19:32:36Z</DateUtc></FrequencyChange></FrequencyChanges></Clock>\n"	Arrow Flanker 2014-12474-1	60.016	1.0.0.100	1	285445587	Professional	2.0.10.353	2.0.10.353	09-22-2015	9/22/2015 7:32:36 PM	15:32:36	2.0.10.248	3	1	1	1	NA	NA	NA	NA	NA	NA	NA	NA	NA	NA	NA	NA	NA	NA	NA	NA	NA	NA	NA	NA	NA	NA	NA	NA	BlockProc	BlockList	NA	23	{RIGHTARROW}	NA	-100	1214	congruent	NA	NA	NA	NA	NA	NA	NA	NA	NA	NA	NA	NA	NA	NA	NA	NA	NA	NA	NA	NA	NA	NA	TrialProc	TrialList	1	14	487644	17	0	14	485228	1050	1	{RIGHTARROW}	-999999	0	486778	0	{RIGHTARROW}	852	487630	NA	NA	right	rrrrr.bmp	354	0	NA	0	0	0	0	NA	0	0	0	NA	0	0	0	0	NA	0	0	2	1	23
Arrow Flanker 2014	12474	1	"<?xml version=""1.0""?>\n<Clock xmlns:dt=""urn:schemas-microsoft-com:datatypes""><Description dt:dt=""string"">E-Prime Primary Realtime Clock</Description><StartTime><Timestamp dt:dt=""int"">0</Timestamp><DateUtc dt:dt=""string"">2015-09-22T19:32:36Z</DateUtc></StartTime><FrequencyChanges><FrequencyChange><Frequency dt:dt=""r8"">2825566</Frequency><Timestamp dt:dt=""r8"">27569679983842</Timestamp><Current dt:dt=""r8"">0</Current><DateUtc dt:dt=""string"">2015-09-22T19:32:36Z</DateUtc></FrequencyChange></FrequencyChanges></Clock>\n"	Arrow Flanker 2014-12474-1	60.016	1.0.0.100	1	285445587	Professional	2.0.10.353	2.0.10.353	09-22-2015	9/22/2015 7:32:36 PM	15:32:36	2.0.10.248	3	1	1	1	NA	NA	NA	NA	NA	NA	NA	NA	NA	NA	NA	NA	NA	NA	NA	NA	NA	NA	NA	NA	NA	NA	NA	NA	BlockProc	BlockList	NA	24	{LEFTARROW}	NA	-100	2243	incongruent	NA	NA	NA	NA	NA	NA	NA	NA	NA	NA	NA	NA	NA	NA	NA	NA	NA	NA	NA	NA	NA	NA	TrialProc	TrialList	0	9	490327	17	0	17	488178	1049	1	{LEFTARROW}	-999999	0	489727	0	{LEFTARROW}	591	490318	NA	NA	left	rrlrr.bmp	354	0	NA	0	0	0	0	NA	0	0	0	NA	0	0	0	0	NA	0	0	3	1	24
Arrow Flanker 2014	12474	1	"<?xml version=""1.0""?>\n<Clock xmlns:dt=""urn:schemas-microsoft-com:datatypes""><Description dt:dt=""string"">E-Prime Primary Realtime Clock</Description><StartTime><Timestamp dt:dt=""int"">0</Timestamp><DateUtc dt:dt=""string"">2015-09-22T19:32:36Z</DateUtc></StartTime><FrequencyChanges><FrequencyChange><Frequency dt:dt=""r8"">2825566</Frequency><Timestamp dt:dt=""r8"">27569679983842</Timestamp><Current dt:dt=""r8"">0</Current><DateUtc dt:dt=""string"">2015-09-22T19:32:36Z</DateUtc></FrequencyChange></FrequencyChanges></Clock>\n"	Arrow Flanker 2014-12474-1	60.016	1.0.0.100	1	285445587	Professional	2.0.10.353	2.0.10.353	09-22-2015	9/22/2015 7:32:36 PM	15:32:36	2.0.10.248	3	1	1	1	NA	NA	NA	NA	NA	NA	NA	NA	NA	NA	NA	NA	NA	NA	NA	NA	NA	NA	NA	NA	NA	NA	NA	NA	BlockProc	BlockList	NA	25	{RIGHTARROW}	NA	-100	2165	congruent	NA	NA	NA	NA	NA	NA	NA	NA	NA	NA	NA	NA	NA	NA	NA	NA	NA	NA	NA	NA	NA	NA	TrialProc	TrialList	0	8	493110	16	0	16	490860	1250	1	{RIGHTARROW}	-999999	0	492610	0	{RIGHTARROW}	492	493102	NA	NA	right	rrrrr.bmp	354	0	NA	0	0	0	0	NA	0	0	0	NA	0	0	0	0	NA	0	0	2	1	25
Arrow Flanker 2014	12474	1	"<?xml version=""1.0""?>\n<Clock xmlns:dt=""urn:schemas-microsoft-com:datatypes""><Description dt:dt=""string"">E-Prime Primary Realtime Clock</Description><StartTime><Timestamp dt:dt=""int"">0</Timestamp><DateUtc dt:dt=""string"">2015-09-22T19:32:36Z</DateUtc></StartTime><FrequencyChanges><FrequencyChange><Frequency dt:dt=""r8"">2825566</Frequency><Timestamp dt:dt=""r8"">27569679983842</Timestamp><Current dt:dt=""r8"">0</Current><DateUtc dt:dt=""string"">2015-09-22T19:32:36Z</DateUtc></FrequencyChange></FrequencyChanges></Clock>\n"	Arrow Flanker 2014-12474-1	60.016	1.0.0.100	1	285445587	Professional	2.0.10.353	2.0.10.353	09-22-2015	9/22/2015 7:32:36 PM	15:32:36	2.0.10.248	3	1	1	1	NA	NA	NA	NA	NA	NA	NA	NA	NA	NA	NA	NA	NA	NA	NA	NA	NA	NA	NA	NA	NA	NA	NA	NA	BlockProc	BlockList	NA	26	{LEFTARROW}	NA	-100	1574	incongruent	NA	NA	NA	NA	NA	NA	NA	NA	NA	NA	NA	NA	NA	NA	NA	NA	NA	NA	NA	NA	NA	NA	TrialProc	TrialList	0	19	495809	17	0	17	493643	0	1	{LEFTARROW}	-999999	16	495059	0	{LEFTARROW}	730	495789	NA	NA	left	rrlrr.bmp	354	0	NA	0	0	0	0	NA	0	0	0	NA	0	0	0	0	NA	0	0	3	1	26
Arrow Flanker 2014	12474	1	"<?xml version=""1.0""?>\n<Clock xmlns:dt=""urn:schemas-microsoft-com:datatypes""><Description dt:dt=""string"">E-Prime Primary Realtime Clock</Description><StartTime><Timestamp dt:dt=""int"">0</Timestamp><DateUtc dt:dt=""string"">2015-09-22T19:32:36Z</DateUtc></StartTime><FrequencyChanges><FrequencyChange><Frequency dt:dt=""r8"">2825566</Frequency><Timestamp dt:dt=""r8"">27569679983842</Timestamp><Current dt:dt=""r8"">0</Current><DateUtc dt:dt=""string"">2015-09-22T19:32:36Z</DateUtc></FrequencyChange></FrequencyChanges></Clock>\n"	Arrow Flanker 2014-12474-1	60.016	1.0.0.100	1	285445587	Professional	2.0.10.353	2.0.10.353	09-22-2015	9/22/2015 7:32:36 PM	15:32:36	2.0.10.248	3	1	1	1	NA	NA	NA	NA	NA	NA	NA	NA	NA	NA	NA	NA	NA	NA	NA	NA	NA	NA	NA	NA	NA	NA	NA	NA	BlockProc	BlockList	NA	27	{LEFTARROW}	NA	-100	1676	incongruent	NA	NA	NA	NA	NA	NA	NA	NA	NA	NA	NA	NA	NA	NA	NA	NA	NA	NA	NA	NA	NA	NA	TrialProc	TrialList	1	10	498008	17	0	16	496342	0	1	{LEFTARROW}	-999999	0	497492	0	{LEFTARROW}	505	497997	NA	NA	left	rrlrr.bmp	354	0	NA	0	0	0	0	NA	0	0	0	NA	0	0	0	0	NA	0	0	3	1	27
Arrow Flanker 2014	12474	1	"<?xml version=""1.0""?>\n<Clock xmlns:dt=""urn:schemas-microsoft-com:datatypes""><Description dt:dt=""string"">E-Prime Primary Realtime Clock</Description><StartTime><Timestamp dt:dt=""int"">0</Timestamp><DateUtc dt:dt=""string"">2015-09-22T19:32:36Z</DateUtc></StartTime><FrequencyChanges><FrequencyChange><Frequency dt:dt=""r8"">2825566</Frequency><Timestamp dt:dt=""r8"">27569679983842</Timestamp><Current dt:dt=""r8"">0</Current><DateUtc dt:dt=""string"">2015-09-22T19:32:36Z</DateUtc></FrequencyChange></FrequencyChanges></Clock>\n"	Arrow Flanker 2014-12474-1	60.016	1.0.0.100	1	285445587	Professional	2.0.10.353	2.0.10.353	09-22-2015	9/22/2015 7:32:36 PM	15:32:36	2.0.10.248	3	1	1	1	NA	NA	NA	NA	NA	NA	NA	NA	NA	NA	NA	NA	NA	NA	NA	NA	NA	NA	NA	NA	NA	NA	NA	NA	BlockProc	BlockList	NA	28	{RIGHTARROW}	NA	-100	1857	neutral	NA	NA	NA	NA	NA	NA	NA	NA	NA	NA	NA	NA	NA	NA	NA	NA	NA	NA	NA	NA	NA	NA	TrialProc	TrialList	1	17	500574	17	0	17	498542	0	1	{RIGHTARROW}	-999999	16	500041	0	{RIGHTARROW}	516	500557	NA	NA	right	ooroo.bmp	354	0	NA	0	0	0	0	NA	0	0	0	NA	0	0	0	0	NA	0	0	6	1	28
Arrow Flanker 2014	12474	1	"<?xml version=""1.0""?>\n<Clock xmlns:dt=""urn:schemas-microsoft-com:datatypes""><Description dt:dt=""string"">E-Prime Primary Realtime Clock</Description><StartTime><Timestamp dt:dt=""int"">0</Timestamp><DateUtc dt:dt=""string"">2015-09-22T19:32:36Z</DateUtc></StartTime><FrequencyChanges><FrequencyChange><Frequency dt:dt=""r8"">2825566</Frequency><Timestamp dt:dt=""r8"">27569679983842</Timestamp><Current dt:dt=""r8"">0</Current><DateUtc dt:dt=""string"">2015-09-22T19:32:36Z</DateUtc></FrequencyChange></FrequencyChanges></Clock>\n"	Arrow Flanker 2014-12474-1	60.016	1.0.0.100	1	285445587	Professional	2.0.10.353	2.0.10.353	09-22-2015	9/22/2015 7:32:36 PM	15:32:36	2.0.10.248	3	1	1	1	NA	NA	NA	NA	NA	NA	NA	NA	NA	NA	NA	NA	NA	NA	NA	NA	NA	NA	NA	NA	NA	NA	NA	NA	BlockProc	BlockList	NA	29	{RIGHTARROW}	NA	-100	1774	congruent	NA	NA	NA	NA	NA	NA	NA	NA	NA	NA	NA	NA	NA	NA	NA	NA	NA	NA	NA	NA	NA	NA	TrialProc	TrialList	1	8	503973	17	0	17	501108	0	1	{RIGHTARROW}	0	0	502657	0	{RIGHTARROW}	1308	503965	NA	NA	right	rrrrr.bmp	354	0	NA	0	0	0	0	NA	0	0	0	NA	0	0	0	0	NA	0	0	2	1	29
Arrow Flanker 2014	12474	1	"<?xml version=""1.0""?>\n<Clock xmlns:dt=""urn:schemas-microsoft-com:datatypes""><Description dt:dt=""string"">E-Prime Primary Realtime Clock</Description><StartTime><Timestamp dt:dt=""int"">0</Timestamp><DateUtc dt:dt=""string"">2015-09-22T19:32:36Z</DateUtc></StartTime><FrequencyChanges><FrequencyChange><Frequency dt:dt=""r8"">2825566</Frequency><Timestamp dt:dt=""r8"">27569679983842</Timestamp><Current dt:dt=""r8"">0</Current><DateUtc dt:dt=""string"">2015-09-22T19:32:36Z</DateUtc></FrequencyChange></FrequencyChanges></Clock>\n"	Arrow Flanker 2014-12474-1	60.016	1.0.0.100	1	285445587	Professional	2.0.10.353	2.0.10.353	09-22-2015	9/22/2015 7:32:36 PM	15:32:36	2.0.10.248	3	1	1	1	NA	NA	NA	NA	NA	NA	NA	NA	NA	NA	NA	NA	NA	NA	NA	NA	NA	NA	NA	NA	NA	NA	NA	NA	BlockProc	BlockList	NA	30	{RIGHTARROW}	NA	-100	1351	congruent	NA	NA	NA	NA	NA	NA	NA	NA	NA	NA	NA	NA	NA	NA	NA	NA	NA	NA	NA	NA	NA	NA	TrialProc	TrialList	1	18	506639	17	0	17	504507	0	1	{RIGHTARROW}	-999999	0	506040	0	{RIGHTARROW}	581	506621	NA	NA	right	rrrrr.bmp	354	0	NA	0	0	0	0	NA	0	0	0	NA	0	0	0	0	NA	0	0	2	1	30
Arrow Flanker 2014	12474	1	"<?xml version=""1.0""?>\n<Clock xmlns:dt=""urn:schemas-microsoft-com:datatypes""><Description dt:dt=""string"">E-Prime Primary Realtime Clock</Description><StartTime><Timestamp dt:dt=""int"">0</Timestamp><DateUtc dt:dt=""string"">2015-09-22T19:32:36Z</DateUtc></StartTime><FrequencyChanges><FrequencyChange><Frequency dt:dt=""r8"">2825566</Frequency><Timestamp dt:dt=""r8"">27569679983842</Timestamp><Current dt:dt=""r8"">0</Current><DateUtc dt:dt=""string"">2015-09-22T19:32:36Z</DateUtc></FrequencyChange></FrequencyChanges></Clock>\n"	Arrow Flanker 2014-12474-1	60.016	1.0.0.100	1	285445587	Professional	2.0.10.353	2.0.10.353	09-22-2015	9/22/2015 7:32:36 PM	15:32:36	2.0.10.248	3	1	1	1	NA	NA	NA	NA	NA	NA	NA	NA	NA	NA	NA	NA	NA	NA	NA	NA	NA	NA	NA	NA	NA	NA	NA	NA	BlockProc	BlockList	NA	31	{RIGHTARROW}	NA	-100	2144	neutral	NA	NA	NA	NA	NA	NA	NA	NA	NA	NA	NA	NA	NA	NA	NA	NA	NA	NA	NA	NA	NA	NA	TrialProc	TrialList	0	9	509222	17	0	17	507173	0	1	{RIGHTARROW}	-999999	-1	508755	0	{RIGHTARROW}	458	509213	NA	NA	right	ooroo.bmp	354	0	NA	0	0	0	0	NA	0	0	0	NA	0	0	0	0	NA	0	0	6	1	31
Arrow Flanker 2014	12474	1	"<?xml version=""1.0""?>\n<Clock xmlns:dt=""urn:schemas-microsoft-com:datatypes""><Description dt:dt=""string"">E-Prime Primary Realtime Clock</Description><StartTime><Timestamp dt:dt=""int"">0</Timestamp><DateUtc dt:dt=""string"">2015-09-22T19:32:36Z</DateUtc></StartTime><FrequencyChanges><FrequencyChange><Frequency dt:dt=""r8"">2825566</Frequency><Timestamp dt:dt=""r8"">27569679983842</Timestamp><Current dt:dt=""r8"">0</Current><DateUtc dt:dt=""string"">2015-09-22T19:32:36Z</DateUtc></FrequencyChange></FrequencyChanges></Clock>\n"	Arrow Flanker 2014-12474-1	60.016	1.0.0.100	1	285445587	Professional	2.0.10.353	2.0.10.353	09-22-2015	9/22/2015 7:32:36 PM	15:32:36	2.0.10.248	3	1	1	1	NA	NA	NA	NA	NA	NA	NA	NA	NA	NA	NA	NA	NA	NA	NA	NA	NA	NA	NA	NA	NA	NA	NA	NA	BlockProc	BlockList	NA	32	{RIGHTARROW}	NA	-100	1782	incongruent	NA	NA	NA	NA	NA	NA	NA	NA	NA	NA	NA	NA	NA	NA	NA	NA	NA	NA	NA	NA	NA	NA	TrialProc	TrialList	0	10	512055	16	0	16	509755	0	1	{RIGHTARROW}	-999999	16	511488	0	{RIGHTARROW}	557	512045	NA	NA	right	llrll.bmp	354	0	NA	0	0	0	0	NA	0	0	0	NA	0	0	0	0	NA	0	0	4	1	32
Arrow Flanker 2014	12474	1	"<?xml version=""1.0""?>\n<Clock xmlns:dt=""urn:schemas-microsoft-com:datatypes""><Description dt:dt=""string"">E-Prime Primary Realtime Clock</Description><StartTime><Timestamp dt:dt=""int"">0</Timestamp><DateUtc dt:dt=""string"">2015-09-22T19:32:36Z</DateUtc></StartTime><FrequencyChanges><FrequencyChange><Frequency dt:dt=""r8"">2825566</Frequency><Timestamp dt:dt=""r8"">27569679983842</Timestamp><Current dt:dt=""r8"">0</Current><DateUtc dt:dt=""string"">2015-09-22T19:32:36Z</DateUtc></FrequencyChange></FrequencyChanges></Clock>\n"	Arrow Flanker 2014-12474-1	60.016	1.0.0.100	1	285445587	Professional	2.0.10.353	2.0.10.353	09-22-2015	9/22/2015 7:32:36 PM	15:32:36	2.0.10.248	3	1	1	1	NA	NA	NA	NA	NA	NA	NA	NA	NA	NA	NA	NA	NA	NA	NA	NA	NA	NA	NA	NA	NA	NA	NA	NA	BlockProc	BlockList	NA	33	{RIGHTARROW}	NA	-100	1342	congruent	NA	NA	NA	NA	NA	NA	NA	NA	NA	NA	NA	NA	NA	NA	NA	NA	NA	NA	NA	NA	NA	NA	TrialProc	TrialList	0	12	514921	16	0	17	512588	0	1	{RIGHTARROW}	-999999	0	514287	0	{RIGHTARROW}	622	514909	NA	NA	right	rrrrr.bmp	354	0	NA	0	0	0	0	NA	0	0	0	NA	0	0	0	0	NA	0	0	2	1	33
Arrow Flanker 2014	12474	1	"<?xml version=""1.0""?>\n<Clock xmlns:dt=""urn:schemas-microsoft-com:datatypes""><Description dt:dt=""string"">E-Prime Primary Realtime Clock</Description><StartTime><Timestamp dt:dt=""int"">0</Timestamp><DateUtc dt:dt=""string"">2015-09-22T19:32:36Z</DateUtc></StartTime><FrequencyChanges><FrequencyChange><Frequency dt:dt=""r8"">2825566</Frequency><Timestamp dt:dt=""r8"">27569679983842</Timestamp><Current dt:dt=""r8"">0</Current><DateUtc dt:dt=""string"">2015-09-22T19:32:36Z</DateUtc></FrequencyChange></FrequencyChanges></Clock>\n"	Arrow Flanker 2014-12474-1	60.016	1.0.0.100	1	285445587	Professional	2.0.10.353	2.0.10.353	09-22-2015	9/22/2015 7:32:36 PM	15:32:36	2.0.10.248	3	1	1	1	NA	NA	NA	NA	NA	NA	NA	NA	NA	NA	NA	NA	NA	NA	NA	NA	NA	NA	NA	NA	NA	NA	NA	NA	BlockProc	BlockList	NA	34	{LEFTARROW}	NA	-100	1846	incongruent	NA	NA	NA	NA	NA	NA	NA	NA	NA	NA	NA	NA	NA	NA	NA	NA	NA	NA	NA	NA	NA	NA	TrialProc	TrialList	0	19	517520	17	0	17	515454	0	1	{LEFTARROW}	-999999	0	516653	0	{LEFTARROW}	848	517501	NA	NA	left	rrlrr.bmp	354	0	NA	0	0	0	0	NA	0	0	0	NA	0	0	0	0	NA	0	0	3	1	34
Arrow Flanker 2014	12474	1	"<?xml version=""1.0""?>\n<Clock xmlns:dt=""urn:schemas-microsoft-com:datatypes""><Description dt:dt=""string"">E-Prime Primary Realtime Clock</Description><StartTime><Timestamp dt:dt=""int"">0</Timestamp><DateUtc dt:dt=""string"">2015-09-22T19:32:36Z</DateUtc></StartTime><FrequencyChanges><FrequencyChange><Frequency dt:dt=""r8"">2825566</Frequency><Timestamp dt:dt=""r8"">27569679983842</Timestamp><Current dt:dt=""r8"">0</Current><DateUtc dt:dt=""string"">2015-09-22T19:32:36Z</DateUtc></FrequencyChange></FrequencyChanges></Clock>\n"	Arrow Flanker 2014-12474-1	60.016	1.0.0.100	1	285445587	Professional	2.0.10.353	2.0.10.353	09-22-2015	9/22/2015 7:32:36 PM	15:32:36	2.0.10.248	3	1	1	1	NA	NA	NA	NA	NA	NA	NA	NA	NA	NA	NA	NA	NA	NA	NA	NA	NA	NA	NA	NA	NA	NA	NA	NA	BlockProc	BlockList	NA	35	{LEFTARROW}	NA	-100	1392	congruent	NA	NA	NA	NA	NA	NA	NA	NA	NA	NA	NA	NA	NA	NA	NA	NA	NA	NA	NA	NA	NA	NA	TrialProc	TrialList	0	9	520086	17	0	16	518053	0	1	{LEFTARROW}	-999999	0	519203	0	{LEFTARROW}	874	520077	NA	NA	left	lllll.bmp	354	0	NA	0	0	0	0	NA	0	0	0	NA	0	0	0	0	NA	0	0	1	1	35
Arrow Flanker 2014	12474	1	"<?xml version=""1.0""?>\n<Clock xmlns:dt=""urn:schemas-microsoft-com:datatypes""><Description dt:dt=""string"">E-Prime Primary Realtime Clock</Description><StartTime><Timestamp dt:dt=""int"">0</Timestamp><DateUtc dt:dt=""string"">2015-09-22T19:32:36Z</DateUtc></StartTime><FrequencyChanges><FrequencyChange><Frequency dt:dt=""r8"">2825566</Frequency><Timestamp dt:dt=""r8"">27569679983842</Timestamp><Current dt:dt=""r8"">0</Current><DateUtc dt:dt=""string"">2015-09-22T19:32:36Z</DateUtc></FrequencyChange></FrequencyChanges></Clock>\n"	Arrow Flanker 2014-12474-1	60.016	1.0.0.100	1	285445587	Professional	2.0.10.353	2.0.10.353	09-22-2015	9/22/2015 7:32:36 PM	15:32:36	2.0.10.248	3	1	1	1	NA	NA	NA	NA	NA	NA	NA	NA	NA	NA	NA	NA	NA	NA	NA	NA	NA	NA	NA	NA	NA	NA	NA	NA	BlockProc	BlockList	NA	36	{RIGHTARROW}	NA	-100	1153	neutral	NA	NA	NA	NA	NA	NA	NA	NA	NA	NA	NA	NA	NA	NA	NA	NA	NA	NA	NA	NA	NA	NA	TrialProc	TrialList	0	15	522252	17	0	16	520619	0	1	{RIGHTARROW}	-999999	0	521602	0	{RIGHTARROW}	635	522237	NA	NA	right	ooroo.bmp	354	0	NA	0	0	0	0	NA	0	0	0	NA	0	0	0	0	NA	0	0	6	1	36
Arrow Flanker 2014	12474	1	"<?xml version=""1.0""?>\n<Clock xmlns:dt=""urn:schemas-microsoft-com:datatypes""><Description dt:dt=""string"">E-Prime Primary Realtime Clock</Description><StartTime><Timestamp dt:dt=""int"">0</Timestamp><DateUtc dt:dt=""string"">2015-09-22T19:32:36Z</DateUtc></StartTime><FrequencyChanges><FrequencyChange><Frequency dt:dt=""r8"">2825566</Frequency><Timestamp dt:dt=""r8"">27569679983842</Timestamp><Current dt:dt=""r8"">0</Current><DateUtc dt:dt=""string"">2015-09-22T19:32:36Z</DateUtc></FrequencyChange></FrequencyChanges></Clock>\n"	Arrow Flanker 2014-12474-1	60.016	1.0.0.100	1	285445587	Professional	2.0.10.353	2.0.10.353	09-22-2015	9/22/2015 7:32:36 PM	15:32:36	2.0.10.248	3	1	1	1	NA	NA	NA	NA	NA	NA	NA	NA	NA	NA	NA	NA	NA	NA	NA	NA	NA	NA	NA	NA	NA	NA	NA	NA	BlockProc	BlockList	NA	37	{LEFTARROW}	NA	-100	1928	congruent	NA	NA	NA	NA	NA	NA	NA	NA	NA	NA	NA	NA	NA	NA	NA	NA	NA	NA	NA	NA	1	NA	TrialProc	TrialList	0	18	525151	17	0	16	522785	0	1	{LEFTARROW}	-999999	0	524035	0	{LEFTARROW}	1098	525133	NA	NA	left	lllll.bmp	354	0	NA	-999999	16	525684	0	1	2681	528365	0	NA	0	0	0	0	NA	0	0	1	1	37
Arrow Flanker 2014	12474	1	"<?xml version=""1.0""?>\n<Clock xmlns:dt=""urn:schemas-microsoft-com:datatypes""><Description dt:dt=""string"">E-Prime Primary Realtime Clock</Description><StartTime><Timestamp dt:dt=""int"">0</Timestamp><DateUtc dt:dt=""string"">2015-09-22T19:32:36Z</DateUtc></StartTime><FrequencyChanges><FrequencyChange><Frequency dt:dt=""r8"">2825566</Frequency><Timestamp dt:dt=""r8"">27569679983842</Timestamp><Current dt:dt=""r8"">0</Current><DateUtc dt:dt=""string"">2015-09-22T19:32:36Z</DateUtc></FrequencyChange></FrequencyChanges></Clock>\n"	Arrow Flanker 2014-12474-1	60.016	1.0.0.100	1	285445587	Professional	2.0.10.353	2.0.10.353	09-22-2015	9/22/2015 7:32:36 PM	15:32:36	2.0.10.248	3	1	1	1	NA	NA	NA	NA	NA	NA	NA	NA	NA	NA	NA	NA	NA	NA	NA	NA	NA	NA	NA	NA	NA	NA	NA	NA	BlockProc	BlockList	NA	38	{LEFTARROW}	NA	-100	1069	neutral	NA	NA	NA	NA	NA	NA	NA	NA	NA	NA	NA	NA	NA	NA	NA	NA	NA	NA	NA	NA	NA	NA	TrialProc	TrialList	0	12	533849	16	0	28	531833	0	1	{LEFTARROW}	-999999	0	533066	0	{LEFTARROW}	770	533836	NA	NA	left	ooloo.bmp	354	0	NA	0	0	0	0	NA	0	0	0	NA	0	0	0	0	NA	0	0	5	1	38
Arrow Flanker 2014	12474	1	"<?xml version=""1.0""?>\n<Clock xmlns:dt=""urn:schemas-microsoft-com:datatypes""><Description dt:dt=""string"">E-Prime Primary Realtime Clock</Description><StartTime><Timestamp dt:dt=""int"">0</Timestamp><DateUtc dt:dt=""string"">2015-09-22T19:32:36Z</DateUtc></StartTime><FrequencyChanges><FrequencyChange><Frequency dt:dt=""r8"">2825566</Frequency><Timestamp dt:dt=""r8"">27569679983842</Timestamp><Current dt:dt=""r8"">0</Current><DateUtc dt:dt=""string"">2015-09-22T19:32:36Z</DateUtc></FrequencyChange></FrequencyChanges></Clock>\n"	Arrow Flanker 2014-12474-1	60.016	1.0.0.100	1	285445587	Professional	2.0.10.353	2.0.10.353	09-22-2015	9/22/2015 7:32:36 PM	15:32:36	2.0.10.248	3	1	1	1	NA	NA	NA	NA	NA	NA	NA	NA	NA	NA	NA	NA	NA	NA	NA	NA	NA	NA	NA	NA	NA	NA	NA	NA	BlockProc	BlockList	NA	39	{RIGHTARROW}	NA	-100	2054	neutral	NA	NA	NA	NA	NA	NA	NA	NA	NA	NA	NA	NA	NA	NA	NA	NA	NA	NA	NA	NA	NA	NA	TrialProc	TrialList	0	9	536598	17	0	17	534382	0	1	{RIGHTARROW}	-999999	0	536198	0	{RIGHTARROW}	390	536588	NA	NA	right	ooroo.bmp	354	0	NA	0	0	0	0	NA	0	0	0	NA	0	0	0	0	NA	0	0	6	1	39
Arrow Flanker 2014	12474	1	"<?xml version=""1.0""?>\n<Clock xmlns:dt=""urn:schemas-microsoft-com:datatypes""><Description dt:dt=""string"">E-Prime Primary Realtime Clock</Description><StartTime><Timestamp dt:dt=""int"">0</Timestamp><DateUtc dt:dt=""string"">2015-09-22T19:32:36Z</DateUtc></StartTime><FrequencyChanges><FrequencyChange><Frequency dt:dt=""r8"">2825566</Frequency><Timestamp dt:dt=""r8"">27569679983842</Timestamp><Current dt:dt=""r8"">0</Current><DateUtc dt:dt=""string"">2015-09-22T19:32:36Z</DateUtc></FrequencyChange></FrequencyChanges></Clock>\n"	Arrow Flanker 2014-12474-1	60.016	1.0.0.100	1	285445587	Professional	2.0.10.353	2.0.10.353	09-22-2015	9/22/2015 7:32:36 PM	15:32:36	2.0.10.248	3	1	1	1	NA	NA	NA	NA	NA	NA	NA	NA	NA	NA	NA	NA	NA	NA	NA	NA	NA	NA	NA	NA	NA	NA	NA	NA	BlockProc	BlockList	NA	40	{LEFTARROW}	NA	-100	1153	neutral	NA	NA	NA	NA	NA	NA	NA	NA	NA	NA	NA	NA	NA	NA	NA	NA	NA	NA	NA	NA	NA	NA	TrialProc	TrialList	0	0	540064	17	0	16	537131	0	0	{LEFTARROW}	0	0	538664	1400	NA	0	0	NA	NA	left	ooloo.bmp	354	0	NA	0	0	0	0	NA	0	0	0	NA	0	0	0	0	NA	0	0	5	1	40
Arrow Flanker 2014	12474	1	"<?xml version=""1.0""?>\n<Clock xmlns:dt=""urn:schemas-microsoft-com:datatypes""><Description dt:dt=""string"">E-Prime Primary Realtime Clock</Description><StartTime><Timestamp dt:dt=""int"">0</Timestamp><DateUtc dt:dt=""string"">2015-09-22T19:32:36Z</DateUtc></StartTime><FrequencyChanges><FrequencyChange><Frequency dt:dt=""r8"">2825566</Frequency><Timestamp dt:dt=""r8"">27569679983842</Timestamp><Current dt:dt=""r8"">0</Current><DateUtc dt:dt=""string"">2015-09-22T19:32:36Z</DateUtc></FrequencyChange></FrequencyChanges></Clock>\n"	Arrow Flanker 2014-12474-1	60.016	1.0.0.100	1	285445587	Professional	2.0.10.353	2.0.10.353	09-22-2015	9/22/2015 7:32:36 PM	15:32:36	2.0.10.248	3	1	1	1	NA	NA	NA	NA	NA	NA	NA	NA	NA	NA	NA	NA	NA	NA	NA	NA	NA	NA	NA	NA	NA	NA	NA	NA	BlockProc	BlockList	NA	41	{LEFTARROW}	NA	-100	1072	incongruent	NA	NA	NA	NA	NA	NA	NA	NA	NA	NA	NA	NA	NA	NA	NA	NA	NA	NA	NA	NA	NA	NA	TrialProc	TrialList	0	0	542980	16	0	16	540597	0	0	{LEFTARROW}	0	0	541580	1400	NA	0	0	NA	NA	left	rrlrr.bmp	354	0	NA	0	0	0	0	NA	0	0	0	NA	0	0	0	0	NA	0	0	3	1	41
Arrow Flanker 2014	12474	1	"<?xml version=""1.0""?>\n<Clock xmlns:dt=""urn:schemas-microsoft-com:datatypes""><Description dt:dt=""string"">E-Prime Primary Realtime Clock</Description><StartTime><Timestamp dt:dt=""int"">0</Timestamp><DateUtc dt:dt=""string"">2015-09-22T19:32:36Z</DateUtc></StartTime><FrequencyChanges><FrequencyChange><Frequency dt:dt=""r8"">2825566</Frequency><Timestamp dt:dt=""r8"">27569679983842</Timestamp><Current dt:dt=""r8"">0</Current><DateUtc dt:dt=""string"">2015-09-22T19:32:36Z</DateUtc></FrequencyChange></FrequencyChanges></Clock>\n"	Arrow Flanker 2014-12474-1	60.016	1.0.0.100	1	285445587	Professional	2.0.10.353	2.0.10.353	09-22-2015	9/22/2015 7:32:36 PM	15:32:36	2.0.10.248	3	1	1	1	NA	NA	NA	NA	NA	NA	NA	NA	NA	NA	NA	NA	NA	NA	NA	NA	NA	NA	NA	NA	NA	NA	NA	NA	BlockProc	BlockList	NA	42	{LEFTARROW}	NA	-100	2146	congruent	NA	NA	NA	NA	NA	NA	NA	NA	NA	NA	NA	NA	NA	NA	NA	NA	NA	NA	NA	NA	NA	NA	TrialProc	TrialList	0	10	545846	16	0	17	543513	0	1	{LEFTARROW}	-999999	0	545379	0	{LEFTARROW}	457	545836	NA	NA	left	lllll.bmp	354	0	NA	0	0	0	0	NA	0	0	0	NA	0	0	0	0	NA	0	0	1	1	42
Arrow Flanker 2014	12474	1	"<?xml version=""1.0""?>\n<Clock xmlns:dt=""urn:schemas-microsoft-com:datatypes""><Description dt:dt=""string"">E-Prime Primary Realtime Clock</Description><StartTime><Timestamp dt:dt=""int"">0</Timestamp><DateUtc dt:dt=""string"">2015-09-22T19:32:36Z</DateUtc></StartTime><FrequencyChanges><FrequencyChange><Frequency dt:dt=""r8"">2825566</Frequency><Timestamp dt:dt=""r8"">27569679983842</Timestamp><Current dt:dt=""r8"">0</Current><DateUtc dt:dt=""string"">2015-09-22T19:32:36Z</DateUtc></FrequencyChange></FrequencyChanges></Clock>\n"	Arrow Flanker 2014-12474-1	60.016	1.0.0.100	1	285445587	Professional	2.0.10.353	2.0.10.353	09-22-2015	9/22/2015 7:32:36 PM	15:32:36	2.0.10.248	3	1	1	1	NA	NA	NA	NA	NA	NA	NA	NA	NA	NA	NA	NA	NA	NA	NA	NA	NA	NA	NA	NA	NA	NA	NA	NA	BlockProc	BlockList	NA	43	{LEFTARROW}	NA	-100	1238	neutral	NA	NA	NA	NA	NA	NA	NA	NA	NA	NA	NA	NA	NA	NA	NA	NA	NA	NA	NA	NA	NA	NA	TrialProc	TrialList	0	9	548645	17	0	17	546379	0	1	{LEFTARROW}	-999999	0	548045	0	{LEFTARROW}	591	548636	NA	NA	left	ooloo.bmp	354	0	NA	0	0	0	0	NA	0	0	0	NA	0	0	0	0	NA	0	0	5	1	43
Arrow Flanker 2014	12474	1	"<?xml version=""1.0""?>\n<Clock xmlns:dt=""urn:schemas-microsoft-com:datatypes""><Description dt:dt=""string"">E-Prime Primary Realtime Clock</Description><StartTime><Timestamp dt:dt=""int"">0</Timestamp><DateUtc dt:dt=""string"">2015-09-22T19:32:36Z</DateUtc></StartTime><FrequencyChanges><FrequencyChange><Frequency dt:dt=""r8"">2825566</Frequency><Timestamp dt:dt=""r8"">27569679983842</Timestamp><Current dt:dt=""r8"">0</Current><DateUtc dt:dt=""string"">2015-09-22T19:32:36Z</DateUtc></FrequencyChange></FrequencyChanges></Clock>\n"	Arrow Flanker 2014-12474-1	60.016	1.0.0.100	1	285445587	Professional	2.0.10.353	2.0.10.353	09-22-2015	9/22/2015 7:32:36 PM	15:32:36	2.0.10.248	3	1	1	1	NA	NA	NA	NA	NA	NA	NA	NA	NA	NA	NA	NA	NA	NA	NA	NA	NA	NA	NA	NA	NA	NA	NA	NA	BlockProc	BlockList	NA	44	{LEFTARROW}	NA	-100	1819	congruent	NA	NA	NA	NA	NA	NA	NA	NA	NA	NA	NA	NA	NA	NA	NA	NA	NA	NA	NA	NA	NA	NA	TrialProc	TrialList	0	10	551078	16	0	16	549178	0	1	{LEFTARROW}	-999999	0	550478	0	{LEFTARROW}	590	551068	NA	NA	left	lllll.bmp	354	0	NA	0	0	0	0	NA	0	0	0	NA	0	0	0	0	NA	0	0	1	1	44
Arrow Flanker 2014	12474	1	"<?xml version=""1.0""?>\n<Clock xmlns:dt=""urn:schemas-microsoft-com:datatypes""><Description dt:dt=""string"">E-Prime Primary Realtime Clock</Description><StartTime><Timestamp dt:dt=""int"">0</Timestamp><DateUtc dt:dt=""string"">2015-09-22T19:32:36Z</DateUtc></StartTime><FrequencyChanges><FrequencyChange><Frequency dt:dt=""r8"">2825566</Frequency><Timestamp dt:dt=""r8"">27569679983842</Timestamp><Current dt:dt=""r8"">0</Current><DateUtc dt:dt=""string"">2015-09-22T19:32:36Z</DateUtc></FrequencyChange></FrequencyChanges></Clock>\n"	Arrow Flanker 2014-12474-1	60.016	1.0.0.100	1	285445587	Professional	2.0.10.353	2.0.10.353	09-22-2015	9/22/2015 7:32:36 PM	15:32:36	2.0.10.248	3	1	1	1	NA	NA	NA	NA	NA	NA	NA	NA	NA	NA	NA	NA	NA	NA	NA	NA	NA	NA	NA	NA	NA	NA	NA	NA	BlockProc	BlockList	NA	45	{RIGHTARROW}	NA	-100	1622	incongruent	NA	NA	NA	NA	NA	NA	NA	NA	NA	NA	NA	NA	NA	NA	NA	NA	NA	NA	NA	NA	NA	NA	TrialProc	TrialList	0	18	553694	16	0	17	551611	0	1	{RIGHTARROW}	-999999	0	553260	0	{RIGHTARROW}	416	553676	NA	NA	right	llrll.bmp	354	0	NA	0	0	0	0	NA	0	0	0	NA	0	0	0	0	NA	0	0	4	1	45
Arrow Flanker 2014	12474	1	"<?xml version=""1.0""?>\n<Clock xmlns:dt=""urn:schemas-microsoft-com:datatypes""><Description dt:dt=""string"">E-Prime Primary Realtime Clock</Description><StartTime><Timestamp dt:dt=""int"">0</Timestamp><DateUtc dt:dt=""string"">2015-09-22T19:32:36Z</DateUtc></StartTime><FrequencyChanges><FrequencyChange><Frequency dt:dt=""r8"">2825566</Frequency><Timestamp dt:dt=""r8"">27569679983842</Timestamp><Current dt:dt=""r8"">0</Current><DateUtc dt:dt=""string"">2015-09-22T19:32:36Z</DateUtc></FrequencyChange></FrequencyChanges></Clock>\n"	Arrow Flanker 2014-12474-1	60.016	1.0.0.100	1	285445587	Professional	2.0.10.353	2.0.10.353	09-22-2015	9/22/2015 7:32:36 PM	15:32:36	2.0.10.248	3	1	1	1	NA	NA	NA	NA	NA	NA	NA	NA	NA	NA	NA	NA	NA	NA	NA	NA	NA	NA	NA	NA	NA	NA	NA	NA	BlockProc	BlockList	NA	46	{LEFTARROW}	NA	-100	1805	neutral	NA	NA	NA	NA	NA	NA	NA	NA	NA	NA	NA	NA	NA	NA	NA	NA	NA	NA	NA	NA	NA	NA	TrialProc	TrialList	0	8	556260	16	0	17	554227	0	1	{LEFTARROW}	-999999	0	555843	0	{LEFTARROW}	409	556252	NA	NA	left	ooloo.bmp	354	0	NA	0	0	0	0	NA	0	0	0	NA	0	0	0	0	NA	0	0	5	1	46
Arrow Flanker 2014	12474	1	"<?xml version=""1.0""?>\n<Clock xmlns:dt=""urn:schemas-microsoft-com:datatypes""><Description dt:dt=""string"">E-Prime Primary Realtime Clock</Description><StartTime><Timestamp dt:dt=""int"">0</Timestamp><DateUtc dt:dt=""string"">2015-09-22T19:32:36Z</DateUtc></StartTime><FrequencyChanges><FrequencyChange><Frequency dt:dt=""r8"">2825566</Frequency><Timestamp dt:dt=""r8"">27569679983842</Timestamp><Current dt:dt=""r8"">0</Current><DateUtc dt:dt=""string"">2015-09-22T19:32:36Z</DateUtc></FrequencyChange></FrequencyChanges></Clock>\n"	Arrow Flanker 2014-12474-1	60.016	1.0.0.100	1	285445587	Professional	2.0.10.353	2.0.10.353	09-22-2015	9/22/2015 7:32:36 PM	15:32:36	2.0.10.248	3	1	1	1	NA	NA	NA	NA	NA	NA	NA	NA	NA	NA	NA	NA	NA	NA	NA	NA	NA	NA	NA	NA	NA	NA	NA	NA	BlockProc	BlockList	NA	47	{RIGHTARROW}	NA	-100	2313	congruent	NA	NA	NA	NA	NA	NA	NA	NA	NA	NA	NA	NA	NA	NA	NA	NA	NA	NA	NA	NA	NA	NA	TrialProc	TrialList	0	13	559209	16	0	17	556793	0	1	{RIGHTARROW}	-999999	0	558842	0	{RIGHTARROW}	354	559196	NA	NA	right	rrrrr.bmp	354	0	NA	0	0	0	0	NA	0	0	0	NA	0	0	0	0	NA	0	0	2	1	47
Arrow Flanker 2014	12474	1	"<?xml version=""1.0""?>\n<Clock xmlns:dt=""urn:schemas-microsoft-com:datatypes""><Description dt:dt=""string"">E-Prime Primary Realtime Clock</Description><StartTime><Timestamp dt:dt=""int"">0</Timestamp><DateUtc dt:dt=""string"">2015-09-22T19:32:36Z</DateUtc></StartTime><FrequencyChanges><FrequencyChange><Frequency dt:dt=""r8"">2825566</Frequency><Timestamp dt:dt=""r8"">27569679983842</Timestamp><Current dt:dt=""r8"">0</Current><DateUtc dt:dt=""string"">2015-09-22T19:32:36Z</DateUtc></FrequencyChange></FrequencyChanges></Clock>\n"	Arrow Flanker 2014-12474-1	60.016	1.0.0.100	1	285445587	Professional	2.0.10.353	2.0.10.353	09-22-2015	9/22/2015 7:32:36 PM	15:32:36	2.0.10.248	3	1	1	1	NA	NA	NA	NA	NA	NA	NA	NA	NA	NA	NA	NA	NA	NA	NA	NA	NA	NA	NA	NA	NA	NA	NA	NA	BlockProc	BlockList	NA	48	{LEFTARROW}	NA	-100	1918	neutral	NA	NA	NA	NA	NA	NA	NA	NA	NA	NA	NA	NA	NA	NA	NA	NA	NA	NA	NA	NA	NA	NA	TrialProc	TrialList	1	15	561691	17	0	17	559742	0	1	{LEFTARROW}	-999999	0	561275	0	{LEFTARROW}	401	561676	NA	NA	left	ooloo.bmp	354	0	NA	0	0	0	0	NA	0	0	0	NA	0	0	0	0	NA	0	0	5	1	48
Arrow Flanker 2014	12474	1	"<?xml version=""1.0""?>\n<Clock xmlns:dt=""urn:schemas-microsoft-com:datatypes""><Description dt:dt=""string"">E-Prime Primary Realtime Clock</Description><StartTime><Timestamp dt:dt=""int"">0</Timestamp><DateUtc dt:dt=""string"">2015-09-22T19:32:36Z</DateUtc></StartTime><FrequencyChanges><FrequencyChange><Frequency dt:dt=""r8"">2825566</Frequency><Timestamp dt:dt=""r8"">27569679983842</Timestamp><Current dt:dt=""r8"">0</Current><DateUtc dt:dt=""string"">2015-09-22T19:32:36Z</DateUtc></FrequencyChange></FrequencyChanges></Clock>\n"	Arrow Flanker 2014-12474-1	60.016	1.0.0.100	1	285445587	Professional	2.0.10.353	2.0.10.353	09-22-2015	9/22/2015 7:32:36 PM	15:32:36	2.0.10.248	3	1	1	1	NA	NA	NA	NA	NA	NA	NA	NA	NA	NA	NA	NA	NA	NA	NA	NA	NA	NA	NA	NA	NA	NA	NA	NA	BlockProc	BlockList	NA	49	{LEFTARROW}	NA	-100	1606	congruent	NA	NA	NA	NA	NA	NA	NA	NA	NA	NA	NA	NA	NA	NA	NA	NA	NA	NA	NA	NA	NA	NA	TrialProc	TrialList	0	8	564324	17	0	17	562225	0	1	{LEFTARROW}	-999999	0	563891	0	{LEFTARROW}	424	564315	NA	NA	left	lllll.bmp	354	0	NA	0	0	0	0	NA	0	0	0	NA	0	0	0	0	NA	0	0	1	1	49
Arrow Flanker 2014	12474	1	"<?xml version=""1.0""?>\n<Clock xmlns:dt=""urn:schemas-microsoft-com:datatypes""><Description dt:dt=""string"">E-Prime Primary Realtime Clock</Description><StartTime><Timestamp dt:dt=""int"">0</Timestamp><DateUtc dt:dt=""string"">2015-09-22T19:32:36Z</DateUtc></StartTime><FrequencyChanges><FrequencyChange><Frequency dt:dt=""r8"">2825566</Frequency><Timestamp dt:dt=""r8"">27569679983842</Timestamp><Current dt:dt=""r8"">0</Current><DateUtc dt:dt=""string"">2015-09-22T19:32:36Z</DateUtc></FrequencyChange></FrequencyChanges></Clock>\n"	Arrow Flanker 2014-12474-1	60.016	1.0.0.100	1	285445587	Professional	2.0.10.353	2.0.10.353	09-22-2015	9/22/2015 7:32:36 PM	15:32:36	2.0.10.248	3	1	1	1	NA	NA	NA	NA	NA	NA	NA	NA	NA	NA	NA	NA	NA	NA	NA	NA	NA	NA	NA	NA	NA	NA	NA	NA	BlockProc	BlockList	NA	50	{LEFTARROW}	NA	-100	745	neutral	NA	NA	NA	NA	NA	NA	NA	NA	NA	NA	NA	NA	NA	NA	NA	NA	NA	NA	NA	NA	NA	NA	TrialProc	TrialList	1	4	566640	17	0	16	564857	0	1	{LEFTARROW}	-999999	0	566074	0	{LEFTARROW}	561	566635	NA	NA	left	ooloo.bmp	354	0	NA	0	0	0	0	NA	0	0	0	NA	0	0	0	0	NA	0	0	5	1	50
Arrow Flanker 2014	12474	1	"<?xml version=""1.0""?>\n<Clock xmlns:dt=""urn:schemas-microsoft-com:datatypes""><Description dt:dt=""string"">E-Prime Primary Realtime Clock</Description><StartTime><Timestamp dt:dt=""int"">0</Timestamp><DateUtc dt:dt=""string"">2015-09-22T19:32:36Z</DateUtc></StartTime><FrequencyChanges><FrequencyChange><Frequency dt:dt=""r8"">2825566</Frequency><Timestamp dt:dt=""r8"">27569679983842</Timestamp><Current dt:dt=""r8"">0</Current><DateUtc dt:dt=""string"">2015-09-22T19:32:36Z</DateUtc></FrequencyChange></FrequencyChanges></Clock>\n"	Arrow Flanker 2014-12474-1	60.016	1.0.0.100	1	285445587	Professional	2.0.10.353	2.0.10.353	09-22-2015	9/22/2015 7:32:36 PM	15:32:36	2.0.10.248	3	1	1	1	NA	NA	NA	NA	NA	NA	NA	NA	NA	NA	NA	NA	NA	NA	NA	NA	NA	NA	NA	NA	NA	NA	NA	NA	BlockProc	BlockList	NA	51	{LEFTARROW}	NA	-100	646	neutral	NA	NA	NA	NA	NA	NA	NA	NA	NA	NA	NA	NA	NA	NA	NA	NA	NA	NA	NA	NA	NA	NA	TrialProc	TrialList	0	7	568723	17	0	16	567173	0	1	{LEFTARROW}	-999999	16	568273	0	{LEFTARROW}	442	568715	NA	NA	left	ooloo.bmp	354	0	NA	0	0	0	0	NA	0	0	0	NA	0	0	0	0	NA	0	0	5	1	51
Arrow Flanker 2014	12474	1	"<?xml version=""1.0""?>\n<Clock xmlns:dt=""urn:schemas-microsoft-com:datatypes""><Description dt:dt=""string"">E-Prime Primary Realtime Clock</Description><StartTime><Timestamp dt:dt=""int"">0</Timestamp><DateUtc dt:dt=""string"">2015-09-22T19:32:36Z</DateUtc></StartTime><FrequencyChanges><FrequencyChange><Frequency dt:dt=""r8"">2825566</Frequency><Timestamp dt:dt=""r8"">27569679983842</Timestamp><Current dt:dt=""r8"">0</Current><DateUtc dt:dt=""string"">2015-09-22T19:32:36Z</DateUtc></FrequencyChange></FrequencyChanges></Clock>\n"	Arrow Flanker 2014-12474-1	60.016	1.0.0.100	1	285445587	Professional	2.0.10.353	2.0.10.353	09-22-2015	9/22/2015 7:32:36 PM	15:32:36	2.0.10.248	3	1	1	1	NA	NA	NA	NA	NA	NA	NA	NA	NA	NA	NA	NA	NA	NA	NA	NA	NA	NA	NA	NA	NA	NA	NA	NA	BlockProc	BlockList	NA	52	{RIGHTARROW}	NA	-100	1677	congruent	NA	NA	NA	NA	NA	NA	NA	NA	NA	NA	NA	NA	NA	NA	NA	NA	NA	NA	NA	NA	NA	NA	TrialProc	TrialList	0	8	570756	16	0	16	569256	0	1	{RIGHTARROW}	-999999	0	570323	0	{RIGHTARROW}	424	570747	NA	NA	right	rrrrr.bmp	354	0	NA	0	0	0	0	NA	0	0	0	NA	0	0	0	0	NA	0	0	2	1	52
Arrow Flanker 2014	12474	1	"<?xml version=""1.0""?>\n<Clock xmlns:dt=""urn:schemas-microsoft-com:datatypes""><Description dt:dt=""string"">E-Prime Primary Realtime Clock</Description><StartTime><Timestamp dt:dt=""int"">0</Timestamp><DateUtc dt:dt=""string"">2015-09-22T19:32:36Z</DateUtc></StartTime><FrequencyChanges><FrequencyChange><Frequency dt:dt=""r8"">2825566</Frequency><Timestamp dt:dt=""r8"">27569679983842</Timestamp><Current dt:dt=""r8"">0</Current><DateUtc dt:dt=""string"">2015-09-22T19:32:36Z</DateUtc></FrequencyChange></FrequencyChanges></Clock>\n"	Arrow Flanker 2014-12474-1	60.016	1.0.0.100	1	285445587	Professional	2.0.10.353	2.0.10.353	09-22-2015	9/22/2015 7:32:36 PM	15:32:36	2.0.10.248	3	1	1	1	NA	NA	NA	NA	NA	NA	NA	NA	NA	NA	NA	NA	NA	NA	NA	NA	NA	NA	NA	NA	NA	NA	NA	NA	BlockProc	BlockList	NA	53	{LEFTARROW}	NA	-100	1335	neutral	NA	NA	NA	NA	NA	NA	NA	NA	NA	NA	NA	NA	NA	NA	NA	NA	NA	NA	NA	NA	NA	NA	TrialProc	TrialList	1	17	573005	17	0	17	571289	0	1	{LEFTARROW}	-999999	0	572639	0	{LEFTARROW}	348	572987	NA	NA	left	ooloo.bmp	354	0	NA	0	0	0	0	NA	0	0	0	NA	0	0	0	0	NA	0	0	5	1	53
Arrow Flanker 2014	12474	1	"<?xml version=""1.0""?>\n<Clock xmlns:dt=""urn:schemas-microsoft-com:datatypes""><Description dt:dt=""string"">E-Prime Primary Realtime Clock</Description><StartTime><Timestamp dt:dt=""int"">0</Timestamp><DateUtc dt:dt=""string"">2015-09-22T19:32:36Z</DateUtc></StartTime><FrequencyChanges><FrequencyChange><Frequency dt:dt=""r8"">2825566</Frequency><Timestamp dt:dt=""r8"">27569679983842</Timestamp><Current dt:dt=""r8"">0</Current><DateUtc dt:dt=""string"">2015-09-22T19:32:36Z</DateUtc></FrequencyChange></FrequencyChanges></Clock>\n"	Arrow Flanker 2014-12474-1	60.016	1.0.0.100	1	285445587	Professional	2.0.10.353	2.0.10.353	09-22-2015	9/22/2015 7:32:36 PM	15:32:36	2.0.10.248	3	1	1	1	NA	NA	NA	NA	NA	NA	NA	NA	NA	NA	NA	NA	NA	NA	NA	NA	NA	NA	NA	NA	NA	NA	NA	NA	BlockProc	BlockList	NA	54	{LEFTARROW}	NA	-100	1574	incongruent	NA	NA	NA	NA	NA	NA	NA	NA	NA	NA	NA	NA	NA	NA	NA	NA	NA	NA	NA	NA	2	2	TrialProc	TrialList	1	9	576004	17	0	16	573538	0	1	{LEFTARROW}	-999999	0	575405	0	{LEFTARROW}	590	575995	NA	NA	left	rrlrr.bmp	354	0	NA	-999999	17	576538	0	1	2106	578644	0	NA	-999999	10	578654	0	1	1990	580644	3	1	54
Arrow Flanker 2014	12474	1	"<?xml version=""1.0""?>\n<Clock xmlns:dt=""urn:schemas-microsoft-com:datatypes""><Description dt:dt=""string"">E-Prime Primary Realtime Clock</Description><StartTime><Timestamp dt:dt=""int"">0</Timestamp><DateUtc dt:dt=""string"">2015-09-22T19:32:36Z</DateUtc></StartTime><FrequencyChanges><FrequencyChange><Frequency dt:dt=""r8"">2825566</Frequency><Timestamp dt:dt=""r8"">27569679983842</Timestamp><Current dt:dt=""r8"">0</Current><DateUtc dt:dt=""string"">2015-09-22T19:32:36Z</DateUtc></FrequencyChange></FrequencyChanges></Clock>\n"	Arrow Flanker 2014-12474-1	60.016	1.0.0.100	1	285445587	Professional	2.0.10.353	2.0.10.353	09-22-2015	9/22/2015 7:32:36 PM	15:32:36	2.0.10.248	3	1	1	1	NA	NA	NA	NA	NA	NA	NA	NA	NA	NA	NA	NA	NA	NA	NA	NA	NA	NA	NA	NA	NA	NA	NA	NA	BlockProc	BlockList	NA	55	{RIGHTARROW}	NA	-100	2155	neutral	NA	NA	NA	NA	NA	NA	NA	NA	NA	NA	NA	NA	NA	NA	NA	NA	NA	NA	NA	NA	NA	NA	TrialProc	TrialList	1	18	585485	17	0	29	583336	0	1	{RIGHTARROW}	-999999	0	585085	0	{RIGHTARROW}	382	585467	NA	NA	right	ooroo.bmp	354	0	NA	0	0	0	0	NA	0	0	0	NA	0	0	0	0	NA	0	0	6	1	55
Arrow Flanker 2014	12474	1	"<?xml version=""1.0""?>\n<Clock xmlns:dt=""urn:schemas-microsoft-com:datatypes""><Description dt:dt=""string"">E-Prime Primary Realtime Clock</Description><StartTime><Timestamp dt:dt=""int"">0</Timestamp><DateUtc dt:dt=""string"">2015-09-22T19:32:36Z</DateUtc></StartTime><FrequencyChanges><FrequencyChange><Frequency dt:dt=""r8"">2825566</Frequency><Timestamp dt:dt=""r8"">27569679983842</Timestamp><Current dt:dt=""r8"">0</Current><DateUtc dt:dt=""string"">2015-09-22T19:32:36Z</DateUtc></FrequencyChange></FrequencyChanges></Clock>\n"	Arrow Flanker 2014-12474-1	60.016	1.0.0.100	1	285445587	Professional	2.0.10.353	2.0.10.353	09-22-2015	9/22/2015 7:32:36 PM	15:32:36	2.0.10.248	3	1	1	1	NA	NA	NA	NA	NA	NA	NA	NA	NA	NA	NA	NA	NA	NA	NA	NA	NA	NA	NA	NA	NA	NA	NA	NA	BlockProc	BlockList	NA	56	{LEFTARROW}	NA	-100	1672	congruent	NA	NA	NA	NA	NA	NA	NA	NA	NA	NA	NA	NA	NA	NA	NA	NA	NA	NA	NA	NA	NA	NA	TrialProc	TrialList	0	18	587885	16	0	16	586018	0	1	{LEFTARROW}	-999999	0	587468	0	{LEFTARROW}	399	587867	NA	NA	left	lllll.bmp	354	0	NA	0	0	0	0	NA	0	0	0	NA	0	0	0	0	NA	0	0	1	1	56
Arrow Flanker 2014	12474	1	"<?xml version=""1.0""?>\n<Clock xmlns:dt=""urn:schemas-microsoft-com:datatypes""><Description dt:dt=""string"">E-Prime Primary Realtime Clock</Description><StartTime><Timestamp dt:dt=""int"">0</Timestamp><DateUtc dt:dt=""string"">2015-09-22T19:32:36Z</DateUtc></StartTime><FrequencyChanges><FrequencyChange><Frequency dt:dt=""r8"">2825566</Frequency><Timestamp dt:dt=""r8"">27569679983842</Timestamp><Current dt:dt=""r8"">0</Current><DateUtc dt:dt=""string"">2015-09-22T19:32:36Z</DateUtc></FrequencyChange></FrequencyChanges></Clock>\n"	Arrow Flanker 2014-12474-1	60.016	1.0.0.100	1	285445587	Professional	2.0.10.353	2.0.10.353	09-22-2015	9/22/2015 7:32:36 PM	15:32:36	2.0.10.248	3	1	1	1	NA	NA	NA	NA	NA	NA	NA	NA	NA	NA	NA	NA	NA	NA	NA	NA	NA	NA	NA	NA	NA	NA	NA	NA	BlockProc	BlockList	NA	57	{RIGHTARROW}	NA	-100	1737	incongruent	NA	NA	NA	NA	NA	NA	NA	NA	NA	NA	NA	NA	NA	NA	NA	NA	NA	NA	NA	NA	NA	NA	TrialProc	TrialList	0	10	590101	16	0	17	588418	0	1	{RIGHTARROW}	-999999	0	589601	0	{RIGHTARROW}	490	590091	NA	NA	right	llrll.bmp	354	0	NA	0	0	0	0	NA	0	0	0	NA	0	0	0	0	NA	0	0	4	1	57
Arrow Flanker 2014	12474	1	"<?xml version=""1.0""?>\n<Clock xmlns:dt=""urn:schemas-microsoft-com:datatypes""><Description dt:dt=""string"">E-Prime Primary Realtime Clock</Description><StartTime><Timestamp dt:dt=""int"">0</Timestamp><DateUtc dt:dt=""string"">2015-09-22T19:32:36Z</DateUtc></StartTime><FrequencyChanges><FrequencyChange><Frequency dt:dt=""r8"">2825566</Frequency><Timestamp dt:dt=""r8"">27569679983842</Timestamp><Current dt:dt=""r8"">0</Current><DateUtc dt:dt=""string"">2015-09-22T19:32:36Z</DateUtc></FrequencyChange></FrequencyChanges></Clock>\n"	Arrow Flanker 2014-12474-1	60.016	1.0.0.100	1	285445587	Professional	2.0.10.353	2.0.10.353	09-22-2015	9/22/2015 7:32:36 PM	15:32:36	2.0.10.248	3	1	1	1	NA	NA	NA	NA	NA	NA	NA	NA	NA	NA	NA	NA	NA	NA	NA	NA	NA	NA	NA	NA	NA	NA	NA	NA	BlockProc	BlockList	NA	58	{RIGHTARROW}	NA	-100	1970	incongruent	NA	NA	NA	NA	NA	NA	NA	NA	NA	NA	NA	NA	NA	NA	NA	NA	NA	NA	NA	NA	NA	NA	TrialProc	TrialList	1	10	592933	17	0	17	590634	0	1	{RIGHTARROW}	-999999	0	592467	0	{RIGHTARROW}	456	592923	NA	NA	right	llrll.bmp	354	0	NA	0	0	0	0	NA	0	0	0	NA	0	0	0	0	NA	0	0	4	1	58
Arrow Flanker 2014	12474	1	"<?xml version=""1.0""?>\n<Clock xmlns:dt=""urn:schemas-microsoft-com:datatypes""><Description dt:dt=""string"">E-Prime Primary Realtime Clock</Description><StartTime><Timestamp dt:dt=""int"">0</Timestamp><DateUtc dt:dt=""string"">2015-09-22T19:32:36Z</DateUtc></StartTime><FrequencyChanges><FrequencyChange><Frequency dt:dt=""r8"">2825566</Frequency><Timestamp dt:dt=""r8"">27569679983842</Timestamp><Current dt:dt=""r8"">0</Current><DateUtc dt:dt=""string"">2015-09-22T19:32:36Z</DateUtc></FrequencyChange></FrequencyChanges></Clock>\n"	Arrow Flanker 2014-12474-1	60.016	1.0.0.100	1	285445587	Professional	2.0.10.353	2.0.10.353	09-22-2015	9/22/2015 7:32:36 PM	15:32:36	2.0.10.248	3	1	1	1	NA	NA	NA	NA	NA	NA	NA	NA	NA	NA	NA	NA	NA	NA	NA	NA	NA	NA	NA	NA	NA	NA	NA	NA	BlockProc	BlockList	NA	59	{RIGHTARROW}	NA	-100	939	incongruent	NA	NA	NA	NA	NA	NA	NA	NA	NA	NA	NA	NA	NA	NA	NA	NA	NA	NA	NA	NA	NA	NA	TrialProc	TrialList	1	18	595149	17	0	16	593466	0	1	{RIGHTARROW}	-999999	16	594666	0	{RIGHTARROW}	465	595131	NA	NA	right	llrll.bmp	354	0	NA	0	0	0	0	NA	0	0	0	NA	0	0	0	0	NA	0	0	4	1	59
Arrow Flanker 2014	12474	1	"<?xml version=""1.0""?>\n<Clock xmlns:dt=""urn:schemas-microsoft-com:datatypes""><Description dt:dt=""string"">E-Prime Primary Realtime Clock</Description><StartTime><Timestamp dt:dt=""int"">0</Timestamp><DateUtc dt:dt=""string"">2015-09-22T19:32:36Z</DateUtc></StartTime><FrequencyChanges><FrequencyChange><Frequency dt:dt=""r8"">2825566</Frequency><Timestamp dt:dt=""r8"">27569679983842</Timestamp><Current dt:dt=""r8"">0</Current><DateUtc dt:dt=""string"">2015-09-22T19:32:36Z</DateUtc></FrequencyChange></FrequencyChanges></Clock>\n"	Arrow Flanker 2014-12474-1	60.016	1.0.0.100	1	285445587	Professional	2.0.10.353	2.0.10.353	09-22-2015	9/22/2015 7:32:36 PM	15:32:36	2.0.10.248	3	1	1	1	NA	NA	NA	NA	NA	NA	NA	NA	NA	NA	NA	NA	NA	NA	NA	NA	NA	NA	NA	NA	NA	NA	NA	NA	BlockProc	BlockList	NA	60	{LEFTARROW}	NA	-100	1694	incongruent	NA	NA	NA	NA	NA	NA	NA	NA	NA	NA	NA	NA	NA	NA	NA	NA	NA	NA	NA	NA	NA	NA	TrialProc	TrialList	0	5	597616	16	0	17	595683	0	1	{LEFTARROW}	-999999	0	597099	0	{LEFTARROW}	512	597611	NA	NA	left	rrlrr.bmp	354	0	NA	0	0	0	0	NA	0	0	0	NA	0	0	0	0	NA	0	0	3	1	60
Arrow Flanker 2014	12474	1	"<?xml version=""1.0""?>\n<Clock xmlns:dt=""urn:schemas-microsoft-com:datatypes""><Description dt:dt=""string"">E-Prime Primary Realtime Clock</Description><StartTime><Timestamp dt:dt=""int"">0</Timestamp><DateUtc dt:dt=""string"">2015-09-22T19:32:36Z</DateUtc></StartTime><FrequencyChanges><FrequencyChange><Frequency dt:dt=""r8"">2825566</Frequency><Timestamp dt:dt=""r8"">27569679983842</Timestamp><Current dt:dt=""r8"">0</Current><DateUtc dt:dt=""string"">2015-09-22T19:32:36Z</DateUtc></FrequencyChange></FrequencyChanges></Clock>\n"	Arrow Flanker 2014-12474-1	60.016	1.0.0.100	1	285445587	Professional	2.0.10.353	2.0.10.353	09-22-2015	9/22/2015 7:32:36 PM	15:32:36	2.0.10.248	3	1	1	1	NA	NA	NA	NA	NA	NA	NA	NA	NA	NA	NA	NA	NA	NA	NA	NA	NA	NA	NA	NA	NA	NA	NA	NA	BlockProc	BlockList	NA	61	{LEFTARROW}	NA	-100	1221	congruent	NA	NA	NA	NA	NA	NA	NA	NA	NA	NA	NA	NA	NA	NA	NA	NA	NA	NA	NA	NA	NA	NA	TrialProc	TrialList	1	8	600131	17	0	17	598149	0	1	{LEFTARROW}	-999999	-1	599631	0	{LEFTARROW}	492	600123	NA	NA	left	lllll.bmp	354	0	NA	0	0	0	0	NA	0	0	0	NA	0	0	0	0	NA	0	0	1	1	61
Arrow Flanker 2014	12474	1	"<?xml version=""1.0""?>\n<Clock xmlns:dt=""urn:schemas-microsoft-com:datatypes""><Description dt:dt=""string"">E-Prime Primary Realtime Clock</Description><StartTime><Timestamp dt:dt=""int"">0</Timestamp><DateUtc dt:dt=""string"">2015-09-22T19:32:36Z</DateUtc></StartTime><FrequencyChanges><FrequencyChange><Frequency dt:dt=""r8"">2825566</Frequency><Timestamp dt:dt=""r8"">27569679983842</Timestamp><Current dt:dt=""r8"">0</Current><DateUtc dt:dt=""string"">2015-09-22T19:32:36Z</DateUtc></FrequencyChange></FrequencyChanges></Clock>\n"	Arrow Flanker 2014-12474-1	60.016	1.0.0.100	1	285445587	Professional	2.0.10.353	2.0.10.353	09-22-2015	9/22/2015 7:32:36 PM	15:32:36	2.0.10.248	3	1	1	1	NA	NA	NA	NA	NA	NA	NA	NA	NA	NA	NA	NA	NA	NA	NA	NA	NA	NA	NA	NA	NA	NA	NA	NA	BlockProc	BlockList	NA	62	{RIGHTARROW}	NA	-100	1064	congruent	NA	NA	NA	NA	NA	NA	NA	NA	NA	NA	NA	NA	NA	NA	NA	NA	NA	NA	NA	NA	NA	NA	TrialProc	TrialList	0	18	602381	16	0	17	600665	0	1	{RIGHTARROW}	-999999	0	601964	0	{RIGHTARROW}	399	602363	NA	NA	right	rrrrr.bmp	354	0	NA	0	0	0	0	NA	0	0	0	NA	0	0	0	0	NA	0	0	2	1	62
Arrow Flanker 2014	12474	1	"<?xml version=""1.0""?>\n<Clock xmlns:dt=""urn:schemas-microsoft-com:datatypes""><Description dt:dt=""string"">E-Prime Primary Realtime Clock</Description><StartTime><Timestamp dt:dt=""int"">0</Timestamp><DateUtc dt:dt=""string"">2015-09-22T19:32:36Z</DateUtc></StartTime><FrequencyChanges><FrequencyChange><Frequency dt:dt=""r8"">2825566</Frequency><Timestamp dt:dt=""r8"">27569679983842</Timestamp><Current dt:dt=""r8"">0</Current><DateUtc dt:dt=""string"">2015-09-22T19:32:36Z</DateUtc></FrequencyChange></FrequencyChanges></Clock>\n"	Arrow Flanker 2014-12474-1	60.016	1.0.0.100	1	285445587	Professional	2.0.10.353	2.0.10.353	09-22-2015	9/22/2015 7:32:36 PM	15:32:36	2.0.10.248	3	1	1	1	NA	NA	NA	NA	NA	NA	NA	NA	NA	NA	NA	NA	NA	NA	NA	NA	NA	NA	NA	NA	NA	NA	NA	NA	BlockProc	BlockList	NA	63	{RIGHTARROW}	NA	-100	1733	neutral	NA	NA	NA	NA	NA	NA	NA	NA	NA	NA	NA	NA	NA	NA	NA	NA	NA	NA	NA	NA	NA	NA	TrialProc	TrialList	0	15	604730	17	0	17	602914	0	1	{RIGHTARROW}	-999999	0	604197	0	{RIGHTARROW}	518	604715	NA	NA	right	ooroo.bmp	354	0	NA	0	0	0	0	NA	0	0	0	NA	0	0	0	0	NA	0	0	6	1	63
Arrow Flanker 2014	12474	1	"<?xml version=""1.0""?>\n<Clock xmlns:dt=""urn:schemas-microsoft-com:datatypes""><Description dt:dt=""string"">E-Prime Primary Realtime Clock</Description><StartTime><Timestamp dt:dt=""int"">0</Timestamp><DateUtc dt:dt=""string"">2015-09-22T19:32:36Z</DateUtc></StartTime><FrequencyChanges><FrequencyChange><Frequency dt:dt=""r8"">2825566</Frequency><Timestamp dt:dt=""r8"">27569679983842</Timestamp><Current dt:dt=""r8"">0</Current><DateUtc dt:dt=""string"">2015-09-22T19:32:36Z</DateUtc></FrequencyChange></FrequencyChanges></Clock>\n"	Arrow Flanker 2014-12474-1	60.016	1.0.0.100	1	285445587	Professional	2.0.10.353	2.0.10.353	09-22-2015	9/22/2015 7:32:36 PM	15:32:36	2.0.10.248	3	1	1	1	NA	NA	NA	NA	NA	NA	NA	NA	NA	NA	NA	NA	NA	NA	NA	NA	NA	NA	NA	NA	NA	NA	NA	NA	BlockProc	BlockList	NA	64	{RIGHTARROW}	NA	-100	932	neutral	NA	NA	NA	NA	NA	NA	NA	NA	NA	NA	NA	NA	NA	NA	NA	NA	NA	NA	NA	NA	NA	NA	TrialProc	TrialList	1	11	606646	17	0	16	605263	0	1	{RIGHTARROW}	-999999	0	606196	0	{RIGHTARROW}	438	606634	NA	NA	right	ooroo.bmp	354	0	NA	0	0	0	0	NA	0	0	0	NA	0	0	0	0	NA	0	0	6	1	64
Arrow Flanker 2014	12474	1	"<?xml version=""1.0""?>\n<Clock xmlns:dt=""urn:schemas-microsoft-com:datatypes""><Description dt:dt=""string"">E-Prime Primary Realtime Clock</Description><StartTime><Timestamp dt:dt=""int"">0</Timestamp><DateUtc dt:dt=""string"">2015-09-22T19:32:36Z</DateUtc></StartTime><FrequencyChanges><FrequencyChange><Frequency dt:dt=""r8"">2825566</Frequency><Timestamp dt:dt=""r8"">27569679983842</Timestamp><Current dt:dt=""r8"">0</Current><DateUtc dt:dt=""string"">2015-09-22T19:32:36Z</DateUtc></FrequencyChange></FrequencyChanges></Clock>\n"	Arrow Flanker 2014-12474-1	60.016	1.0.0.100	1	285445587	Professional	2.0.10.353	2.0.10.353	09-22-2015	9/22/2015 7:32:36 PM	15:32:36	2.0.10.248	3	1	1	1	NA	NA	NA	NA	NA	NA	NA	NA	NA	NA	NA	NA	NA	NA	NA	NA	NA	NA	NA	NA	NA	NA	NA	NA	BlockProc	BlockList	NA	65	{RIGHTARROW}	NA	-100	1927	congruent	NA	NA	NA	NA	NA	NA	NA	NA	NA	NA	NA	NA	NA	NA	NA	NA	NA	NA	NA	NA	NA	NA	TrialProc	TrialList	1	17	609212	17	0	17	607180	0	1	{RIGHTARROW}	-999999	0	608829	0	{RIGHTARROW}	365	609194	NA	NA	right	rrrrr.bmp	354	0	NA	0	0	0	0	NA	0	0	0	NA	0	0	0	0	NA	0	0	2	1	65
Arrow Flanker 2014	12474	1	"<?xml version=""1.0""?>\n<Clock xmlns:dt=""urn:schemas-microsoft-com:datatypes""><Description dt:dt=""string"">E-Prime Primary Realtime Clock</Description><StartTime><Timestamp dt:dt=""int"">0</Timestamp><DateUtc dt:dt=""string"">2015-09-22T19:32:36Z</DateUtc></StartTime><FrequencyChanges><FrequencyChange><Frequency dt:dt=""r8"">2825566</Frequency><Timestamp dt:dt=""r8"">27569679983842</Timestamp><Current dt:dt=""r8"">0</Current><DateUtc dt:dt=""string"">2015-09-22T19:32:36Z</DateUtc></FrequencyChange></FrequencyChanges></Clock>\n"	Arrow Flanker 2014-12474-1	60.016	1.0.0.100	1	285445587	Professional	2.0.10.353	2.0.10.353	09-22-2015	9/22/2015 7:32:36 PM	15:32:36	2.0.10.248	3	1	1	1	NA	NA	NA	NA	NA	NA	NA	NA	NA	NA	NA	NA	NA	NA	NA	NA	NA	NA	NA	NA	NA	NA	NA	NA	BlockProc	BlockList	NA	66	{RIGHTARROW}	NA	-100	2017	neutral	NA	NA	NA	NA	NA	NA	NA	NA	NA	NA	NA	NA	NA	NA	NA	NA	NA	NA	NA	NA	NA	NA	TrialProc	TrialList	0	8	612195	17	0	17	609746	0	1	{RIGHTARROW}	-999999	0	611778	0	{RIGHTARROW}	408	612186	NA	NA	right	ooroo.bmp	354	0	NA	0	0	0	0	NA	0	0	0	NA	0	0	0	0	NA	0	0	6	1	66
Arrow Flanker 2014	12474	1	"<?xml version=""1.0""?>\n<Clock xmlns:dt=""urn:schemas-microsoft-com:datatypes""><Description dt:dt=""string"">E-Prime Primary Realtime Clock</Description><StartTime><Timestamp dt:dt=""int"">0</Timestamp><DateUtc dt:dt=""string"">2015-09-22T19:32:36Z</DateUtc></StartTime><FrequencyChanges><FrequencyChange><Frequency dt:dt=""r8"">2825566</Frequency><Timestamp dt:dt=""r8"">27569679983842</Timestamp><Current dt:dt=""r8"">0</Current><DateUtc dt:dt=""string"">2015-09-22T19:32:36Z</DateUtc></FrequencyChange></FrequencyChanges></Clock>\n"	Arrow Flanker 2014-12474-1	60.016	1.0.0.100	1	285445587	Professional	2.0.10.353	2.0.10.353	09-22-2015	9/22/2015 7:32:36 PM	15:32:36	2.0.10.248	3	1	1	1	NA	NA	NA	NA	NA	NA	NA	NA	NA	NA	NA	NA	NA	NA	NA	NA	NA	NA	NA	NA	NA	NA	NA	NA	BlockProc	BlockList	NA	67	{RIGHTARROW}	NA	-100	1242	congruent	NA	NA	NA	NA	NA	NA	NA	NA	NA	NA	NA	NA	NA	NA	NA	NA	NA	NA	NA	NA	NA	NA	TrialProc	TrialList	0	14	614744	17	0	16	612728	0	1	{RIGHTARROW}	-999999	0	614328	0	{RIGHTARROW}	402	614730	NA	NA	right	rrrrr.bmp	354	0	NA	0	0	0	0	NA	0	0	0	NA	0	0	0	0	NA	0	0	2	1	67
Arrow Flanker 2014	12474	1	"<?xml version=""1.0""?>\n<Clock xmlns:dt=""urn:schemas-microsoft-com:datatypes""><Description dt:dt=""string"">E-Prime Primary Realtime Clock</Description><StartTime><Timestamp dt:dt=""int"">0</Timestamp><DateUtc dt:dt=""string"">2015-09-22T19:32:36Z</DateUtc></StartTime><FrequencyChanges><FrequencyChange><Frequency dt:dt=""r8"">2825566</Frequency><Timestamp dt:dt=""r8"">27569679983842</Timestamp><Current dt:dt=""r8"">0</Current><DateUtc dt:dt=""string"">2015-09-22T19:32:36Z</DateUtc></FrequencyChange></FrequencyChanges></Clock>\n"	Arrow Flanker 2014-12474-1	60.016	1.0.0.100	1	285445587	Professional	2.0.10.353	2.0.10.353	09-22-2015	9/22/2015 7:32:36 PM	15:32:36	2.0.10.248	3	1	1	1	NA	NA	NA	NA	NA	NA	NA	NA	NA	NA	NA	NA	NA	NA	NA	NA	NA	NA	NA	NA	NA	NA	NA	NA	BlockProc	BlockList	NA	68	{RIGHTARROW}	NA	-100	1854	incongruent	NA	NA	NA	NA	NA	NA	NA	NA	NA	NA	NA	NA	NA	NA	NA	NA	NA	NA	NA	NA	NA	NA	TrialProc	TrialList	0	6	617760	17	0	16	615277	0	1	{RIGHTARROW}	-999999	0	616994	0	{RIGHTARROW}	760	617754	NA	NA	right	llrll.bmp	354	0	NA	0	0	0	0	NA	0	0	0	NA	0	0	0	0	NA	0	0	4	1	68
Arrow Flanker 2014	12474	1	"<?xml version=""1.0""?>\n<Clock xmlns:dt=""urn:schemas-microsoft-com:datatypes""><Description dt:dt=""string"">E-Prime Primary Realtime Clock</Description><StartTime><Timestamp dt:dt=""int"">0</Timestamp><DateUtc dt:dt=""string"">2015-09-22T19:32:36Z</DateUtc></StartTime><FrequencyChanges><FrequencyChange><Frequency dt:dt=""r8"">2825566</Frequency><Timestamp dt:dt=""r8"">27569679983842</Timestamp><Current dt:dt=""r8"">0</Current><DateUtc dt:dt=""string"">2015-09-22T19:32:36Z</DateUtc></FrequencyChange></FrequencyChanges></Clock>\n"	Arrow Flanker 2014-12474-1	60.016	1.0.0.100	1	285445587	Professional	2.0.10.353	2.0.10.353	09-22-2015	9/22/2015 7:32:36 PM	15:32:36	2.0.10.248	3	1	1	1	NA	NA	NA	NA	NA	NA	NA	NA	NA	NA	NA	NA	NA	NA	NA	NA	NA	NA	NA	NA	NA	NA	NA	NA	BlockProc	BlockList	NA	69	{RIGHTARROW}	NA	-100	1144	neutral	NA	NA	NA	NA	NA	NA	NA	NA	NA	NA	NA	NA	NA	NA	NA	NA	NA	NA	NA	NA	NA	NA	TrialProc	TrialList	0	19	620093	16	0	16	618293	0	1	{RIGHTARROW}	-999999	0	619676	0	{RIGHTARROW}	398	620074	NA	NA	right	ooroo.bmp	354	0	NA	0	0	0	0	NA	0	0	0	NA	0	0	0	0	NA	0	0	6	1	69
Arrow Flanker 2014	12474	1	"<?xml version=""1.0""?>\n<Clock xmlns:dt=""urn:schemas-microsoft-com:datatypes""><Description dt:dt=""string"">E-Prime Primary Realtime Clock</Description><StartTime><Timestamp dt:dt=""int"">0</Timestamp><DateUtc dt:dt=""string"">2015-09-22T19:32:36Z</DateUtc></StartTime><FrequencyChanges><FrequencyChange><Frequency dt:dt=""r8"">2825566</Frequency><Timestamp dt:dt=""r8"">27569679983842</Timestamp><Current dt:dt=""r8"">0</Current><DateUtc dt:dt=""string"">2015-09-22T19:32:36Z</DateUtc></FrequencyChange></FrequencyChanges></Clock>\n"	Arrow Flanker 2014-12474-1	60.016	1.0.0.100	1	285445587	Professional	2.0.10.353	2.0.10.353	09-22-2015	9/22/2015 7:32:36 PM	15:32:36	2.0.10.248	3	1	1	1	NA	NA	NA	NA	NA	NA	NA	NA	NA	NA	NA	NA	NA	NA	NA	NA	NA	NA	NA	NA	NA	NA	NA	NA	BlockProc	BlockList	NA	70	{RIGHTARROW}	NA	-100	2572	congruent	NA	NA	NA	NA	NA	NA	NA	NA	NA	NA	NA	NA	NA	NA	NA	NA	NA	NA	NA	NA	1	NA	TrialProc	TrialList	1	21	622975	17	0	17	620626	0	1	{RIGHTARROW}	-999999	0	622542	0	{RIGHTARROW}	412	622954	NA	NA	right	rrrrr.bmp	354	0	NA	-999999	16	623508	0	1	1926	625434	0	NA	0	0	0	0	NA	0	0	2	1	70
Arrow Flanker 2014	12474	1	"<?xml version=""1.0""?>\n<Clock xmlns:dt=""urn:schemas-microsoft-com:datatypes""><Description dt:dt=""string"">E-Prime Primary Realtime Clock</Description><StartTime><Timestamp dt:dt=""int"">0</Timestamp><DateUtc dt:dt=""string"">2015-09-22T19:32:36Z</DateUtc></StartTime><FrequencyChanges><FrequencyChange><Frequency dt:dt=""r8"">2825566</Frequency><Timestamp dt:dt=""r8"">27569679983842</Timestamp><Current dt:dt=""r8"">0</Current><DateUtc dt:dt=""string"">2015-09-22T19:32:36Z</DateUtc></FrequencyChange></FrequencyChanges></Clock>\n"	Arrow Flanker 2014-12474-1	60.016	1.0.0.100	1	285445587	Professional	2.0.10.353	2.0.10.353	09-22-2015	9/22/2015 7:32:36 PM	15:32:36	2.0.10.248	3	1	1	1	NA	NA	NA	NA	NA	NA	NA	NA	NA	NA	NA	NA	NA	NA	NA	NA	NA	NA	NA	NA	NA	NA	NA	NA	BlockProc	BlockList	NA	71	{RIGHTARROW}	NA	-100	1839	congruent	NA	NA	NA	NA	NA	NA	NA	NA	NA	NA	NA	NA	NA	NA	NA	NA	NA	NA	NA	NA	NA	NA	TrialProc	TrialList	1	19	628157	17	0	28	626374	0	1	{RIGHTARROW}	-999999	0	627691	0	{RIGHTARROW}	447	628138	NA	NA	right	rrrrr.bmp	354	0	NA	0	0	0	0	NA	0	0	0	NA	0	0	0	0	NA	0	0	2	1	71
Arrow Flanker 2014	12474	1	"<?xml version=""1.0""?>\n<Clock xmlns:dt=""urn:schemas-microsoft-com:datatypes""><Description dt:dt=""string"">E-Prime Primary Realtime Clock</Description><StartTime><Timestamp dt:dt=""int"">0</Timestamp><DateUtc dt:dt=""string"">2015-09-22T19:32:36Z</DateUtc></StartTime><FrequencyChanges><FrequencyChange><Frequency dt:dt=""r8"">2825566</Frequency><Timestamp dt:dt=""r8"">27569679983842</Timestamp><Current dt:dt=""r8"">0</Current><DateUtc dt:dt=""string"">2015-09-22T19:32:36Z</DateUtc></FrequencyChange></FrequencyChanges></Clock>\n"	Arrow Flanker 2014-12474-1	60.016	1.0.0.100	1	285445587	Professional	2.0.10.353	2.0.10.353	09-22-2015	9/22/2015 7:32:36 PM	15:32:36	2.0.10.248	3	1	1	1	NA	NA	NA	NA	NA	NA	NA	NA	NA	NA	NA	NA	NA	NA	NA	NA	NA	NA	NA	NA	NA	NA	NA	NA	BlockProc	BlockList	NA	72	{LEFTARROW}	NA	-100	1986	congruent	NA	NA	NA	NA	NA	NA	NA	NA	NA	NA	NA	NA	NA	NA	NA	NA	NA	NA	NA	NA	NA	NA	TrialProc	TrialList	1	15	630473	17	0	17	628691	0	1	{LEFTARROW}	-999999	0	630040	0	{LEFTARROW}	418	630458	NA	NA	left	lllll.bmp	354	0	NA	0	0	0	0	NA	0	0	0	NA	0	0	0	0	NA	0	0	1	1	72
