ExperimentName	Subject	Session	Clock.Information	DataFile.Basename	Display.RefreshRate	ExperimentVersion	Group	RandomSeed	RuntimeCapabilities	RuntimeVersion	RuntimeVersionExpected	SessionDate	SessionStartDateTimeUtc	SessionTime	StudioVersion	Block	BlockList	BlockList.Cycle	BlockList.Sample	Both	CompletelyMW	CongMeanRT	CongTotal	Fragmented	GoodByeList	GoodByeList.Cycle	GoodByeList.Sample	IncongMeanRT	IncongTotal	MapBlockList	MapBlockList.Cycle	MapBlockList.Sample	Mindwandering	MostlyMW	MostlyOT	NeutralMeanRT	NeutralTotal	NumberProbes1	NumberProbes2	OnTask	PracBlockList	PracBlockList.Cycle	PracBlockList.Sample	Procedure[Block]	Running[Block]	Sequential	Trial	CorrectAnswer	CuePositionY	CuePositionY2	DurationOfFixation	FlankerType	MapTrialList	MapTrialList.Cycle	MapTrialList.Sample	PracSlideFixationStart.DurationError	PracSlideFixationStart.OnsetDelay	PracSlideFixationStart.OnsetTime	PracSlideFixationStart.OnsetToOnsetTime	PracSlideTarget.ACC	PracSlideTarget.CRESP	PracSlideTarget.DurationError	PracSlideTarget.OnsetDelay	PracSlideTarget.OnsetTime	PracSlideTarget.OnsetToOnsetTime	PracSlideTarget.RESP	PracSlideTarget.RT	PracSlideTarget.RTTime	PracSlideTarget.Tag	PracTrialList	PracTrialList.Cycle	PracTrialList.Sample	Probe1Resp	Probe2Resp	Procedure[Trial]	Running[Trial]	SlideFixationEnd.DurationError	SlideFixationEnd.OnsetDelay	SlideFixationEnd.OnsetTime	SlideFixationEnd.OnsetToOnsetTime	SlideFixationStart.DurationError	SlideFixationStart.OnsetDelay	SlideFixationStart.OnsetTime	SlideFixationStart.OnsetToOnsetTime	SlideTarget.ACC	SlideTarget.CRESP	SlideTarget.DurationError	SlideTarget.OnsetDelay	SlideTarget.OnsetTime	SlideTarget.OnsetToOnsetTime	SlideTarget.RESP	SlideTarget.RT	SlideTarget.RTTime	SlideTarget.Tag	TargerDirection	TargetDirection	TargetImage	TargetPosition	ThoughtProbe1.ACC	ThoughtProbe1.CRESP	ThoughtProbe1.DurationError	ThoughtProbe1.OnsetDelay	ThoughtProbe1.OnsetTime	ThoughtProbe1.OnsetToOnsetTime	ThoughtProbe1.RESP	ThoughtProbe1.RT	ThoughtProbe1.RTTime	ThoughtProbe2.ACC	ThoughtProbe2.CRESP	ThoughtProbe2.DurationError	ThoughtProbe2.OnsetDelay	ThoughtProbe2.OnsetTime	ThoughtProbe2.OnsetToOnsetTime	ThoughtProbe2.RESP	ThoughtProbe2.RT	ThoughtProbe2.RTTime	TrialList	TrialList.Cycle	TrialList.Sample
Arrow Flanker 2014	12488	1	"<?xml version=""1.0""?>\n<Clock xmlns:dt=""urn:schemas-microsoft-com:datatypes""><Description dt:dt=""string"">E-Prime Primary Realtime Clock</Description><StartTime><Timestamp dt:dt=""int"">0</Timestamp><DateUtc dt:dt=""string"">2015-10-05T17:01:17Z</DateUtc></StartTime><FrequencyChanges><FrequencyChange><Frequency dt:dt=""r8"">2825556</Frequency><Timestamp dt:dt=""r8"">2534450371825</Timestamp><Current dt:dt=""r8"">0</Current><DateUtc dt:dt=""string"">2015-10-05T17:01:17Z</DateUtc></FrequencyChange></FrequencyChanges></Clock>\n"	Arrow Flanker 2014-12488-1	60.016	1.0.0.100	1	420224566	Professional	2.0.10.353	2.0.10.353	10-05-2015	10/5/2015 5:01:17 PM	13:01:17	2.0.10.248	1	NA	NA	NA	NA	NA	NA	NA	NA	NA	NA	NA	NA	NA	1	1	1	NA	NA	NA	NA	NA	NA	NA	NA	NA	NA	NA	MapBlockProc	MapBlockList	NA	1	{LEFTARROW}	-100	NA	917	NA	1	1	1	0	12	92277	917	1	{LEFTARROW}	-999999	0	93694	0	{LEFTARROW}	827	94521	NA	NA	NA	NA	NA	NA	MapTrialProc	MapTrialList	NA	NA	NA	NA	NA	NA	NA	NA	NA	NA	NA	NA	NA	NA	NA	NA	NA	NA	left	NA	L.bmp	354	NA	NA	NA	NA	NA	NA	NA	NA	NA	NA	NA	NA	NA	NA	NA	NA	NA	NA	NA	NA	NA
Arrow Flanker 2014	12488	1	"<?xml version=""1.0""?>\n<Clock xmlns:dt=""urn:schemas-microsoft-com:datatypes""><Description dt:dt=""string"">E-Prime Primary Realtime Clock</Description><StartTime><Timestamp dt:dt=""int"">0</Timestamp><DateUtc dt:dt=""string"">2015-10-05T17:01:17Z</DateUtc></StartTime><FrequencyChanges><FrequencyChange><Frequency dt:dt=""r8"">2825556</Frequency><Timestamp dt:dt=""r8"">2534450371825</Timestamp><Current dt:dt=""r8"">0</Current><DateUtc dt:dt=""string"">2015-10-05T17:01:17Z</DateUtc></FrequencyChange></FrequencyChanges></Clock>\n"	Arrow Flanker 2014-12488-1	60.016	1.0.0.100	1	420224566	Professional	2.0.10.353	2.0.10.353	10-05-2015	10/5/2015 5:01:17 PM	13:01:17	2.0.10.248	1	NA	NA	NA	NA	NA	NA	NA	NA	NA	NA	NA	NA	NA	1	1	1	NA	NA	NA	NA	NA	NA	NA	NA	NA	NA	NA	MapBlockProc	MapBlockList	NA	2	{LEFTARROW}	-100	NA	741	NA	1	1	2	0	16	96060	750	1	{LEFTARROW}	-999999	16	97326	0	{LEFTARROW}	507	97833	NA	NA	NA	NA	NA	NA	MapTrialProc	MapTrialList	NA	NA	NA	NA	NA	NA	NA	NA	NA	NA	NA	NA	NA	NA	NA	NA	NA	NA	left	NA	L.bmp	354	NA	NA	NA	NA	NA	NA	NA	NA	NA	NA	NA	NA	NA	NA	NA	NA	NA	NA	NA	NA	NA
Arrow Flanker 2014	12488	1	"<?xml version=""1.0""?>\n<Clock xmlns:dt=""urn:schemas-microsoft-com:datatypes""><Description dt:dt=""string"">E-Prime Primary Realtime Clock</Description><StartTime><Timestamp dt:dt=""int"">0</Timestamp><DateUtc dt:dt=""string"">2015-10-05T17:01:17Z</DateUtc></StartTime><FrequencyChanges><FrequencyChange><Frequency dt:dt=""r8"">2825556</Frequency><Timestamp dt:dt=""r8"">2534450371825</Timestamp><Current dt:dt=""r8"">0</Current><DateUtc dt:dt=""string"">2015-10-05T17:01:17Z</DateUtc></FrequencyChange></FrequencyChanges></Clock>\n"	Arrow Flanker 2014-12488-1	60.016	1.0.0.100	1	420224566	Professional	2.0.10.353	2.0.10.353	10-05-2015	10/5/2015 5:01:17 PM	13:01:17	2.0.10.248	1	NA	NA	NA	NA	NA	NA	NA	NA	NA	NA	NA	NA	NA	1	1	1	NA	NA	NA	NA	NA	NA	NA	NA	NA	NA	NA	MapBlockProc	MapBlockList	NA	3	{LEFTARROW}	-100	NA	1136	NA	1	1	3	0	17	99376	1149	1	{LEFTARROW}	-999999	0	101025	0	{LEFTARROW}	424	101449	NA	NA	NA	NA	NA	NA	MapTrialProc	MapTrialList	NA	NA	NA	NA	NA	NA	NA	NA	NA	NA	NA	NA	NA	NA	NA	NA	NA	NA	left	NA	L.bmp	354	NA	NA	NA	NA	NA	NA	NA	NA	NA	NA	NA	NA	NA	NA	NA	NA	NA	NA	NA	NA	NA
Arrow Flanker 2014	12488	1	"<?xml version=""1.0""?>\n<Clock xmlns:dt=""urn:schemas-microsoft-com:datatypes""><Description dt:dt=""string"">E-Prime Primary Realtime Clock</Description><StartTime><Timestamp dt:dt=""int"">0</Timestamp><DateUtc dt:dt=""string"">2015-10-05T17:01:17Z</DateUtc></StartTime><FrequencyChanges><FrequencyChange><Frequency dt:dt=""r8"">2825556</Frequency><Timestamp dt:dt=""r8"">2534450371825</Timestamp><Current dt:dt=""r8"">0</Current><DateUtc dt:dt=""string"">2015-10-05T17:01:17Z</DateUtc></FrequencyChange></FrequencyChanges></Clock>\n"	Arrow Flanker 2014-12488-1	60.016	1.0.0.100	1	420224566	Professional	2.0.10.353	2.0.10.353	10-05-2015	10/5/2015 5:01:17 PM	13:01:17	2.0.10.248	1	NA	NA	NA	NA	NA	NA	NA	NA	NA	NA	NA	NA	NA	1	1	1	NA	NA	NA	NA	NA	NA	NA	NA	NA	NA	NA	MapBlockProc	MapBlockList	NA	4	{RIGHTARROW}	-100	NA	852	NA	2	1	4	0	16	102991	867	1	{RIGHTARROW}	-999999	0	104358	0	{RIGHTARROW}	339	104697	NA	NA	NA	NA	NA	NA	MapTrialProc	MapTrialList	NA	NA	NA	NA	NA	NA	NA	NA	NA	NA	NA	NA	NA	NA	NA	NA	NA	NA	right	NA	R.bmp	354	NA	NA	NA	NA	NA	NA	NA	NA	NA	NA	NA	NA	NA	NA	NA	NA	NA	NA	NA	NA	NA
Arrow Flanker 2014	12488	1	"<?xml version=""1.0""?>\n<Clock xmlns:dt=""urn:schemas-microsoft-com:datatypes""><Description dt:dt=""string"">E-Prime Primary Realtime Clock</Description><StartTime><Timestamp dt:dt=""int"">0</Timestamp><DateUtc dt:dt=""string"">2015-10-05T17:01:17Z</DateUtc></StartTime><FrequencyChanges><FrequencyChange><Frequency dt:dt=""r8"">2825556</Frequency><Timestamp dt:dt=""r8"">2534450371825</Timestamp><Current dt:dt=""r8"">0</Current><DateUtc dt:dt=""string"">2015-10-05T17:01:17Z</DateUtc></FrequencyChange></FrequencyChanges></Clock>\n"	Arrow Flanker 2014-12488-1	60.016	1.0.0.100	1	420224566	Professional	2.0.10.353	2.0.10.353	10-05-2015	10/5/2015 5:01:17 PM	13:01:17	2.0.10.248	1	NA	NA	NA	NA	NA	NA	NA	NA	NA	NA	NA	NA	NA	1	1	1	NA	NA	NA	NA	NA	NA	NA	NA	NA	NA	NA	MapBlockProc	MapBlockList	NA	5	{RIGHTARROW}	-100	NA	1236	NA	2	1	5	0	16	106224	1250	1	{RIGHTARROW}	-999999	0	107973	0	{RIGHTARROW}	500	108473	NA	NA	NA	NA	NA	NA	MapTrialProc	MapTrialList	NA	NA	NA	NA	NA	NA	NA	NA	NA	NA	NA	NA	NA	NA	NA	NA	NA	NA	right	NA	R.bmp	354	NA	NA	NA	NA	NA	NA	NA	NA	NA	NA	NA	NA	NA	NA	NA	NA	NA	NA	NA	NA	NA
Arrow Flanker 2014	12488	1	"<?xml version=""1.0""?>\n<Clock xmlns:dt=""urn:schemas-microsoft-com:datatypes""><Description dt:dt=""string"">E-Prime Primary Realtime Clock</Description><StartTime><Timestamp dt:dt=""int"">0</Timestamp><DateUtc dt:dt=""string"">2015-10-05T17:01:17Z</DateUtc></StartTime><FrequencyChanges><FrequencyChange><Frequency dt:dt=""r8"">2825556</Frequency><Timestamp dt:dt=""r8"">2534450371825</Timestamp><Current dt:dt=""r8"">0</Current><DateUtc dt:dt=""string"">2015-10-05T17:01:17Z</DateUtc></FrequencyChange></FrequencyChanges></Clock>\n"	Arrow Flanker 2014-12488-1	60.016	1.0.0.100	1	420224566	Professional	2.0.10.353	2.0.10.353	10-05-2015	10/5/2015 5:01:17 PM	13:01:17	2.0.10.248	1	NA	NA	NA	NA	NA	NA	NA	NA	NA	NA	NA	NA	NA	1	1	1	NA	NA	NA	NA	NA	NA	NA	NA	NA	NA	NA	MapBlockProc	MapBlockList	NA	6	{LEFTARROW}	-100	NA	521	NA	1	1	6	0	16	110006	533	1	{LEFTARROW}	-999999	0	111039	0	{LEFTARROW}	506	111545	NA	NA	NA	NA	NA	NA	MapTrialProc	MapTrialList	NA	NA	NA	NA	NA	NA	NA	NA	NA	NA	NA	NA	NA	NA	NA	NA	NA	NA	left	NA	L.bmp	354	NA	NA	NA	NA	NA	NA	NA	NA	NA	NA	NA	NA	NA	NA	NA	NA	NA	NA	NA	NA	NA
Arrow Flanker 2014	12488	1	"<?xml version=""1.0""?>\n<Clock xmlns:dt=""urn:schemas-microsoft-com:datatypes""><Description dt:dt=""string"">E-Prime Primary Realtime Clock</Description><StartTime><Timestamp dt:dt=""int"">0</Timestamp><DateUtc dt:dt=""string"">2015-10-05T17:01:17Z</DateUtc></StartTime><FrequencyChanges><FrequencyChange><Frequency dt:dt=""r8"">2825556</Frequency><Timestamp dt:dt=""r8"">2534450371825</Timestamp><Current dt:dt=""r8"">0</Current><DateUtc dt:dt=""string"">2015-10-05T17:01:17Z</DateUtc></FrequencyChange></FrequencyChanges></Clock>\n"	Arrow Flanker 2014-12488-1	60.016	1.0.0.100	1	420224566	Professional	2.0.10.353	2.0.10.353	10-05-2015	10/5/2015 5:01:17 PM	13:01:17	2.0.10.248	1	NA	NA	NA	NA	NA	NA	NA	NA	NA	NA	NA	NA	NA	1	1	1	NA	NA	NA	NA	NA	NA	NA	NA	NA	NA	NA	MapBlockProc	MapBlockList	NA	7	{RIGHTARROW}	-100	NA	894	NA	2	1	7	0	16	113072	900	1	{RIGHTARROW}	-999999	0	114472	0	{RIGHTARROW}	513	114985	NA	NA	NA	NA	NA	NA	MapTrialProc	MapTrialList	NA	NA	NA	NA	NA	NA	NA	NA	NA	NA	NA	NA	NA	NA	NA	NA	NA	NA	right	NA	R.bmp	354	NA	NA	NA	NA	NA	NA	NA	NA	NA	NA	NA	NA	NA	NA	NA	NA	NA	NA	NA	NA	NA
Arrow Flanker 2014	12488	1	"<?xml version=""1.0""?>\n<Clock xmlns:dt=""urn:schemas-microsoft-com:datatypes""><Description dt:dt=""string"">E-Prime Primary Realtime Clock</Description><StartTime><Timestamp dt:dt=""int"">0</Timestamp><DateUtc dt:dt=""string"">2015-10-05T17:01:17Z</DateUtc></StartTime><FrequencyChanges><FrequencyChange><Frequency dt:dt=""r8"">2825556</Frequency><Timestamp dt:dt=""r8"">2534450371825</Timestamp><Current dt:dt=""r8"">0</Current><DateUtc dt:dt=""string"">2015-10-05T17:01:17Z</DateUtc></FrequencyChange></FrequencyChanges></Clock>\n"	Arrow Flanker 2014-12488-1	60.016	1.0.0.100	1	420224566	Professional	2.0.10.353	2.0.10.353	10-05-2015	10/5/2015 5:01:17 PM	13:01:17	2.0.10.248	1	NA	NA	NA	NA	NA	NA	NA	NA	NA	NA	NA	NA	NA	1	1	1	NA	NA	NA	NA	NA	NA	NA	NA	NA	NA	NA	MapBlockProc	MapBlockList	NA	8	{RIGHTARROW}	-100	NA	971	NA	2	1	8	0	16	116521	983	1	{RIGHTARROW}	-999999	0	118004	0	{RIGHTARROW}	501	118505	NA	NA	NA	NA	NA	NA	MapTrialProc	MapTrialList	NA	NA	NA	NA	NA	NA	NA	NA	NA	NA	NA	NA	NA	NA	NA	NA	NA	NA	right	NA	R.bmp	354	NA	NA	NA	NA	NA	NA	NA	NA	NA	NA	NA	NA	NA	NA	NA	NA	NA	NA	NA	NA	NA
Arrow Flanker 2014	12488	1	"<?xml version=""1.0""?>\n<Clock xmlns:dt=""urn:schemas-microsoft-com:datatypes""><Description dt:dt=""string"">E-Prime Primary Realtime Clock</Description><StartTime><Timestamp dt:dt=""int"">0</Timestamp><DateUtc dt:dt=""string"">2015-10-05T17:01:17Z</DateUtc></StartTime><FrequencyChanges><FrequencyChange><Frequency dt:dt=""r8"">2825556</Frequency><Timestamp dt:dt=""r8"">2534450371825</Timestamp><Current dt:dt=""r8"">0</Current><DateUtc dt:dt=""string"">2015-10-05T17:01:17Z</DateUtc></FrequencyChange></FrequencyChanges></Clock>\n"	Arrow Flanker 2014-12488-1	60.016	1.0.0.100	1	420224566	Professional	2.0.10.353	2.0.10.353	10-05-2015	10/5/2015 5:01:17 PM	13:01:17	2.0.10.248	1	NA	NA	NA	NA	NA	NA	NA	NA	NA	NA	NA	NA	NA	1	1	1	NA	NA	NA	NA	NA	NA	NA	NA	NA	NA	NA	MapBlockProc	MapBlockList	NA	9	{RIGHTARROW}	-100	NA	657	NA	2	1	9	0	16	120037	666	1	{RIGHTARROW}	-999999	0	121203	0	{RIGHTARROW}	454	121657	NA	NA	NA	NA	NA	NA	MapTrialProc	MapTrialList	NA	NA	NA	NA	NA	NA	NA	NA	NA	NA	NA	NA	NA	NA	NA	NA	NA	NA	right	NA	R.bmp	354	NA	NA	NA	NA	NA	NA	NA	NA	NA	NA	NA	NA	NA	NA	NA	NA	NA	NA	NA	NA	NA
Arrow Flanker 2014	12488	1	"<?xml version=""1.0""?>\n<Clock xmlns:dt=""urn:schemas-microsoft-com:datatypes""><Description dt:dt=""string"">E-Prime Primary Realtime Clock</Description><StartTime><Timestamp dt:dt=""int"">0</Timestamp><DateUtc dt:dt=""string"">2015-10-05T17:01:17Z</DateUtc></StartTime><FrequencyChanges><FrequencyChange><Frequency dt:dt=""r8"">2825556</Frequency><Timestamp dt:dt=""r8"">2534450371825</Timestamp><Current dt:dt=""r8"">0</Current><DateUtc dt:dt=""string"">2015-10-05T17:01:17Z</DateUtc></FrequencyChange></FrequencyChanges></Clock>\n"	Arrow Flanker 2014-12488-1	60.016	1.0.0.100	1	420224566	Professional	2.0.10.353	2.0.10.353	10-05-2015	10/5/2015 5:01:17 PM	13:01:17	2.0.10.248	1	NA	NA	NA	NA	NA	NA	NA	NA	NA	NA	NA	NA	NA	1	1	1	NA	NA	NA	NA	NA	NA	NA	NA	NA	NA	NA	MapBlockProc	MapBlockList	NA	10	{LEFTARROW}	-100	NA	1144	NA	1	1	10	0	16	123186	1150	1	{LEFTARROW}	-999999	0	124836	0	{LEFTARROW}	453	125289	NA	NA	NA	NA	NA	NA	MapTrialProc	MapTrialList	NA	NA	NA	NA	NA	NA	NA	NA	NA	NA	NA	NA	NA	NA	NA	NA	NA	NA	left	NA	L.bmp	354	NA	NA	NA	NA	NA	NA	NA	NA	NA	NA	NA	NA	NA	NA	NA	NA	NA	NA	NA	NA	NA
Arrow Flanker 2014	12488	1	"<?xml version=""1.0""?>\n<Clock xmlns:dt=""urn:schemas-microsoft-com:datatypes""><Description dt:dt=""string"">E-Prime Primary Realtime Clock</Description><StartTime><Timestamp dt:dt=""int"">0</Timestamp><DateUtc dt:dt=""string"">2015-10-05T17:01:17Z</DateUtc></StartTime><FrequencyChanges><FrequencyChange><Frequency dt:dt=""r8"">2825556</Frequency><Timestamp dt:dt=""r8"">2534450371825</Timestamp><Current dt:dt=""r8"">0</Current><DateUtc dt:dt=""string"">2015-10-05T17:01:17Z</DateUtc></FrequencyChange></FrequencyChanges></Clock>\n"	Arrow Flanker 2014-12488-1	60.016	1.0.0.100	1	420224566	Professional	2.0.10.353	2.0.10.353	10-05-2015	10/5/2015 5:01:17 PM	13:01:17	2.0.10.248	2	NA	NA	NA	NA	NA	NA	NA	NA	NA	NA	NA	NA	NA	NA	NA	NA	NA	NA	NA	NA	NA	NA	NA	NA	1	1	1	PracBlockProc	PracBlockList	NA	1	{RIGHTARROW}	-100	NA	495	incongruent	NA	NA	NA	0	8	146080	500	1	{RIGHTARROW}	-999999	0	147080	0	{RIGHTARROW}	784	147864	NA	5	1	1	NA	NA	PracTrialProc	PracTrialList	NA	NA	NA	NA	NA	NA	NA	NA	NA	NA	NA	NA	NA	NA	NA	NA	NA	NA	right	NA	llrll.bmp	354	NA	NA	NA	NA	NA	NA	NA	NA	NA	NA	NA	NA	NA	NA	NA	NA	NA	NA	NA	NA	NA
Arrow Flanker 2014	12488	1	"<?xml version=""1.0""?>\n<Clock xmlns:dt=""urn:schemas-microsoft-com:datatypes""><Description dt:dt=""string"">E-Prime Primary Realtime Clock</Description><StartTime><Timestamp dt:dt=""int"">0</Timestamp><DateUtc dt:dt=""string"">2015-10-05T17:01:17Z</DateUtc></StartTime><FrequencyChanges><FrequencyChange><Frequency dt:dt=""r8"">2825556</Frequency><Timestamp dt:dt=""r8"">2534450371825</Timestamp><Current dt:dt=""r8"">0</Current><DateUtc dt:dt=""string"">2015-10-05T17:01:17Z</DateUtc></FrequencyChange></FrequencyChanges></Clock>\n"	Arrow Flanker 2014-12488-1	60.016	1.0.0.100	1	420224566	Professional	2.0.10.353	2.0.10.353	10-05-2015	10/5/2015 5:01:17 PM	13:01:17	2.0.10.248	2	NA	NA	NA	NA	NA	NA	NA	NA	NA	NA	NA	NA	NA	NA	NA	NA	NA	NA	NA	NA	NA	NA	NA	NA	1	1	1	PracBlockProc	PracBlockList	NA	2	{RIGHTARROW}	-100	NA	1316	congruent	NA	NA	NA	0	16	149396	1316	1	{RIGHTARROW}	-999999	0	151212	0	{RIGHTARROW}	684	151896	NA	4	1	2	NA	NA	PracTrialProc	PracTrialList	NA	NA	NA	NA	NA	NA	NA	NA	NA	NA	NA	NA	NA	NA	NA	NA	NA	NA	right	NA	rrrrr.bmp	354	NA	NA	NA	NA	NA	NA	NA	NA	NA	NA	NA	NA	NA	NA	NA	NA	NA	NA	NA	NA	NA
Arrow Flanker 2014	12488	1	"<?xml version=""1.0""?>\n<Clock xmlns:dt=""urn:schemas-microsoft-com:datatypes""><Description dt:dt=""string"">E-Prime Primary Realtime Clock</Description><StartTime><Timestamp dt:dt=""int"">0</Timestamp><DateUtc dt:dt=""string"">2015-10-05T17:01:17Z</DateUtc></StartTime><FrequencyChanges><FrequencyChange><Frequency dt:dt=""r8"">2825556</Frequency><Timestamp dt:dt=""r8"">2534450371825</Timestamp><Current dt:dt=""r8"">0</Current><DateUtc dt:dt=""string"">2015-10-05T17:01:17Z</DateUtc></FrequencyChange></FrequencyChanges></Clock>\n"	Arrow Flanker 2014-12488-1	60.016	1.0.0.100	1	420224566	Professional	2.0.10.353	2.0.10.353	10-05-2015	10/5/2015 5:01:17 PM	13:01:17	2.0.10.248	2	NA	NA	NA	NA	NA	NA	NA	NA	NA	NA	NA	NA	NA	NA	NA	NA	NA	NA	NA	NA	NA	NA	NA	NA	1	1	1	PracBlockProc	PracBlockList	NA	3	{LEFTARROW}	-100	NA	947	congruent	NA	NA	NA	0	16	153428	950	1	{LEFTARROW}	-999999	0	154878	0	{LEFTARROW}	522	155400	NA	1	1	3	NA	NA	PracTrialProc	PracTrialList	NA	NA	NA	NA	NA	NA	NA	NA	NA	NA	NA	NA	NA	NA	NA	NA	NA	NA	left	NA	lllll.bmp	354	NA	NA	NA	NA	NA	NA	NA	NA	NA	NA	NA	NA	NA	NA	NA	NA	NA	NA	NA	NA	NA
Arrow Flanker 2014	12488	1	"<?xml version=""1.0""?>\n<Clock xmlns:dt=""urn:schemas-microsoft-com:datatypes""><Description dt:dt=""string"">E-Prime Primary Realtime Clock</Description><StartTime><Timestamp dt:dt=""int"">0</Timestamp><DateUtc dt:dt=""string"">2015-10-05T17:01:17Z</DateUtc></StartTime><FrequencyChanges><FrequencyChange><Frequency dt:dt=""r8"">2825556</Frequency><Timestamp dt:dt=""r8"">2534450371825</Timestamp><Current dt:dt=""r8"">0</Current><DateUtc dt:dt=""string"">2015-10-05T17:01:17Z</DateUtc></FrequencyChange></FrequencyChanges></Clock>\n"	Arrow Flanker 2014-12488-1	60.016	1.0.0.100	1	420224566	Professional	2.0.10.353	2.0.10.353	10-05-2015	10/5/2015 5:01:17 PM	13:01:17	2.0.10.248	2	NA	NA	NA	NA	NA	NA	NA	NA	NA	NA	NA	NA	NA	NA	NA	NA	NA	NA	NA	NA	NA	NA	NA	NA	1	1	1	PracBlockProc	PracBlockList	NA	4	{RIGHTARROW}	-100	NA	608	neutral	NA	NA	NA	0	16	156927	617	1	{RIGHTARROW}	-999999	0	158044	0	{RIGHTARROW}	492	158536	NA	6	1	4	NA	NA	PracTrialProc	PracTrialList	NA	NA	NA	NA	NA	NA	NA	NA	NA	NA	NA	NA	NA	NA	NA	NA	NA	NA	right	NA	ooroo.bmp	354	NA	NA	NA	NA	NA	NA	NA	NA	NA	NA	NA	NA	NA	NA	NA	NA	NA	NA	NA	NA	NA
Arrow Flanker 2014	12488	1	"<?xml version=""1.0""?>\n<Clock xmlns:dt=""urn:schemas-microsoft-com:datatypes""><Description dt:dt=""string"">E-Prime Primary Realtime Clock</Description><StartTime><Timestamp dt:dt=""int"">0</Timestamp><DateUtc dt:dt=""string"">2015-10-05T17:01:17Z</DateUtc></StartTime><FrequencyChanges><FrequencyChange><Frequency dt:dt=""r8"">2825556</Frequency><Timestamp dt:dt=""r8"">2534450371825</Timestamp><Current dt:dt=""r8"">0</Current><DateUtc dt:dt=""string"">2015-10-05T17:01:17Z</DateUtc></FrequencyChange></FrequencyChanges></Clock>\n"	Arrow Flanker 2014-12488-1	60.016	1.0.0.100	1	420224566	Professional	2.0.10.353	2.0.10.353	10-05-2015	10/5/2015 5:01:17 PM	13:01:17	2.0.10.248	2	NA	NA	NA	NA	NA	NA	NA	NA	NA	NA	NA	NA	NA	NA	NA	NA	NA	NA	NA	NA	NA	NA	NA	NA	1	1	1	PracBlockProc	PracBlockList	NA	5	{LEFTARROW}	-100	NA	844	incongruent	NA	NA	NA	0	16	160076	850	1	{LEFTARROW}	-999999	0	161426	0	{LEFTARROW}	614	162040	NA	2	1	5	NA	NA	PracTrialProc	PracTrialList	NA	NA	NA	NA	NA	NA	NA	NA	NA	NA	NA	NA	NA	NA	NA	NA	NA	NA	left	NA	rrlrr.bmp	354	NA	NA	NA	NA	NA	NA	NA	NA	NA	NA	NA	NA	NA	NA	NA	NA	NA	NA	NA	NA	NA
Arrow Flanker 2014	12488	1	"<?xml version=""1.0""?>\n<Clock xmlns:dt=""urn:schemas-microsoft-com:datatypes""><Description dt:dt=""string"">E-Prime Primary Realtime Clock</Description><StartTime><Timestamp dt:dt=""int"">0</Timestamp><DateUtc dt:dt=""string"">2015-10-05T17:01:17Z</DateUtc></StartTime><FrequencyChanges><FrequencyChange><Frequency dt:dt=""r8"">2825556</Frequency><Timestamp dt:dt=""r8"">2534450371825</Timestamp><Current dt:dt=""r8"">0</Current><DateUtc dt:dt=""string"">2015-10-05T17:01:17Z</DateUtc></FrequencyChange></FrequencyChanges></Clock>\n"	Arrow Flanker 2014-12488-1	60.016	1.0.0.100	1	420224566	Professional	2.0.10.353	2.0.10.353	10-05-2015	10/5/2015 5:01:17 PM	13:01:17	2.0.10.248	2	NA	NA	NA	NA	NA	NA	NA	NA	NA	NA	NA	NA	NA	NA	NA	NA	NA	NA	NA	NA	NA	NA	NA	NA	1	1	1	PracBlockProc	PracBlockList	NA	6	{LEFTARROW}	-100	NA	805	neutral	NA	NA	NA	0	17	163576	816	1	{LEFTARROW}	-999999	0	164892	0	{LEFTARROW}	508	165400	NA	3	1	6	NA	NA	PracTrialProc	PracTrialList	NA	NA	NA	NA	NA	NA	NA	NA	NA	NA	NA	NA	NA	NA	NA	NA	NA	NA	left	NA	ooloo.bmp	354	NA	NA	NA	NA	NA	NA	NA	NA	NA	NA	NA	NA	NA	NA	NA	NA	NA	NA	NA	NA	NA
Arrow Flanker 2014	12488	1	"<?xml version=""1.0""?>\n<Clock xmlns:dt=""urn:schemas-microsoft-com:datatypes""><Description dt:dt=""string"">E-Prime Primary Realtime Clock</Description><StartTime><Timestamp dt:dt=""int"">0</Timestamp><DateUtc dt:dt=""string"">2015-10-05T17:01:17Z</DateUtc></StartTime><FrequencyChanges><FrequencyChange><Frequency dt:dt=""r8"">2825556</Frequency><Timestamp dt:dt=""r8"">2534450371825</Timestamp><Current dt:dt=""r8"">0</Current><DateUtc dt:dt=""string"">2015-10-05T17:01:17Z</DateUtc></FrequencyChange></FrequencyChanges></Clock>\n"	Arrow Flanker 2014-12488-1	60.016	1.0.0.100	1	420224566	Professional	2.0.10.353	2.0.10.353	10-05-2015	10/5/2015 5:01:17 PM	13:01:17	2.0.10.248	3	1	1	1	NA	NA	NA	NA	NA	NA	NA	NA	NA	NA	NA	NA	NA	NA	NA	NA	NA	NA	NA	NA	NA	NA	NA	NA	BlockProc	BlockList	NA	1	{RIGHTARROW}	NA	-100	2174	congruent	NA	NA	NA	NA	NA	NA	NA	NA	NA	NA	NA	NA	NA	NA	NA	NA	NA	NA	NA	NA	NA	NA	TrialProc	TrialList	0	19	176939	16	0	16	174206	1566	1	{RIGHTARROW}	-999999	0	176272	0	{RIGHTARROW}	647	176919	NA	NA	right	rrrrr.bmp	354	0	NA	0	0	0	0	NA	0	0	0	NA	0	0	0	0	NA	0	0	2	1	1
Arrow Flanker 2014	12488	1	"<?xml version=""1.0""?>\n<Clock xmlns:dt=""urn:schemas-microsoft-com:datatypes""><Description dt:dt=""string"">E-Prime Primary Realtime Clock</Description><StartTime><Timestamp dt:dt=""int"">0</Timestamp><DateUtc dt:dt=""string"">2015-10-05T17:01:17Z</DateUtc></StartTime><FrequencyChanges><FrequencyChange><Frequency dt:dt=""r8"">2825556</Frequency><Timestamp dt:dt=""r8"">2534450371825</Timestamp><Current dt:dt=""r8"">0</Current><DateUtc dt:dt=""string"">2015-10-05T17:01:17Z</DateUtc></FrequencyChange></FrequencyChanges></Clock>\n"	Arrow Flanker 2014-12488-1	60.016	1.0.0.100	1	420224566	Professional	2.0.10.353	2.0.10.353	10-05-2015	10/5/2015 5:01:17 PM	13:01:17	2.0.10.248	3	1	1	1	NA	NA	NA	NA	NA	NA	NA	NA	NA	NA	NA	NA	NA	NA	NA	NA	NA	NA	NA	NA	NA	NA	NA	NA	BlockProc	BlockList	NA	2	{LEFTARROW}	NA	-100	1983	incongruent	NA	NA	NA	NA	NA	NA	NA	NA	NA	NA	NA	NA	NA	NA	NA	NA	NA	NA	NA	NA	NA	NA	TrialProc	TrialList	0	17	180088	16	0	17	177472	1466	1	{LEFTARROW}	-999999	0	179438	0	{LEFTARROW}	633	180071	NA	NA	left	rrlrr.bmp	354	0	NA	0	0	0	0	NA	0	0	0	NA	0	0	0	0	NA	0	0	3	1	2
Arrow Flanker 2014	12488	1	"<?xml version=""1.0""?>\n<Clock xmlns:dt=""urn:schemas-microsoft-com:datatypes""><Description dt:dt=""string"">E-Prime Primary Realtime Clock</Description><StartTime><Timestamp dt:dt=""int"">0</Timestamp><DateUtc dt:dt=""string"">2015-10-05T17:01:17Z</DateUtc></StartTime><FrequencyChanges><FrequencyChange><Frequency dt:dt=""r8"">2825556</Frequency><Timestamp dt:dt=""r8"">2534450371825</Timestamp><Current dt:dt=""r8"">0</Current><DateUtc dt:dt=""string"">2015-10-05T17:01:17Z</DateUtc></FrequencyChange></FrequencyChanges></Clock>\n"	Arrow Flanker 2014-12488-1	60.016	1.0.0.100	1	420224566	Professional	2.0.10.353	2.0.10.353	10-05-2015	10/5/2015 5:01:17 PM	13:01:17	2.0.10.248	3	1	1	1	NA	NA	NA	NA	NA	NA	NA	NA	NA	NA	NA	NA	NA	NA	NA	NA	NA	NA	NA	NA	NA	NA	NA	NA	BlockProc	BlockList	NA	3	{LEFTARROW}	NA	-100	2119	neutral	NA	NA	NA	NA	NA	NA	NA	NA	NA	NA	NA	NA	NA	NA	NA	NA	NA	NA	NA	NA	NA	NA	TrialProc	TrialList	1	8	182687	17	0	17	180621	1033	1	{LEFTARROW}	-999999	0	182154	0	{LEFTARROW}	525	182679	NA	NA	left	ooloo.bmp	354	0	NA	0	0	0	0	NA	0	0	0	NA	0	0	0	0	NA	0	0	5	1	3
Arrow Flanker 2014	12488	1	"<?xml version=""1.0""?>\n<Clock xmlns:dt=""urn:schemas-microsoft-com:datatypes""><Description dt:dt=""string"">E-Prime Primary Realtime Clock</Description><StartTime><Timestamp dt:dt=""int"">0</Timestamp><DateUtc dt:dt=""string"">2015-10-05T17:01:17Z</DateUtc></StartTime><FrequencyChanges><FrequencyChange><Frequency dt:dt=""r8"">2825556</Frequency><Timestamp dt:dt=""r8"">2534450371825</Timestamp><Current dt:dt=""r8"">0</Current><DateUtc dt:dt=""string"">2015-10-05T17:01:17Z</DateUtc></FrequencyChange></FrequencyChanges></Clock>\n"	Arrow Flanker 2014-12488-1	60.016	1.0.0.100	1	420224566	Professional	2.0.10.353	2.0.10.353	10-05-2015	10/5/2015 5:01:17 PM	13:01:17	2.0.10.248	3	1	1	1	NA	NA	NA	NA	NA	NA	NA	NA	NA	NA	NA	NA	NA	NA	NA	NA	NA	NA	NA	NA	NA	NA	NA	NA	BlockProc	BlockList	NA	4	{RIGHTARROW}	NA	-100	1838	congruent	NA	NA	NA	NA	NA	NA	NA	NA	NA	NA	NA	NA	NA	NA	NA	NA	NA	NA	NA	NA	NA	NA	TrialProc	TrialList	0	18	185753	17	0	16	183220	1383	1	{RIGHTARROW}	-999999	0	185103	0	{RIGHTARROW}	632	185735	NA	NA	right	rrrrr.bmp	354	0	NA	0	0	0	0	NA	0	0	0	NA	0	0	0	0	NA	0	0	2	1	4
Arrow Flanker 2014	12488	1	"<?xml version=""1.0""?>\n<Clock xmlns:dt=""urn:schemas-microsoft-com:datatypes""><Description dt:dt=""string"">E-Prime Primary Realtime Clock</Description><StartTime><Timestamp dt:dt=""int"">0</Timestamp><DateUtc dt:dt=""string"">2015-10-05T17:01:17Z</DateUtc></StartTime><FrequencyChanges><FrequencyChange><Frequency dt:dt=""r8"">2825556</Frequency><Timestamp dt:dt=""r8"">2534450371825</Timestamp><Current dt:dt=""r8"">0</Current><DateUtc dt:dt=""string"">2015-10-05T17:01:17Z</DateUtc></FrequencyChange></FrequencyChanges></Clock>\n"	Arrow Flanker 2014-12488-1	60.016	1.0.0.100	1	420224566	Professional	2.0.10.353	2.0.10.353	10-05-2015	10/5/2015 5:01:17 PM	13:01:17	2.0.10.248	3	1	1	1	NA	NA	NA	NA	NA	NA	NA	NA	NA	NA	NA	NA	NA	NA	NA	NA	NA	NA	NA	NA	NA	NA	NA	NA	BlockProc	BlockList	NA	5	{LEFTARROW}	NA	-100	2384	incongruent	NA	NA	NA	NA	NA	NA	NA	NA	NA	NA	NA	NA	NA	NA	NA	NA	NA	NA	NA	NA	NA	NA	TrialProc	TrialList	0	7	188686	16	0	16	186286	1350	1	{LEFTARROW}	-999999	0	188136	0	{LEFTARROW}	543	188679	NA	NA	left	rrlrr.bmp	354	0	NA	0	0	0	0	NA	0	0	0	NA	0	0	0	0	NA	0	0	3	1	5
Arrow Flanker 2014	12488	1	"<?xml version=""1.0""?>\n<Clock xmlns:dt=""urn:schemas-microsoft-com:datatypes""><Description dt:dt=""string"">E-Prime Primary Realtime Clock</Description><StartTime><Timestamp dt:dt=""int"">0</Timestamp><DateUtc dt:dt=""string"">2015-10-05T17:01:17Z</DateUtc></StartTime><FrequencyChanges><FrequencyChange><Frequency dt:dt=""r8"">2825556</Frequency><Timestamp dt:dt=""r8"">2534450371825</Timestamp><Current dt:dt=""r8"">0</Current><DateUtc dt:dt=""string"">2015-10-05T17:01:17Z</DateUtc></FrequencyChange></FrequencyChanges></Clock>\n"	Arrow Flanker 2014-12488-1	60.016	1.0.0.100	1	420224566	Professional	2.0.10.353	2.0.10.353	10-05-2015	10/5/2015 5:01:17 PM	13:01:17	2.0.10.248	3	1	1	1	NA	NA	NA	NA	NA	NA	NA	NA	NA	NA	NA	NA	NA	NA	NA	NA	NA	NA	NA	NA	NA	NA	NA	NA	BlockProc	BlockList	NA	6	{RIGHTARROW}	NA	-100	1145	congruent	NA	NA	NA	NA	NA	NA	NA	NA	NA	NA	NA	NA	NA	NA	NA	NA	NA	NA	NA	NA	NA	NA	TrialProc	TrialList	0	14	191285	17	0	17	189219	966	1	{RIGHTARROW}	-999999	0	190685	0	{RIGHTARROW}	586	191271	NA	NA	right	rrrrr.bmp	354	0	NA	0	0	0	0	NA	0	0	0	NA	0	0	0	0	NA	0	0	2	1	6
Arrow Flanker 2014	12488	1	"<?xml version=""1.0""?>\n<Clock xmlns:dt=""urn:schemas-microsoft-com:datatypes""><Description dt:dt=""string"">E-Prime Primary Realtime Clock</Description><StartTime><Timestamp dt:dt=""int"">0</Timestamp><DateUtc dt:dt=""string"">2015-10-05T17:01:17Z</DateUtc></StartTime><FrequencyChanges><FrequencyChange><Frequency dt:dt=""r8"">2825556</Frequency><Timestamp dt:dt=""r8"">2534450371825</Timestamp><Current dt:dt=""r8"">0</Current><DateUtc dt:dt=""string"">2015-10-05T17:01:17Z</DateUtc></FrequencyChange></FrequencyChanges></Clock>\n"	Arrow Flanker 2014-12488-1	60.016	1.0.0.100	1	420224566	Professional	2.0.10.353	2.0.10.353	10-05-2015	10/5/2015 5:01:17 PM	13:01:17	2.0.10.248	3	1	1	1	NA	NA	NA	NA	NA	NA	NA	NA	NA	NA	NA	NA	NA	NA	NA	NA	NA	NA	NA	NA	NA	NA	NA	NA	BlockProc	BlockList	NA	7	{RIGHTARROW}	NA	-100	1947	incongruent	NA	NA	NA	NA	NA	NA	NA	NA	NA	NA	NA	NA	NA	NA	NA	NA	NA	NA	NA	NA	NA	NA	TrialProc	TrialList	1	19	194234	17	0	16	191818	1250	1	{RIGHTARROW}	-999999	0	193568	0	{RIGHTARROW}	647	194215	NA	NA	right	llrll.bmp	354	0	NA	0	0	0	0	NA	0	0	0	NA	0	0	0	0	NA	0	0	4	1	7
Arrow Flanker 2014	12488	1	"<?xml version=""1.0""?>\n<Clock xmlns:dt=""urn:schemas-microsoft-com:datatypes""><Description dt:dt=""string"">E-Prime Primary Realtime Clock</Description><StartTime><Timestamp dt:dt=""int"">0</Timestamp><DateUtc dt:dt=""string"">2015-10-05T17:01:17Z</DateUtc></StartTime><FrequencyChanges><FrequencyChange><Frequency dt:dt=""r8"">2825556</Frequency><Timestamp dt:dt=""r8"">2534450371825</Timestamp><Current dt:dt=""r8"">0</Current><DateUtc dt:dt=""string"">2015-10-05T17:01:17Z</DateUtc></FrequencyChange></FrequencyChanges></Clock>\n"	Arrow Flanker 2014-12488-1	60.016	1.0.0.100	1	420224566	Professional	2.0.10.353	2.0.10.353	10-05-2015	10/5/2015 5:01:17 PM	13:01:17	2.0.10.248	3	1	1	1	NA	NA	NA	NA	NA	NA	NA	NA	NA	NA	NA	NA	NA	NA	NA	NA	NA	NA	NA	NA	NA	NA	NA	NA	BlockProc	BlockList	NA	8	{LEFTARROW}	NA	-100	939	incongruent	NA	NA	NA	NA	NA	NA	NA	NA	NA	NA	NA	NA	NA	NA	NA	NA	NA	NA	NA	NA	NA	NA	TrialProc	TrialList	1	5	196300	17	0	16	194767	450	1	{LEFTARROW}	-999999	0	195717	0	{LEFTARROW}	578	196295	NA	NA	left	rrlrr.bmp	354	0	NA	0	0	0	0	NA	0	0	0	NA	0	0	0	0	NA	0	0	3	1	8
Arrow Flanker 2014	12488	1	"<?xml version=""1.0""?>\n<Clock xmlns:dt=""urn:schemas-microsoft-com:datatypes""><Description dt:dt=""string"">E-Prime Primary Realtime Clock</Description><StartTime><Timestamp dt:dt=""int"">0</Timestamp><DateUtc dt:dt=""string"">2015-10-05T17:01:17Z</DateUtc></StartTime><FrequencyChanges><FrequencyChange><Frequency dt:dt=""r8"">2825556</Frequency><Timestamp dt:dt=""r8"">2534450371825</Timestamp><Current dt:dt=""r8"">0</Current><DateUtc dt:dt=""string"">2015-10-05T17:01:17Z</DateUtc></FrequencyChange></FrequencyChanges></Clock>\n"	Arrow Flanker 2014-12488-1	60.016	1.0.0.100	1	420224566	Professional	2.0.10.353	2.0.10.353	10-05-2015	10/5/2015 5:01:17 PM	13:01:17	2.0.10.248	3	1	1	1	NA	NA	NA	NA	NA	NA	NA	NA	NA	NA	NA	NA	NA	NA	NA	NA	NA	NA	NA	NA	NA	NA	NA	NA	BlockProc	BlockList	NA	9	{LEFTARROW}	NA	-100	1299	incongruent	NA	NA	NA	NA	NA	NA	NA	NA	NA	NA	NA	NA	NA	NA	NA	NA	NA	NA	NA	NA	NA	NA	TrialProc	TrialList	1	5	199116	17	0	17	196834	1216	1	{LEFTARROW}	-999999	0	198550	0	{LEFTARROW}	561	199111	NA	NA	left	rrlrr.bmp	354	0	NA	0	0	0	0	NA	0	0	0	NA	0	0	0	0	NA	0	0	3	1	9
Arrow Flanker 2014	12488	1	"<?xml version=""1.0""?>\n<Clock xmlns:dt=""urn:schemas-microsoft-com:datatypes""><Description dt:dt=""string"">E-Prime Primary Realtime Clock</Description><StartTime><Timestamp dt:dt=""int"">0</Timestamp><DateUtc dt:dt=""string"">2015-10-05T17:01:17Z</DateUtc></StartTime><FrequencyChanges><FrequencyChange><Frequency dt:dt=""r8"">2825556</Frequency><Timestamp dt:dt=""r8"">2534450371825</Timestamp><Current dt:dt=""r8"">0</Current><DateUtc dt:dt=""string"">2015-10-05T17:01:17Z</DateUtc></FrequencyChange></FrequencyChanges></Clock>\n"	Arrow Flanker 2014-12488-1	60.016	1.0.0.100	1	420224566	Professional	2.0.10.353	2.0.10.353	10-05-2015	10/5/2015 5:01:17 PM	13:01:17	2.0.10.248	3	1	1	1	NA	NA	NA	NA	NA	NA	NA	NA	NA	NA	NA	NA	NA	NA	NA	NA	NA	NA	NA	NA	NA	NA	NA	NA	BlockProc	BlockList	NA	10	{LEFTARROW}	NA	-100	1405	neutral	NA	NA	NA	NA	NA	NA	NA	NA	NA	NA	NA	NA	NA	NA	NA	NA	NA	NA	NA	NA	NA	NA	TrialProc	TrialList	0	19	201882	17	0	16	199649	1200	1	{LEFTARROW}	-999999	0	201349	0	{LEFTARROW}	514	201863	NA	NA	left	ooloo.bmp	354	0	NA	0	0	0	0	NA	0	0	0	NA	0	0	0	0	NA	0	0	5	1	10
Arrow Flanker 2014	12488	1	"<?xml version=""1.0""?>\n<Clock xmlns:dt=""urn:schemas-microsoft-com:datatypes""><Description dt:dt=""string"">E-Prime Primary Realtime Clock</Description><StartTime><Timestamp dt:dt=""int"">0</Timestamp><DateUtc dt:dt=""string"">2015-10-05T17:01:17Z</DateUtc></StartTime><FrequencyChanges><FrequencyChange><Frequency dt:dt=""r8"">2825556</Frequency><Timestamp dt:dt=""r8"">2534450371825</Timestamp><Current dt:dt=""r8"">0</Current><DateUtc dt:dt=""string"">2015-10-05T17:01:17Z</DateUtc></FrequencyChange></FrequencyChanges></Clock>\n"	Arrow Flanker 2014-12488-1	60.016	1.0.0.100	1	420224566	Professional	2.0.10.353	2.0.10.353	10-05-2015	10/5/2015 5:01:17 PM	13:01:17	2.0.10.248	3	1	1	1	NA	NA	NA	NA	NA	NA	NA	NA	NA	NA	NA	NA	NA	NA	NA	NA	NA	NA	NA	NA	NA	NA	NA	NA	BlockProc	BlockList	NA	11	{LEFTARROW}	NA	-100	1313	neutral	NA	NA	NA	NA	NA	NA	NA	NA	NA	NA	NA	NA	NA	NA	NA	NA	NA	NA	NA	NA	NA	NA	TrialProc	TrialList	1	9	204048	17	0	16	202415	650	1	{LEFTARROW}	-999999	0	203565	0	{LEFTARROW}	474	204039	NA	NA	left	ooloo.bmp	354	0	NA	0	0	0	0	NA	0	0	0	NA	0	0	0	0	NA	0	0	5	1	11
Arrow Flanker 2014	12488	1	"<?xml version=""1.0""?>\n<Clock xmlns:dt=""urn:schemas-microsoft-com:datatypes""><Description dt:dt=""string"">E-Prime Primary Realtime Clock</Description><StartTime><Timestamp dt:dt=""int"">0</Timestamp><DateUtc dt:dt=""string"">2015-10-05T17:01:17Z</DateUtc></StartTime><FrequencyChanges><FrequencyChange><Frequency dt:dt=""r8"">2825556</Frequency><Timestamp dt:dt=""r8"">2534450371825</Timestamp><Current dt:dt=""r8"">0</Current><DateUtc dt:dt=""string"">2015-10-05T17:01:17Z</DateUtc></FrequencyChange></FrequencyChanges></Clock>\n"	Arrow Flanker 2014-12488-1	60.016	1.0.0.100	1	420224566	Professional	2.0.10.353	2.0.10.353	10-05-2015	10/5/2015 5:01:17 PM	13:01:17	2.0.10.248	3	1	1	1	NA	NA	NA	NA	NA	NA	NA	NA	NA	NA	NA	NA	NA	NA	NA	NA	NA	NA	NA	NA	NA	NA	NA	NA	BlockProc	BlockList	NA	12	{LEFTARROW}	NA	-100	1548	congruent	NA	NA	NA	NA	NA	NA	NA	NA	NA	NA	NA	NA	NA	NA	NA	NA	NA	NA	NA	NA	NA	NA	TrialProc	TrialList	1	19	206314	17	0	17	204582	733	1	{LEFTARROW}	-999999	16	205831	0	{LEFTARROW}	464	206295	NA	NA	left	lllll.bmp	354	0	NA	0	0	0	0	NA	0	0	0	NA	0	0	0	0	NA	0	0	1	1	12
Arrow Flanker 2014	12488	1	"<?xml version=""1.0""?>\n<Clock xmlns:dt=""urn:schemas-microsoft-com:datatypes""><Description dt:dt=""string"">E-Prime Primary Realtime Clock</Description><StartTime><Timestamp dt:dt=""int"">0</Timestamp><DateUtc dt:dt=""string"">2015-10-05T17:01:17Z</DateUtc></StartTime><FrequencyChanges><FrequencyChange><Frequency dt:dt=""r8"">2825556</Frequency><Timestamp dt:dt=""r8"">2534450371825</Timestamp><Current dt:dt=""r8"">0</Current><DateUtc dt:dt=""string"">2015-10-05T17:01:17Z</DateUtc></FrequencyChange></FrequencyChanges></Clock>\n"	Arrow Flanker 2014-12488-1	60.016	1.0.0.100	1	420224566	Professional	2.0.10.353	2.0.10.353	10-05-2015	10/5/2015 5:01:17 PM	13:01:17	2.0.10.248	3	1	1	1	NA	NA	NA	NA	NA	NA	NA	NA	NA	NA	NA	NA	NA	NA	NA	NA	NA	NA	NA	NA	NA	NA	NA	NA	BlockProc	BlockList	NA	13	{LEFTARROW}	NA	-100	2584	congruent	NA	NA	NA	NA	NA	NA	NA	NA	NA	NA	NA	NA	NA	NA	NA	NA	NA	NA	NA	NA	NA	NA	TrialProc	TrialList	0	12	209347	17	0	17	206848	1399	1	{LEFTARROW}	-999999	0	208747	0	{LEFTARROW}	588	209335	NA	NA	left	lllll.bmp	354	0	NA	0	0	0	0	NA	0	0	0	NA	0	0	0	0	NA	0	0	1	1	13
Arrow Flanker 2014	12488	1	"<?xml version=""1.0""?>\n<Clock xmlns:dt=""urn:schemas-microsoft-com:datatypes""><Description dt:dt=""string"">E-Prime Primary Realtime Clock</Description><StartTime><Timestamp dt:dt=""int"">0</Timestamp><DateUtc dt:dt=""string"">2015-10-05T17:01:17Z</DateUtc></StartTime><FrequencyChanges><FrequencyChange><Frequency dt:dt=""r8"">2825556</Frequency><Timestamp dt:dt=""r8"">2534450371825</Timestamp><Current dt:dt=""r8"">0</Current><DateUtc dt:dt=""string"">2015-10-05T17:01:17Z</DateUtc></FrequencyChange></FrequencyChanges></Clock>\n"	Arrow Flanker 2014-12488-1	60.016	1.0.0.100	1	420224566	Professional	2.0.10.353	2.0.10.353	10-05-2015	10/5/2015 5:01:17 PM	13:01:17	2.0.10.248	3	1	1	1	NA	NA	NA	NA	NA	NA	NA	NA	NA	NA	NA	NA	NA	NA	NA	NA	NA	NA	NA	NA	NA	NA	NA	NA	BlockProc	BlockList	NA	14	{LEFTARROW}	NA	-100	1815	congruent	NA	NA	NA	NA	NA	NA	NA	NA	NA	NA	NA	NA	NA	NA	NA	NA	NA	NA	NA	NA	NA	NA	TrialProc	TrialList	1	20	212379	17	0	16	209880	1366	1	{LEFTARROW}	-999999	0	211746	0	{LEFTARROW}	613	212359	NA	NA	left	lllll.bmp	354	0	NA	0	0	0	0	NA	0	0	0	NA	0	0	0	0	NA	0	0	1	1	14
Arrow Flanker 2014	12488	1	"<?xml version=""1.0""?>\n<Clock xmlns:dt=""urn:schemas-microsoft-com:datatypes""><Description dt:dt=""string"">E-Prime Primary Realtime Clock</Description><StartTime><Timestamp dt:dt=""int"">0</Timestamp><DateUtc dt:dt=""string"">2015-10-05T17:01:17Z</DateUtc></StartTime><FrequencyChanges><FrequencyChange><Frequency dt:dt=""r8"">2825556</Frequency><Timestamp dt:dt=""r8"">2534450371825</Timestamp><Current dt:dt=""r8"">0</Current><DateUtc dt:dt=""string"">2015-10-05T17:01:17Z</DateUtc></FrequencyChange></FrequencyChanges></Clock>\n"	Arrow Flanker 2014-12488-1	60.016	1.0.0.100	1	420224566	Professional	2.0.10.353	2.0.10.353	10-05-2015	10/5/2015 5:01:17 PM	13:01:17	2.0.10.248	3	1	1	1	NA	NA	NA	NA	NA	NA	NA	NA	NA	NA	NA	NA	NA	NA	NA	NA	NA	NA	NA	NA	NA	NA	NA	NA	BlockProc	BlockList	NA	15	{RIGHTARROW}	NA	-100	1720	neutral	NA	NA	NA	NA	NA	NA	NA	NA	NA	NA	NA	NA	NA	NA	NA	NA	NA	NA	NA	NA	NA	NA	TrialProc	TrialList	1	18	215145	17	0	17	212913	1283	1	{RIGHTARROW}	-999999	0	214696	0	{RIGHTARROW}	431	215127	NA	NA	right	ooroo.bmp	354	0	NA	0	0	0	0	NA	0	0	0	NA	0	0	0	0	NA	0	0	6	1	15
Arrow Flanker 2014	12488	1	"<?xml version=""1.0""?>\n<Clock xmlns:dt=""urn:schemas-microsoft-com:datatypes""><Description dt:dt=""string"">E-Prime Primary Realtime Clock</Description><StartTime><Timestamp dt:dt=""int"">0</Timestamp><DateUtc dt:dt=""string"">2015-10-05T17:01:17Z</DateUtc></StartTime><FrequencyChanges><FrequencyChange><Frequency dt:dt=""r8"">2825556</Frequency><Timestamp dt:dt=""r8"">2534450371825</Timestamp><Current dt:dt=""r8"">0</Current><DateUtc dt:dt=""string"">2015-10-05T17:01:17Z</DateUtc></FrequencyChange></FrequencyChanges></Clock>\n"	Arrow Flanker 2014-12488-1	60.016	1.0.0.100	1	420224566	Professional	2.0.10.353	2.0.10.353	10-05-2015	10/5/2015 5:01:17 PM	13:01:17	2.0.10.248	3	1	1	1	NA	NA	NA	NA	NA	NA	NA	NA	NA	NA	NA	NA	NA	NA	NA	NA	NA	NA	NA	NA	NA	NA	NA	NA	BlockProc	BlockList	NA	16	{LEFTARROW}	NA	-100	668	incongruent	NA	NA	NA	NA	NA	NA	NA	NA	NA	NA	NA	NA	NA	NA	NA	NA	NA	NA	NA	NA	NA	NA	TrialProc	TrialList	0	19	217578	17	0	17	215679	683	1	{LEFTARROW}	-999999	0	216862	0	{LEFTARROW}	696	217558	NA	NA	left	rrlrr.bmp	354	0	NA	0	0	0	0	NA	0	0	0	NA	0	0	0	0	NA	0	0	3	1	16
Arrow Flanker 2014	12488	1	"<?xml version=""1.0""?>\n<Clock xmlns:dt=""urn:schemas-microsoft-com:datatypes""><Description dt:dt=""string"">E-Prime Primary Realtime Clock</Description><StartTime><Timestamp dt:dt=""int"">0</Timestamp><DateUtc dt:dt=""string"">2015-10-05T17:01:17Z</DateUtc></StartTime><FrequencyChanges><FrequencyChange><Frequency dt:dt=""r8"">2825556</Frequency><Timestamp dt:dt=""r8"">2534450371825</Timestamp><Current dt:dt=""r8"">0</Current><DateUtc dt:dt=""string"">2015-10-05T17:01:17Z</DateUtc></FrequencyChange></FrequencyChanges></Clock>\n"	Arrow Flanker 2014-12488-1	60.016	1.0.0.100	1	420224566	Professional	2.0.10.353	2.0.10.353	10-05-2015	10/5/2015 5:01:17 PM	13:01:17	2.0.10.248	3	1	1	1	NA	NA	NA	NA	NA	NA	NA	NA	NA	NA	NA	NA	NA	NA	NA	NA	NA	NA	NA	NA	NA	NA	NA	NA	BlockProc	BlockList	NA	17	{RIGHTARROW}	NA	-100	1065	congruent	NA	NA	NA	NA	NA	NA	NA	NA	NA	NA	NA	NA	NA	NA	NA	NA	NA	NA	NA	NA	NA	NA	TrialProc	TrialList	0	20	219611	17	0	16	218111	567	1	{RIGHTARROW}	-999999	0	219178	0	{RIGHTARROW}	412	219590	NA	NA	right	rrrrr.bmp	354	0	NA	0	0	0	0	NA	0	0	0	NA	0	0	0	0	NA	0	0	2	1	17
Arrow Flanker 2014	12488	1	"<?xml version=""1.0""?>\n<Clock xmlns:dt=""urn:schemas-microsoft-com:datatypes""><Description dt:dt=""string"">E-Prime Primary Realtime Clock</Description><StartTime><Timestamp dt:dt=""int"">0</Timestamp><DateUtc dt:dt=""string"">2015-10-05T17:01:17Z</DateUtc></StartTime><FrequencyChanges><FrequencyChange><Frequency dt:dt=""r8"">2825556</Frequency><Timestamp dt:dt=""r8"">2534450371825</Timestamp><Current dt:dt=""r8"">0</Current><DateUtc dt:dt=""string"">2015-10-05T17:01:17Z</DateUtc></FrequencyChange></FrequencyChanges></Clock>\n"	Arrow Flanker 2014-12488-1	60.016	1.0.0.100	1	420224566	Professional	2.0.10.353	2.0.10.353	10-05-2015	10/5/2015 5:01:17 PM	13:01:17	2.0.10.248	3	1	1	1	NA	NA	NA	NA	NA	NA	NA	NA	NA	NA	NA	NA	NA	NA	NA	NA	NA	NA	NA	NA	NA	NA	NA	NA	BlockProc	BlockList	NA	18	{RIGHTARROW}	NA	-100	1552	incongruent	NA	NA	NA	NA	NA	NA	NA	NA	NA	NA	NA	NA	NA	NA	NA	NA	NA	NA	NA	NA	NA	NA	TrialProc	TrialList	0	14	222277	17	0	16	220144	1050	1	{RIGHTARROW}	-999999	0	221694	0	{RIGHTARROW}	568	222262	NA	NA	right	llrll.bmp	354	0	NA	0	0	0	0	NA	0	0	0	NA	0	0	0	0	NA	0	0	4	1	18
Arrow Flanker 2014	12488	1	"<?xml version=""1.0""?>\n<Clock xmlns:dt=""urn:schemas-microsoft-com:datatypes""><Description dt:dt=""string"">E-Prime Primary Realtime Clock</Description><StartTime><Timestamp dt:dt=""int"">0</Timestamp><DateUtc dt:dt=""string"">2015-10-05T17:01:17Z</DateUtc></StartTime><FrequencyChanges><FrequencyChange><Frequency dt:dt=""r8"">2825556</Frequency><Timestamp dt:dt=""r8"">2534450371825</Timestamp><Current dt:dt=""r8"">0</Current><DateUtc dt:dt=""string"">2015-10-05T17:01:17Z</DateUtc></FrequencyChange></FrequencyChanges></Clock>\n"	Arrow Flanker 2014-12488-1	60.016	1.0.0.100	1	420224566	Professional	2.0.10.353	2.0.10.353	10-05-2015	10/5/2015 5:01:17 PM	13:01:17	2.0.10.248	3	1	1	1	NA	NA	NA	NA	NA	NA	NA	NA	NA	NA	NA	NA	NA	NA	NA	NA	NA	NA	NA	NA	NA	NA	NA	NA	BlockProc	BlockList	NA	19	{LEFTARROW}	NA	-100	2189	congruent	NA	NA	NA	NA	NA	NA	NA	NA	NA	NA	NA	NA	NA	NA	NA	NA	NA	NA	NA	NA	NA	NA	TrialProc	TrialList	0	9	224976	17	0	16	222810	1017	1	{LEFTARROW}	-999999	16	224343	0	{LEFTARROW}	623	224966	NA	NA	left	lllll.bmp	354	0	NA	0	0	0	0	NA	0	0	0	NA	0	0	0	0	NA	0	0	1	1	19
Arrow Flanker 2014	12488	1	"<?xml version=""1.0""?>\n<Clock xmlns:dt=""urn:schemas-microsoft-com:datatypes""><Description dt:dt=""string"">E-Prime Primary Realtime Clock</Description><StartTime><Timestamp dt:dt=""int"">0</Timestamp><DateUtc dt:dt=""string"">2015-10-05T17:01:17Z</DateUtc></StartTime><FrequencyChanges><FrequencyChange><Frequency dt:dt=""r8"">2825556</Frequency><Timestamp dt:dt=""r8"">2534450371825</Timestamp><Current dt:dt=""r8"">0</Current><DateUtc dt:dt=""string"">2015-10-05T17:01:17Z</DateUtc></FrequencyChange></FrequencyChanges></Clock>\n"	Arrow Flanker 2014-12488-1	60.016	1.0.0.100	1	420224566	Professional	2.0.10.353	2.0.10.353	10-05-2015	10/5/2015 5:01:17 PM	13:01:17	2.0.10.248	3	1	1	1	NA	NA	NA	NA	NA	NA	NA	NA	NA	NA	NA	NA	NA	NA	NA	NA	NA	NA	NA	NA	NA	NA	NA	NA	BlockProc	BlockList	NA	20	{RIGHTARROW}	NA	-100	1638	neutral	NA	NA	NA	NA	NA	NA	NA	NA	NA	NA	NA	NA	NA	NA	NA	NA	NA	NA	NA	NA	NA	NA	TrialProc	TrialList	0	7	227709	16	0	16	225509	1150	1	{RIGHTARROW}	-999999	0	227159	0	{RIGHTARROW}	543	227702	NA	NA	right	ooroo.bmp	354	0	NA	0	0	0	0	NA	0	0	0	NA	0	0	0	0	NA	0	0	6	1	20
Arrow Flanker 2014	12488	1	"<?xml version=""1.0""?>\n<Clock xmlns:dt=""urn:schemas-microsoft-com:datatypes""><Description dt:dt=""string"">E-Prime Primary Realtime Clock</Description><StartTime><Timestamp dt:dt=""int"">0</Timestamp><DateUtc dt:dt=""string"">2015-10-05T17:01:17Z</DateUtc></StartTime><FrequencyChanges><FrequencyChange><Frequency dt:dt=""r8"">2825556</Frequency><Timestamp dt:dt=""r8"">2534450371825</Timestamp><Current dt:dt=""r8"">0</Current><DateUtc dt:dt=""string"">2015-10-05T17:01:17Z</DateUtc></FrequencyChange></FrequencyChanges></Clock>\n"	Arrow Flanker 2014-12488-1	60.016	1.0.0.100	1	420224566	Professional	2.0.10.353	2.0.10.353	10-05-2015	10/5/2015 5:01:17 PM	13:01:17	2.0.10.248	3	1	1	1	NA	NA	NA	NA	NA	NA	NA	NA	NA	NA	NA	NA	NA	NA	NA	NA	NA	NA	NA	NA	NA	NA	NA	NA	BlockProc	BlockList	NA	21	{LEFTARROW}	NA	-100	1685	congruent	NA	NA	NA	NA	NA	NA	NA	NA	NA	NA	NA	NA	NA	NA	NA	NA	NA	NA	NA	NA	NA	NA	TrialProc	TrialList	0	10	230192	16	0	17	228242	966	1	{LEFTARROW}	-999999	0	229708	0	{LEFTARROW}	474	230182	NA	NA	left	lllll.bmp	354	0	NA	0	0	0	0	NA	0	0	0	NA	0	0	0	0	NA	0	0	1	1	21
Arrow Flanker 2014	12488	1	"<?xml version=""1.0""?>\n<Clock xmlns:dt=""urn:schemas-microsoft-com:datatypes""><Description dt:dt=""string"">E-Prime Primary Realtime Clock</Description><StartTime><Timestamp dt:dt=""int"">0</Timestamp><DateUtc dt:dt=""string"">2015-10-05T17:01:17Z</DateUtc></StartTime><FrequencyChanges><FrequencyChange><Frequency dt:dt=""r8"">2825556</Frequency><Timestamp dt:dt=""r8"">2534450371825</Timestamp><Current dt:dt=""r8"">0</Current><DateUtc dt:dt=""string"">2015-10-05T17:01:17Z</DateUtc></FrequencyChange></FrequencyChanges></Clock>\n"	Arrow Flanker 2014-12488-1	60.016	1.0.0.100	1	420224566	Professional	2.0.10.353	2.0.10.353	10-05-2015	10/5/2015 5:01:17 PM	13:01:17	2.0.10.248	3	1	1	1	NA	NA	NA	NA	NA	NA	NA	NA	NA	NA	NA	NA	NA	NA	NA	NA	NA	NA	NA	NA	NA	NA	NA	NA	BlockProc	BlockList	NA	22	{LEFTARROW}	NA	-100	806	congruent	NA	NA	NA	NA	NA	NA	NA	NA	NA	NA	NA	NA	NA	NA	NA	NA	NA	NA	NA	NA	3	1	TrialProc	TrialList	1	18	232424	17	0	17	230725	633	1	{LEFTARROW}	-999999	0	231858	0	{LEFTARROW}	548	232406	NA	NA	left	lllll.bmp	354	0	NA	-999999	16	232957	0	1	4649	237606	0	NA	-999999	17	237623	0	1	4167	241790	1	1	22
Arrow Flanker 2014	12488	1	"<?xml version=""1.0""?>\n<Clock xmlns:dt=""urn:schemas-microsoft-com:datatypes""><Description dt:dt=""string"">E-Prime Primary Realtime Clock</Description><StartTime><Timestamp dt:dt=""int"">0</Timestamp><DateUtc dt:dt=""string"">2015-10-05T17:01:17Z</DateUtc></StartTime><FrequencyChanges><FrequencyChange><Frequency dt:dt=""r8"">2825556</Frequency><Timestamp dt:dt=""r8"">2534450371825</Timestamp><Current dt:dt=""r8"">0</Current><DateUtc dt:dt=""string"">2015-10-05T17:01:17Z</DateUtc></FrequencyChange></FrequencyChanges></Clock>\n"	Arrow Flanker 2014-12488-1	60.016	1.0.0.100	1	420224566	Professional	2.0.10.353	2.0.10.353	10-05-2015	10/5/2015 5:01:17 PM	13:01:17	2.0.10.248	3	1	1	1	NA	NA	NA	NA	NA	NA	NA	NA	NA	NA	NA	NA	NA	NA	NA	NA	NA	NA	NA	NA	NA	NA	NA	NA	BlockProc	BlockList	NA	23	{LEFTARROW}	NA	-100	1489	incongruent	NA	NA	NA	NA	NA	NA	NA	NA	NA	NA	NA	NA	NA	NA	NA	NA	NA	NA	NA	NA	NA	NA	TrialProc	TrialList	0	17	246071	16	0	15	243221	1100	1	{LEFTARROW}	-999999	0	244821	0	{LEFTARROW}	1233	246054	NA	NA	left	rrlrr.bmp	354	0	NA	0	0	0	0	NA	0	0	0	NA	0	0	0	0	NA	0	0	3	1	23
Arrow Flanker 2014	12488	1	"<?xml version=""1.0""?>\n<Clock xmlns:dt=""urn:schemas-microsoft-com:datatypes""><Description dt:dt=""string"">E-Prime Primary Realtime Clock</Description><StartTime><Timestamp dt:dt=""int"">0</Timestamp><DateUtc dt:dt=""string"">2015-10-05T17:01:17Z</DateUtc></StartTime><FrequencyChanges><FrequencyChange><Frequency dt:dt=""r8"">2825556</Frequency><Timestamp dt:dt=""r8"">2534450371825</Timestamp><Current dt:dt=""r8"">0</Current><DateUtc dt:dt=""string"">2015-10-05T17:01:17Z</DateUtc></FrequencyChange></FrequencyChanges></Clock>\n"	Arrow Flanker 2014-12488-1	60.016	1.0.0.100	1	420224566	Professional	2.0.10.353	2.0.10.353	10-05-2015	10/5/2015 5:01:17 PM	13:01:17	2.0.10.248	3	1	1	1	NA	NA	NA	NA	NA	NA	NA	NA	NA	NA	NA	NA	NA	NA	NA	NA	NA	NA	NA	NA	NA	NA	NA	NA	BlockProc	BlockList	NA	24	{RIGHTARROW}	NA	-100	1674	neutral	NA	NA	NA	NA	NA	NA	NA	NA	NA	NA	NA	NA	NA	NA	NA	NA	NA	NA	NA	NA	NA	NA	TrialProc	TrialList	0	11	249137	16	0	17	246604	1566	1	{RIGHTARROW}	-999999	0	248670	0	{RIGHTARROW}	456	249126	NA	NA	right	ooroo.bmp	354	0	NA	0	0	0	0	NA	0	0	0	NA	0	0	0	0	NA	0	0	6	1	24
Arrow Flanker 2014	12488	1	"<?xml version=""1.0""?>\n<Clock xmlns:dt=""urn:schemas-microsoft-com:datatypes""><Description dt:dt=""string"">E-Prime Primary Realtime Clock</Description><StartTime><Timestamp dt:dt=""int"">0</Timestamp><DateUtc dt:dt=""string"">2015-10-05T17:01:17Z</DateUtc></StartTime><FrequencyChanges><FrequencyChange><Frequency dt:dt=""r8"">2825556</Frequency><Timestamp dt:dt=""r8"">2534450371825</Timestamp><Current dt:dt=""r8"">0</Current><DateUtc dt:dt=""string"">2015-10-05T17:01:17Z</DateUtc></FrequencyChange></FrequencyChanges></Clock>\n"	Arrow Flanker 2014-12488-1	60.016	1.0.0.100	1	420224566	Professional	2.0.10.353	2.0.10.353	10-05-2015	10/5/2015 5:01:17 PM	13:01:17	2.0.10.248	3	1	1	1	NA	NA	NA	NA	NA	NA	NA	NA	NA	NA	NA	NA	NA	NA	NA	NA	NA	NA	NA	NA	NA	NA	NA	NA	BlockProc	BlockList	NA	25	{LEFTARROW}	NA	-100	1588	neutral	NA	NA	NA	NA	NA	NA	NA	NA	NA	NA	NA	NA	NA	NA	NA	NA	NA	NA	NA	NA	NA	NA	TrialProc	TrialList	0	20	251386	17	0	17	249670	700	1	{LEFTARROW}	-999999	16	250886	0	{LEFTARROW}	480	251366	NA	NA	left	ooloo.bmp	354	0	NA	0	0	0	0	NA	0	0	0	NA	0	0	0	0	NA	0	0	5	1	25
Arrow Flanker 2014	12488	1	"<?xml version=""1.0""?>\n<Clock xmlns:dt=""urn:schemas-microsoft-com:datatypes""><Description dt:dt=""string"">E-Prime Primary Realtime Clock</Description><StartTime><Timestamp dt:dt=""int"">0</Timestamp><DateUtc dt:dt=""string"">2015-10-05T17:01:17Z</DateUtc></StartTime><FrequencyChanges><FrequencyChange><Frequency dt:dt=""r8"">2825556</Frequency><Timestamp dt:dt=""r8"">2534450371825</Timestamp><Current dt:dt=""r8"">0</Current><DateUtc dt:dt=""string"">2015-10-05T17:01:17Z</DateUtc></FrequencyChange></FrequencyChanges></Clock>\n"	Arrow Flanker 2014-12488-1	60.016	1.0.0.100	1	420224566	Professional	2.0.10.353	2.0.10.353	10-05-2015	10/5/2015 5:01:17 PM	13:01:17	2.0.10.248	3	1	1	1	NA	NA	NA	NA	NA	NA	NA	NA	NA	NA	NA	NA	NA	NA	NA	NA	NA	NA	NA	NA	NA	NA	NA	NA	BlockProc	BlockList	NA	26	{LEFTARROW}	NA	-100	1045	incongruent	NA	NA	NA	NA	NA	NA	NA	NA	NA	NA	NA	NA	NA	NA	NA	NA	NA	NA	NA	NA	NA	NA	TrialProc	TrialList	1	5	253435	17	0	16	251919	0	1	{LEFTARROW}	-999999	0	252869	0	{LEFTARROW}	561	253430	NA	NA	left	rrlrr.bmp	354	0	NA	0	0	0	0	NA	0	0	0	NA	0	0	0	0	NA	0	0	3	1	26
Arrow Flanker 2014	12488	1	"<?xml version=""1.0""?>\n<Clock xmlns:dt=""urn:schemas-microsoft-com:datatypes""><Description dt:dt=""string"">E-Prime Primary Realtime Clock</Description><StartTime><Timestamp dt:dt=""int"">0</Timestamp><DateUtc dt:dt=""string"">2015-10-05T17:01:17Z</DateUtc></StartTime><FrequencyChanges><FrequencyChange><Frequency dt:dt=""r8"">2825556</Frequency><Timestamp dt:dt=""r8"">2534450371825</Timestamp><Current dt:dt=""r8"">0</Current><DateUtc dt:dt=""string"">2015-10-05T17:01:17Z</DateUtc></FrequencyChange></FrequencyChanges></Clock>\n"	Arrow Flanker 2014-12488-1	60.016	1.0.0.100	1	420224566	Professional	2.0.10.353	2.0.10.353	10-05-2015	10/5/2015 5:01:17 PM	13:01:17	2.0.10.248	3	1	1	1	NA	NA	NA	NA	NA	NA	NA	NA	NA	NA	NA	NA	NA	NA	NA	NA	NA	NA	NA	NA	NA	NA	NA	NA	BlockProc	BlockList	NA	27	{RIGHTARROW}	NA	-100	1122	congruent	NA	NA	NA	NA	NA	NA	NA	NA	NA	NA	NA	NA	NA	NA	NA	NA	NA	NA	NA	NA	NA	NA	TrialProc	TrialList	1	10	255568	17	0	17	253969	0	1	{RIGHTARROW}	-999999	0	255152	0	{RIGHTARROW}	406	255558	NA	NA	right	rrrrr.bmp	354	0	NA	0	0	0	0	NA	0	0	0	NA	0	0	0	0	NA	0	0	2	1	27
Arrow Flanker 2014	12488	1	"<?xml version=""1.0""?>\n<Clock xmlns:dt=""urn:schemas-microsoft-com:datatypes""><Description dt:dt=""string"">E-Prime Primary Realtime Clock</Description><StartTime><Timestamp dt:dt=""int"">0</Timestamp><DateUtc dt:dt=""string"">2015-10-05T17:01:17Z</DateUtc></StartTime><FrequencyChanges><FrequencyChange><Frequency dt:dt=""r8"">2825556</Frequency><Timestamp dt:dt=""r8"">2534450371825</Timestamp><Current dt:dt=""r8"">0</Current><DateUtc dt:dt=""string"">2015-10-05T17:01:17Z</DateUtc></FrequencyChange></FrequencyChanges></Clock>\n"	Arrow Flanker 2014-12488-1	60.016	1.0.0.100	1	420224566	Professional	2.0.10.353	2.0.10.353	10-05-2015	10/5/2015 5:01:17 PM	13:01:17	2.0.10.248	3	1	1	1	NA	NA	NA	NA	NA	NA	NA	NA	NA	NA	NA	NA	NA	NA	NA	NA	NA	NA	NA	NA	NA	NA	NA	NA	BlockProc	BlockList	NA	28	{RIGHTARROW}	NA	-100	2014	neutral	NA	NA	NA	NA	NA	NA	NA	NA	NA	NA	NA	NA	NA	NA	NA	NA	NA	NA	NA	NA	NA	NA	TrialProc	TrialList	0	19	258601	16	0	16	256101	0	1	{RIGHTARROW}	-999999	0	258051	0	{RIGHTARROW}	531	258582	NA	NA	right	ooroo.bmp	354	0	NA	0	0	0	0	NA	0	0	0	NA	0	0	0	0	NA	0	0	6	1	28
Arrow Flanker 2014	12488	1	"<?xml version=""1.0""?>\n<Clock xmlns:dt=""urn:schemas-microsoft-com:datatypes""><Description dt:dt=""string"">E-Prime Primary Realtime Clock</Description><StartTime><Timestamp dt:dt=""int"">0</Timestamp><DateUtc dt:dt=""string"">2015-10-05T17:01:17Z</DateUtc></StartTime><FrequencyChanges><FrequencyChange><Frequency dt:dt=""r8"">2825556</Frequency><Timestamp dt:dt=""r8"">2534450371825</Timestamp><Current dt:dt=""r8"">0</Current><DateUtc dt:dt=""string"">2015-10-05T17:01:17Z</DateUtc></FrequencyChange></FrequencyChanges></Clock>\n"	Arrow Flanker 2014-12488-1	60.016	1.0.0.100	1	420224566	Professional	2.0.10.353	2.0.10.353	10-05-2015	10/5/2015 5:01:17 PM	13:01:17	2.0.10.248	3	1	1	1	NA	NA	NA	NA	NA	NA	NA	NA	NA	NA	NA	NA	NA	NA	NA	NA	NA	NA	NA	NA	NA	NA	NA	NA	BlockProc	BlockList	NA	29	{LEFTARROW}	NA	-100	1536	neutral	NA	NA	NA	NA	NA	NA	NA	NA	NA	NA	NA	NA	NA	NA	NA	NA	NA	NA	NA	NA	NA	NA	TrialProc	TrialList	0	6	261100	17	0	17	259134	0	1	{LEFTARROW}	-999999	0	260650	0	{LEFTARROW}	443	261093	NA	NA	left	ooloo.bmp	354	0	NA	0	0	0	0	NA	0	0	0	NA	0	0	0	0	NA	0	0	5	1	29
Arrow Flanker 2014	12488	1	"<?xml version=""1.0""?>\n<Clock xmlns:dt=""urn:schemas-microsoft-com:datatypes""><Description dt:dt=""string"">E-Prime Primary Realtime Clock</Description><StartTime><Timestamp dt:dt=""int"">0</Timestamp><DateUtc dt:dt=""string"">2015-10-05T17:01:17Z</DateUtc></StartTime><FrequencyChanges><FrequencyChange><Frequency dt:dt=""r8"">2825556</Frequency><Timestamp dt:dt=""r8"">2534450371825</Timestamp><Current dt:dt=""r8"">0</Current><DateUtc dt:dt=""string"">2015-10-05T17:01:17Z</DateUtc></FrequencyChange></FrequencyChanges></Clock>\n"	Arrow Flanker 2014-12488-1	60.016	1.0.0.100	1	420224566	Professional	2.0.10.353	2.0.10.353	10-05-2015	10/5/2015 5:01:17 PM	13:01:17	2.0.10.248	3	1	1	1	NA	NA	NA	NA	NA	NA	NA	NA	NA	NA	NA	NA	NA	NA	NA	NA	NA	NA	NA	NA	NA	NA	NA	NA	BlockProc	BlockList	NA	30	{LEFTARROW}	NA	-100	1956	incongruent	NA	NA	NA	NA	NA	NA	NA	NA	NA	NA	NA	NA	NA	NA	NA	NA	NA	NA	NA	NA	NA	NA	TrialProc	TrialList	1	19	264249	17	0	16	261633	0	1	{LEFTARROW}	-999999	0	263616	0	{LEFTARROW}	613	264229	NA	NA	left	rrlrr.bmp	354	0	NA	0	0	0	0	NA	0	0	0	NA	0	0	0	0	NA	0	0	3	1	30
Arrow Flanker 2014	12488	1	"<?xml version=""1.0""?>\n<Clock xmlns:dt=""urn:schemas-microsoft-com:datatypes""><Description dt:dt=""string"">E-Prime Primary Realtime Clock</Description><StartTime><Timestamp dt:dt=""int"">0</Timestamp><DateUtc dt:dt=""string"">2015-10-05T17:01:17Z</DateUtc></StartTime><FrequencyChanges><FrequencyChange><Frequency dt:dt=""r8"">2825556</Frequency><Timestamp dt:dt=""r8"">2534450371825</Timestamp><Current dt:dt=""r8"">0</Current><DateUtc dt:dt=""string"">2015-10-05T17:01:17Z</DateUtc></FrequencyChange></FrequencyChanges></Clock>\n"	Arrow Flanker 2014-12488-1	60.016	1.0.0.100	1	420224566	Professional	2.0.10.353	2.0.10.353	10-05-2015	10/5/2015 5:01:17 PM	13:01:17	2.0.10.248	3	1	1	1	NA	NA	NA	NA	NA	NA	NA	NA	NA	NA	NA	NA	NA	NA	NA	NA	NA	NA	NA	NA	NA	NA	NA	NA	BlockProc	BlockList	NA	31	{RIGHTARROW}	NA	-100	965	incongruent	NA	NA	NA	NA	NA	NA	NA	NA	NA	NA	NA	NA	NA	NA	NA	NA	NA	NA	NA	NA	NA	NA	TrialProc	TrialList	0	10	266432	17	0	17	264783	0	1	{RIGHTARROW}	-999999	0	265916	0	{RIGHTARROW}	505	266421	NA	NA	right	llrll.bmp	354	0	NA	0	0	0	0	NA	0	0	0	NA	0	0	0	0	NA	0	0	4	1	31
Arrow Flanker 2014	12488	1	"<?xml version=""1.0""?>\n<Clock xmlns:dt=""urn:schemas-microsoft-com:datatypes""><Description dt:dt=""string"">E-Prime Primary Realtime Clock</Description><StartTime><Timestamp dt:dt=""int"">0</Timestamp><DateUtc dt:dt=""string"">2015-10-05T17:01:17Z</DateUtc></StartTime><FrequencyChanges><FrequencyChange><Frequency dt:dt=""r8"">2825556</Frequency><Timestamp dt:dt=""r8"">2534450371825</Timestamp><Current dt:dt=""r8"">0</Current><DateUtc dt:dt=""string"">2015-10-05T17:01:17Z</DateUtc></FrequencyChange></FrequencyChanges></Clock>\n"	Arrow Flanker 2014-12488-1	60.016	1.0.0.100	1	420224566	Professional	2.0.10.353	2.0.10.353	10-05-2015	10/5/2015 5:01:17 PM	13:01:17	2.0.10.248	3	1	1	1	NA	NA	NA	NA	NA	NA	NA	NA	NA	NA	NA	NA	NA	NA	NA	NA	NA	NA	NA	NA	NA	NA	NA	NA	BlockProc	BlockList	NA	32	{LEFTARROW}	NA	-100	1521	incongruent	NA	NA	NA	NA	NA	NA	NA	NA	NA	NA	NA	NA	NA	NA	NA	NA	NA	NA	NA	NA	NA	NA	TrialProc	TrialList	1	20	269081	17	0	16	266965	0	1	{LEFTARROW}	-999999	0	268548	0	{LEFTARROW}	513	269061	NA	NA	left	rrlrr.bmp	354	0	NA	0	0	0	0	NA	0	0	0	NA	0	0	0	0	NA	0	0	3	1	32
Arrow Flanker 2014	12488	1	"<?xml version=""1.0""?>\n<Clock xmlns:dt=""urn:schemas-microsoft-com:datatypes""><Description dt:dt=""string"">E-Prime Primary Realtime Clock</Description><StartTime><Timestamp dt:dt=""int"">0</Timestamp><DateUtc dt:dt=""string"">2015-10-05T17:01:17Z</DateUtc></StartTime><FrequencyChanges><FrequencyChange><Frequency dt:dt=""r8"">2825556</Frequency><Timestamp dt:dt=""r8"">2534450371825</Timestamp><Current dt:dt=""r8"">0</Current><DateUtc dt:dt=""string"">2015-10-05T17:01:17Z</DateUtc></FrequencyChange></FrequencyChanges></Clock>\n"	Arrow Flanker 2014-12488-1	60.016	1.0.0.100	1	420224566	Professional	2.0.10.353	2.0.10.353	10-05-2015	10/5/2015 5:01:17 PM	13:01:17	2.0.10.248	3	1	1	1	NA	NA	NA	NA	NA	NA	NA	NA	NA	NA	NA	NA	NA	NA	NA	NA	NA	NA	NA	NA	NA	NA	NA	NA	BlockProc	BlockList	NA	33	{RIGHTARROW}	NA	-100	2692	incongruent	NA	NA	NA	NA	NA	NA	NA	NA	NA	NA	NA	NA	NA	NA	NA	NA	NA	NA	NA	NA	NA	NA	TrialProc	TrialList	0	20	272297	17	0	17	269615	0	1	{RIGHTARROW}	-999999	0	271714	0	{RIGHTARROW}	563	272277	NA	NA	right	llrll.bmp	354	0	NA	0	0	0	0	NA	0	0	0	NA	0	0	0	0	NA	0	0	4	1	33
Arrow Flanker 2014	12488	1	"<?xml version=""1.0""?>\n<Clock xmlns:dt=""urn:schemas-microsoft-com:datatypes""><Description dt:dt=""string"">E-Prime Primary Realtime Clock</Description><StartTime><Timestamp dt:dt=""int"">0</Timestamp><DateUtc dt:dt=""string"">2015-10-05T17:01:17Z</DateUtc></StartTime><FrequencyChanges><FrequencyChange><Frequency dt:dt=""r8"">2825556</Frequency><Timestamp dt:dt=""r8"">2534450371825</Timestamp><Current dt:dt=""r8"">0</Current><DateUtc dt:dt=""string"">2015-10-05T17:01:17Z</DateUtc></FrequencyChange></FrequencyChanges></Clock>\n"	Arrow Flanker 2014-12488-1	60.016	1.0.0.100	1	420224566	Professional	2.0.10.353	2.0.10.353	10-05-2015	10/5/2015 5:01:17 PM	13:01:17	2.0.10.248	3	1	1	1	NA	NA	NA	NA	NA	NA	NA	NA	NA	NA	NA	NA	NA	NA	NA	NA	NA	NA	NA	NA	NA	NA	NA	NA	BlockProc	BlockList	NA	34	{LEFTARROW}	NA	-100	2454	neutral	NA	NA	NA	NA	NA	NA	NA	NA	NA	NA	NA	NA	NA	NA	NA	NA	NA	NA	NA	NA	NA	NA	TrialProc	TrialList	1	13	275346	17	0	16	272830	0	1	{LEFTARROW}	-999999	0	274880	0	{LEFTARROW}	453	275333	NA	NA	left	ooloo.bmp	354	0	NA	0	0	0	0	NA	0	0	0	NA	0	0	0	0	NA	0	0	5	1	34
Arrow Flanker 2014	12488	1	"<?xml version=""1.0""?>\n<Clock xmlns:dt=""urn:schemas-microsoft-com:datatypes""><Description dt:dt=""string"">E-Prime Primary Realtime Clock</Description><StartTime><Timestamp dt:dt=""int"">0</Timestamp><DateUtc dt:dt=""string"">2015-10-05T17:01:17Z</DateUtc></StartTime><FrequencyChanges><FrequencyChange><Frequency dt:dt=""r8"">2825556</Frequency><Timestamp dt:dt=""r8"">2534450371825</Timestamp><Current dt:dt=""r8"">0</Current><DateUtc dt:dt=""string"">2015-10-05T17:01:17Z</DateUtc></FrequencyChange></FrequencyChanges></Clock>\n"	Arrow Flanker 2014-12488-1	60.016	1.0.0.100	1	420224566	Professional	2.0.10.353	2.0.10.353	10-05-2015	10/5/2015 5:01:17 PM	13:01:17	2.0.10.248	3	1	1	1	NA	NA	NA	NA	NA	NA	NA	NA	NA	NA	NA	NA	NA	NA	NA	NA	NA	NA	NA	NA	NA	NA	NA	NA	BlockProc	BlockList	NA	35	{RIGHTARROW}	NA	-100	2244	incongruent	NA	NA	NA	NA	NA	NA	NA	NA	NA	NA	NA	NA	NA	NA	NA	NA	NA	NA	NA	NA	NA	NA	TrialProc	TrialList	1	9	278062	17	0	17	275880	0	1	{RIGHTARROW}	-999999	-1	277562	0	{RIGHTARROW}	491	278053	NA	NA	right	llrll.bmp	354	0	NA	0	0	0	0	NA	0	0	0	NA	0	0	0	0	NA	0	0	4	1	35
Arrow Flanker 2014	12488	1	"<?xml version=""1.0""?>\n<Clock xmlns:dt=""urn:schemas-microsoft-com:datatypes""><Description dt:dt=""string"">E-Prime Primary Realtime Clock</Description><StartTime><Timestamp dt:dt=""int"">0</Timestamp><DateUtc dt:dt=""string"">2015-10-05T17:01:17Z</DateUtc></StartTime><FrequencyChanges><FrequencyChange><Frequency dt:dt=""r8"">2825556</Frequency><Timestamp dt:dt=""r8"">2534450371825</Timestamp><Current dt:dt=""r8"">0</Current><DateUtc dt:dt=""string"">2015-10-05T17:01:17Z</DateUtc></FrequencyChange></FrequencyChanges></Clock>\n"	Arrow Flanker 2014-12488-1	60.016	1.0.0.100	1	420224566	Professional	2.0.10.353	2.0.10.353	10-05-2015	10/5/2015 5:01:17 PM	13:01:17	2.0.10.248	3	1	1	1	NA	NA	NA	NA	NA	NA	NA	NA	NA	NA	NA	NA	NA	NA	NA	NA	NA	NA	NA	NA	NA	NA	NA	NA	BlockProc	BlockList	NA	36	{RIGHTARROW}	NA	-100	1605	congruent	NA	NA	NA	NA	NA	NA	NA	NA	NA	NA	NA	NA	NA	NA	NA	NA	NA	NA	NA	NA	NA	NA	TrialProc	TrialList	0	17	281062	16	0	17	278596	0	1	{RIGHTARROW}	-999999	0	280562	0	{RIGHTARROW}	483	281045	NA	NA	right	rrrrr.bmp	354	0	NA	0	0	0	0	NA	0	0	0	NA	0	0	0	0	NA	0	0	2	1	36
Arrow Flanker 2014	12488	1	"<?xml version=""1.0""?>\n<Clock xmlns:dt=""urn:schemas-microsoft-com:datatypes""><Description dt:dt=""string"">E-Prime Primary Realtime Clock</Description><StartTime><Timestamp dt:dt=""int"">0</Timestamp><DateUtc dt:dt=""string"">2015-10-05T17:01:17Z</DateUtc></StartTime><FrequencyChanges><FrequencyChange><Frequency dt:dt=""r8"">2825556</Frequency><Timestamp dt:dt=""r8"">2534450371825</Timestamp><Current dt:dt=""r8"">0</Current><DateUtc dt:dt=""string"">2015-10-05T17:01:17Z</DateUtc></FrequencyChange></FrequencyChanges></Clock>\n"	Arrow Flanker 2014-12488-1	60.016	1.0.0.100	1	420224566	Professional	2.0.10.353	2.0.10.353	10-05-2015	10/5/2015 5:01:17 PM	13:01:17	2.0.10.248	3	1	1	1	NA	NA	NA	NA	NA	NA	NA	NA	NA	NA	NA	NA	NA	NA	NA	NA	NA	NA	NA	NA	NA	NA	NA	NA	BlockProc	BlockList	NA	37	{RIGHTARROW}	NA	-100	1771	neutral	NA	NA	NA	NA	NA	NA	NA	NA	NA	NA	NA	NA	NA	NA	NA	NA	NA	NA	NA	NA	3	1	TrialProc	TrialList	0	12	284161	16	0	17	281595	0	1	{RIGHTARROW}	-999999	-1	283677	0	{RIGHTARROW}	472	284149	NA	NA	right	ooroo.bmp	354	0	NA	-999999	17	284694	0	1	2831	287525	0	NA	-999999	18	287543	0	1	1782	289325	6	1	37
Arrow Flanker 2014	12488	1	"<?xml version=""1.0""?>\n<Clock xmlns:dt=""urn:schemas-microsoft-com:datatypes""><Description dt:dt=""string"">E-Prime Primary Realtime Clock</Description><StartTime><Timestamp dt:dt=""int"">0</Timestamp><DateUtc dt:dt=""string"">2015-10-05T17:01:17Z</DateUtc></StartTime><FrequencyChanges><FrequencyChange><Frequency dt:dt=""r8"">2825556</Frequency><Timestamp dt:dt=""r8"">2534450371825</Timestamp><Current dt:dt=""r8"">0</Current><DateUtc dt:dt=""string"">2015-10-05T17:01:17Z</DateUtc></FrequencyChange></FrequencyChanges></Clock>\n"	Arrow Flanker 2014-12488-1	60.016	1.0.0.100	1	420224566	Professional	2.0.10.353	2.0.10.353	10-05-2015	10/5/2015 5:01:17 PM	13:01:17	2.0.10.248	3	1	1	1	NA	NA	NA	NA	NA	NA	NA	NA	NA	NA	NA	NA	NA	NA	NA	NA	NA	NA	NA	NA	NA	NA	NA	NA	BlockProc	BlockList	NA	38	{RIGHTARROW}	NA	-100	2299	neutral	NA	NA	NA	NA	NA	NA	NA	NA	NA	NA	NA	NA	NA	NA	NA	NA	NA	NA	NA	NA	NA	NA	TrialProc	TrialList	0	8	292925	17	0	21	290442	0	1	{RIGHTARROW}	-999999	0	292409	0	{RIGHTARROW}	508	292917	NA	NA	right	ooroo.bmp	354	0	NA	0	0	0	0	NA	0	0	0	NA	0	0	0	0	NA	0	0	6	1	38
Arrow Flanker 2014	12488	1	"<?xml version=""1.0""?>\n<Clock xmlns:dt=""urn:schemas-microsoft-com:datatypes""><Description dt:dt=""string"">E-Prime Primary Realtime Clock</Description><StartTime><Timestamp dt:dt=""int"">0</Timestamp><DateUtc dt:dt=""string"">2015-10-05T17:01:17Z</DateUtc></StartTime><FrequencyChanges><FrequencyChange><Frequency dt:dt=""r8"">2825556</Frequency><Timestamp dt:dt=""r8"">2534450371825</Timestamp><Current dt:dt=""r8"">0</Current><DateUtc dt:dt=""string"">2015-10-05T17:01:17Z</DateUtc></FrequencyChange></FrequencyChanges></Clock>\n"	Arrow Flanker 2014-12488-1	60.016	1.0.0.100	1	420224566	Professional	2.0.10.353	2.0.10.353	10-05-2015	10/5/2015 5:01:17 PM	13:01:17	2.0.10.248	3	1	1	1	NA	NA	NA	NA	NA	NA	NA	NA	NA	NA	NA	NA	NA	NA	NA	NA	NA	NA	NA	NA	NA	NA	NA	NA	BlockProc	BlockList	NA	39	{LEFTARROW}	NA	-100	1307	congruent	NA	NA	NA	NA	NA	NA	NA	NA	NA	NA	NA	NA	NA	NA	NA	NA	NA	NA	NA	NA	NA	NA	TrialProc	TrialList	0	19	295608	16	0	16	293458	0	1	{LEFTARROW}	-999999	0	295125	0	{LEFTARROW}	464	295589	NA	NA	left	lllll.bmp	354	0	NA	0	0	0	0	NA	0	0	0	NA	0	0	0	0	NA	0	0	1	1	39
Arrow Flanker 2014	12488	1	"<?xml version=""1.0""?>\n<Clock xmlns:dt=""urn:schemas-microsoft-com:datatypes""><Description dt:dt=""string"">E-Prime Primary Realtime Clock</Description><StartTime><Timestamp dt:dt=""int"">0</Timestamp><DateUtc dt:dt=""string"">2015-10-05T17:01:17Z</DateUtc></StartTime><FrequencyChanges><FrequencyChange><Frequency dt:dt=""r8"">2825556</Frequency><Timestamp dt:dt=""r8"">2534450371825</Timestamp><Current dt:dt=""r8"">0</Current><DateUtc dt:dt=""string"">2015-10-05T17:01:17Z</DateUtc></FrequencyChange></FrequencyChanges></Clock>\n"	Arrow Flanker 2014-12488-1	60.016	1.0.0.100	1	420224566	Professional	2.0.10.353	2.0.10.353	10-05-2015	10/5/2015 5:01:17 PM	13:01:17	2.0.10.248	3	1	1	1	NA	NA	NA	NA	NA	NA	NA	NA	NA	NA	NA	NA	NA	NA	NA	NA	NA	NA	NA	NA	NA	NA	NA	NA	BlockProc	BlockList	NA	40	{LEFTARROW}	NA	-100	1431	neutral	NA	NA	NA	NA	NA	NA	NA	NA	NA	NA	NA	NA	NA	NA	NA	NA	NA	NA	NA	NA	NA	NA	TrialProc	TrialList	0	15	297924	16	0	17	296141	0	1	{LEFTARROW}	-999999	0	297457	0	{LEFTARROW}	452	297909	NA	NA	left	ooloo.bmp	354	0	NA	0	0	0	0	NA	0	0	0	NA	0	0	0	0	NA	0	0	5	1	40
Arrow Flanker 2014	12488	1	"<?xml version=""1.0""?>\n<Clock xmlns:dt=""urn:schemas-microsoft-com:datatypes""><Description dt:dt=""string"">E-Prime Primary Realtime Clock</Description><StartTime><Timestamp dt:dt=""int"">0</Timestamp><DateUtc dt:dt=""string"">2015-10-05T17:01:17Z</DateUtc></StartTime><FrequencyChanges><FrequencyChange><Frequency dt:dt=""r8"">2825556</Frequency><Timestamp dt:dt=""r8"">2534450371825</Timestamp><Current dt:dt=""r8"">0</Current><DateUtc dt:dt=""string"">2015-10-05T17:01:17Z</DateUtc></FrequencyChange></FrequencyChanges></Clock>\n"	Arrow Flanker 2014-12488-1	60.016	1.0.0.100	1	420224566	Professional	2.0.10.353	2.0.10.353	10-05-2015	10/5/2015 5:01:17 PM	13:01:17	2.0.10.248	3	1	1	1	NA	NA	NA	NA	NA	NA	NA	NA	NA	NA	NA	NA	NA	NA	NA	NA	NA	NA	NA	NA	NA	NA	NA	NA	BlockProc	BlockList	NA	41	{RIGHTARROW}	NA	-100	816	incongruent	NA	NA	NA	NA	NA	NA	NA	NA	NA	NA	NA	NA	NA	NA	NA	NA	NA	NA	NA	NA	NA	NA	TrialProc	TrialList	0	9	300190	17	0	17	298457	0	1	{RIGHTARROW}	-999999	0	299707	0	{RIGHTARROW}	474	300181	NA	NA	right	llrll.bmp	354	0	NA	0	0	0	0	NA	0	0	0	NA	0	0	0	0	NA	0	0	4	1	41
Arrow Flanker 2014	12488	1	"<?xml version=""1.0""?>\n<Clock xmlns:dt=""urn:schemas-microsoft-com:datatypes""><Description dt:dt=""string"">E-Prime Primary Realtime Clock</Description><StartTime><Timestamp dt:dt=""int"">0</Timestamp><DateUtc dt:dt=""string"">2015-10-05T17:01:17Z</DateUtc></StartTime><FrequencyChanges><FrequencyChange><Frequency dt:dt=""r8"">2825556</Frequency><Timestamp dt:dt=""r8"">2534450371825</Timestamp><Current dt:dt=""r8"">0</Current><DateUtc dt:dt=""string"">2015-10-05T17:01:17Z</DateUtc></FrequencyChange></FrequencyChanges></Clock>\n"	Arrow Flanker 2014-12488-1	60.016	1.0.0.100	1	420224566	Professional	2.0.10.353	2.0.10.353	10-05-2015	10/5/2015 5:01:17 PM	13:01:17	2.0.10.248	3	1	1	1	NA	NA	NA	NA	NA	NA	NA	NA	NA	NA	NA	NA	NA	NA	NA	NA	NA	NA	NA	NA	NA	NA	NA	NA	BlockProc	BlockList	NA	42	{LEFTARROW}	NA	-100	1065	neutral	NA	NA	NA	NA	NA	NA	NA	NA	NA	NA	NA	NA	NA	NA	NA	NA	NA	NA	NA	NA	NA	NA	TrialProc	TrialList	0	14	302323	16	0	16	300723	0	1	{LEFTARROW}	-999999	0	301856	0	{LEFTARROW}	453	302309	NA	NA	left	ooloo.bmp	354	0	NA	0	0	0	0	NA	0	0	0	NA	0	0	0	0	NA	0	0	5	1	42
Arrow Flanker 2014	12488	1	"<?xml version=""1.0""?>\n<Clock xmlns:dt=""urn:schemas-microsoft-com:datatypes""><Description dt:dt=""string"">E-Prime Primary Realtime Clock</Description><StartTime><Timestamp dt:dt=""int"">0</Timestamp><DateUtc dt:dt=""string"">2015-10-05T17:01:17Z</DateUtc></StartTime><FrequencyChanges><FrequencyChange><Frequency dt:dt=""r8"">2825556</Frequency><Timestamp dt:dt=""r8"">2534450371825</Timestamp><Current dt:dt=""r8"">0</Current><DateUtc dt:dt=""string"">2015-10-05T17:01:17Z</DateUtc></FrequencyChange></FrequencyChanges></Clock>\n"	Arrow Flanker 2014-12488-1	60.016	1.0.0.100	1	420224566	Professional	2.0.10.353	2.0.10.353	10-05-2015	10/5/2015 5:01:17 PM	13:01:17	2.0.10.248	3	1	1	1	NA	NA	NA	NA	NA	NA	NA	NA	NA	NA	NA	NA	NA	NA	NA	NA	NA	NA	NA	NA	NA	NA	NA	NA	BlockProc	BlockList	NA	43	{RIGHTARROW}	NA	-100	1828	incongruent	NA	NA	NA	NA	NA	NA	NA	NA	NA	NA	NA	NA	NA	NA	NA	NA	NA	NA	NA	NA	NA	NA	TrialProc	TrialList	1	12	304705	17	0	17	302856	0	1	{RIGHTARROW}	-999999	0	304222	0	{RIGHTARROW}	470	304692	NA	NA	right	llrll.bmp	354	0	NA	0	0	0	0	NA	0	0	0	NA	0	0	0	0	NA	0	0	4	1	43
Arrow Flanker 2014	12488	1	"<?xml version=""1.0""?>\n<Clock xmlns:dt=""urn:schemas-microsoft-com:datatypes""><Description dt:dt=""string"">E-Prime Primary Realtime Clock</Description><StartTime><Timestamp dt:dt=""int"">0</Timestamp><DateUtc dt:dt=""string"">2015-10-05T17:01:17Z</DateUtc></StartTime><FrequencyChanges><FrequencyChange><Frequency dt:dt=""r8"">2825556</Frequency><Timestamp dt:dt=""r8"">2534450371825</Timestamp><Current dt:dt=""r8"">0</Current><DateUtc dt:dt=""string"">2015-10-05T17:01:17Z</DateUtc></FrequencyChange></FrequencyChanges></Clock>\n"	Arrow Flanker 2014-12488-1	60.016	1.0.0.100	1	420224566	Professional	2.0.10.353	2.0.10.353	10-05-2015	10/5/2015 5:01:17 PM	13:01:17	2.0.10.248	3	1	1	1	NA	NA	NA	NA	NA	NA	NA	NA	NA	NA	NA	NA	NA	NA	NA	NA	NA	NA	NA	NA	NA	NA	NA	NA	BlockProc	BlockList	NA	44	{RIGHTARROW}	NA	-100	1484	congruent	NA	NA	NA	NA	NA	NA	NA	NA	NA	NA	NA	NA	NA	NA	NA	NA	NA	NA	NA	NA	NA	NA	TrialProc	TrialList	1	16	306821	17	0	17	305239	0	1	{RIGHTARROW}	-999999	0	306338	0	{RIGHTARROW}	466	306804	NA	NA	right	rrrrr.bmp	354	0	NA	0	0	0	0	NA	0	0	0	NA	0	0	0	0	NA	0	0	2	1	44
Arrow Flanker 2014	12488	1	"<?xml version=""1.0""?>\n<Clock xmlns:dt=""urn:schemas-microsoft-com:datatypes""><Description dt:dt=""string"">E-Prime Primary Realtime Clock</Description><StartTime><Timestamp dt:dt=""int"">0</Timestamp><DateUtc dt:dt=""string"">2015-10-05T17:01:17Z</DateUtc></StartTime><FrequencyChanges><FrequencyChange><Frequency dt:dt=""r8"">2825556</Frequency><Timestamp dt:dt=""r8"">2534450371825</Timestamp><Current dt:dt=""r8"">0</Current><DateUtc dt:dt=""string"">2015-10-05T17:01:17Z</DateUtc></FrequencyChange></FrequencyChanges></Clock>\n"	Arrow Flanker 2014-12488-1	60.016	1.0.0.100	1	420224566	Professional	2.0.10.353	2.0.10.353	10-05-2015	10/5/2015 5:01:17 PM	13:01:17	2.0.10.248	3	1	1	1	NA	NA	NA	NA	NA	NA	NA	NA	NA	NA	NA	NA	NA	NA	NA	NA	NA	NA	NA	NA	NA	NA	NA	NA	BlockProc	BlockList	NA	45	{RIGHTARROW}	NA	-100	1742	congruent	NA	NA	NA	NA	NA	NA	NA	NA	NA	NA	NA	NA	NA	NA	NA	NA	NA	NA	NA	NA	NA	NA	TrialProc	TrialList	0	14	309171	17	0	17	307355	0	1	{RIGHTARROW}	-999999	0	308588	0	{RIGHTARROW}	568	309156	NA	NA	right	rrrrr.bmp	354	0	NA	0	0	0	0	NA	0	0	0	NA	0	0	0	0	NA	0	0	2	1	45
Arrow Flanker 2014	12488	1	"<?xml version=""1.0""?>\n<Clock xmlns:dt=""urn:schemas-microsoft-com:datatypes""><Description dt:dt=""string"">E-Prime Primary Realtime Clock</Description><StartTime><Timestamp dt:dt=""int"">0</Timestamp><DateUtc dt:dt=""string"">2015-10-05T17:01:17Z</DateUtc></StartTime><FrequencyChanges><FrequencyChange><Frequency dt:dt=""r8"">2825556</Frequency><Timestamp dt:dt=""r8"">2534450371825</Timestamp><Current dt:dt=""r8"">0</Current><DateUtc dt:dt=""string"">2015-10-05T17:01:17Z</DateUtc></FrequencyChange></FrequencyChanges></Clock>\n"	Arrow Flanker 2014-12488-1	60.016	1.0.0.100	1	420224566	Professional	2.0.10.353	2.0.10.353	10-05-2015	10/5/2015 5:01:17 PM	13:01:17	2.0.10.248	3	1	1	1	NA	NA	NA	NA	NA	NA	NA	NA	NA	NA	NA	NA	NA	NA	NA	NA	NA	NA	NA	NA	NA	NA	NA	NA	BlockProc	BlockList	NA	46	{LEFTARROW}	NA	-100	2400	neutral	NA	NA	NA	NA	NA	NA	NA	NA	NA	NA	NA	NA	NA	NA	NA	NA	NA	NA	NA	NA	NA	NA	TrialProc	TrialList	0	6	312170	17	0	16	309704	0	1	{LEFTARROW}	-999999	0	311654	0	{LEFTARROW}	510	312164	NA	NA	left	ooloo.bmp	354	0	NA	0	0	0	0	NA	0	0	0	NA	0	0	0	0	NA	0	0	5	1	46
Arrow Flanker 2014	12488	1	"<?xml version=""1.0""?>\n<Clock xmlns:dt=""urn:schemas-microsoft-com:datatypes""><Description dt:dt=""string"">E-Prime Primary Realtime Clock</Description><StartTime><Timestamp dt:dt=""int"">0</Timestamp><DateUtc dt:dt=""string"">2015-10-05T17:01:17Z</DateUtc></StartTime><FrequencyChanges><FrequencyChange><Frequency dt:dt=""r8"">2825556</Frequency><Timestamp dt:dt=""r8"">2534450371825</Timestamp><Current dt:dt=""r8"">0</Current><DateUtc dt:dt=""string"">2015-10-05T17:01:17Z</DateUtc></FrequencyChange></FrequencyChanges></Clock>\n"	Arrow Flanker 2014-12488-1	60.016	1.0.0.100	1	420224566	Professional	2.0.10.353	2.0.10.353	10-05-2015	10/5/2015 5:01:17 PM	13:01:17	2.0.10.248	3	1	1	1	NA	NA	NA	NA	NA	NA	NA	NA	NA	NA	NA	NA	NA	NA	NA	NA	NA	NA	NA	NA	NA	NA	NA	NA	BlockProc	BlockList	NA	47	{RIGHTARROW}	NA	-100	1564	congruent	NA	NA	NA	NA	NA	NA	NA	NA	NA	NA	NA	NA	NA	NA	NA	NA	NA	NA	NA	NA	NA	NA	TrialProc	TrialList	0	13	314753	17	0	16	312703	0	1	{RIGHTARROW}	-999999	0	314220	0	{RIGHTARROW}	520	314740	NA	NA	right	rrrrr.bmp	354	0	NA	0	0	0	0	NA	0	0	0	NA	0	0	0	0	NA	0	0	2	1	47
Arrow Flanker 2014	12488	1	"<?xml version=""1.0""?>\n<Clock xmlns:dt=""urn:schemas-microsoft-com:datatypes""><Description dt:dt=""string"">E-Prime Primary Realtime Clock</Description><StartTime><Timestamp dt:dt=""int"">0</Timestamp><DateUtc dt:dt=""string"">2015-10-05T17:01:17Z</DateUtc></StartTime><FrequencyChanges><FrequencyChange><Frequency dt:dt=""r8"">2825556</Frequency><Timestamp dt:dt=""r8"">2534450371825</Timestamp><Current dt:dt=""r8"">0</Current><DateUtc dt:dt=""string"">2015-10-05T17:01:17Z</DateUtc></FrequencyChange></FrequencyChanges></Clock>\n"	Arrow Flanker 2014-12488-1	60.016	1.0.0.100	1	420224566	Professional	2.0.10.353	2.0.10.353	10-05-2015	10/5/2015 5:01:17 PM	13:01:17	2.0.10.248	3	1	1	1	NA	NA	NA	NA	NA	NA	NA	NA	NA	NA	NA	NA	NA	NA	NA	NA	NA	NA	NA	NA	NA	NA	NA	NA	BlockProc	BlockList	NA	48	{LEFTARROW}	NA	-100	1152	neutral	NA	NA	NA	NA	NA	NA	NA	NA	NA	NA	NA	NA	NA	NA	NA	NA	NA	NA	NA	NA	NA	NA	TrialProc	TrialList	1	5	316969	16	0	16	315286	0	1	{LEFTARROW}	-999999	0	316469	0	{LEFTARROW}	495	316964	NA	NA	left	ooloo.bmp	354	0	NA	0	0	0	0	NA	0	0	0	NA	0	0	0	0	NA	0	0	5	1	48
Arrow Flanker 2014	12488	1	"<?xml version=""1.0""?>\n<Clock xmlns:dt=""urn:schemas-microsoft-com:datatypes""><Description dt:dt=""string"">E-Prime Primary Realtime Clock</Description><StartTime><Timestamp dt:dt=""int"">0</Timestamp><DateUtc dt:dt=""string"">2015-10-05T17:01:17Z</DateUtc></StartTime><FrequencyChanges><FrequencyChange><Frequency dt:dt=""r8"">2825556</Frequency><Timestamp dt:dt=""r8"">2534450371825</Timestamp><Current dt:dt=""r8"">0</Current><DateUtc dt:dt=""string"">2015-10-05T17:01:17Z</DateUtc></FrequencyChange></FrequencyChanges></Clock>\n"	Arrow Flanker 2014-12488-1	60.016	1.0.0.100	1	420224566	Professional	2.0.10.353	2.0.10.353	10-05-2015	10/5/2015 5:01:17 PM	13:01:17	2.0.10.248	3	1	1	1	NA	NA	NA	NA	NA	NA	NA	NA	NA	NA	NA	NA	NA	NA	NA	NA	NA	NA	NA	NA	NA	NA	NA	NA	BlockProc	BlockList	NA	49	{LEFTARROW}	NA	-100	1633	incongruent	NA	NA	NA	NA	NA	NA	NA	NA	NA	NA	NA	NA	NA	NA	NA	NA	NA	NA	NA	NA	NA	NA	TrialProc	TrialList	1	9	320301	17	0	17	317502	0	1	{LEFTARROW}	-999999	0	319535	0	{LEFTARROW}	757	320292	NA	NA	left	rrlrr.bmp	354	0	NA	0	0	0	0	NA	0	0	0	NA	0	0	0	0	NA	0	0	3	1	49
Arrow Flanker 2014	12488	1	"<?xml version=""1.0""?>\n<Clock xmlns:dt=""urn:schemas-microsoft-com:datatypes""><Description dt:dt=""string"">E-Prime Primary Realtime Clock</Description><StartTime><Timestamp dt:dt=""int"">0</Timestamp><DateUtc dt:dt=""string"">2015-10-05T17:01:17Z</DateUtc></StartTime><FrequencyChanges><FrequencyChange><Frequency dt:dt=""r8"">2825556</Frequency><Timestamp dt:dt=""r8"">2534450371825</Timestamp><Current dt:dt=""r8"">0</Current><DateUtc dt:dt=""string"">2015-10-05T17:01:17Z</DateUtc></FrequencyChange></FrequencyChanges></Clock>\n"	Arrow Flanker 2014-12488-1	60.016	1.0.0.100	1	420224566	Professional	2.0.10.353	2.0.10.353	10-05-2015	10/5/2015 5:01:17 PM	13:01:17	2.0.10.248	3	1	1	1	NA	NA	NA	NA	NA	NA	NA	NA	NA	NA	NA	NA	NA	NA	NA	NA	NA	NA	NA	NA	NA	NA	NA	NA	BlockProc	BlockList	NA	50	{RIGHTARROW}	NA	-100	2092	congruent	NA	NA	NA	NA	NA	NA	NA	NA	NA	NA	NA	NA	NA	NA	NA	NA	NA	NA	NA	NA	NA	NA	TrialProc	TrialList	0	20	323384	17	0	17	320835	0	1	{RIGHTARROW}	-999999	0	322867	0	{RIGHTARROW}	497	323364	NA	NA	right	rrrrr.bmp	354	0	NA	0	0	0	0	NA	0	0	0	NA	0	0	0	0	NA	0	0	2	1	50
Arrow Flanker 2014	12488	1	"<?xml version=""1.0""?>\n<Clock xmlns:dt=""urn:schemas-microsoft-com:datatypes""><Description dt:dt=""string"">E-Prime Primary Realtime Clock</Description><StartTime><Timestamp dt:dt=""int"">0</Timestamp><DateUtc dt:dt=""string"">2015-10-05T17:01:17Z</DateUtc></StartTime><FrequencyChanges><FrequencyChange><Frequency dt:dt=""r8"">2825556</Frequency><Timestamp dt:dt=""r8"">2534450371825</Timestamp><Current dt:dt=""r8"">0</Current><DateUtc dt:dt=""string"">2015-10-05T17:01:17Z</DateUtc></FrequencyChange></FrequencyChanges></Clock>\n"	Arrow Flanker 2014-12488-1	60.016	1.0.0.100	1	420224566	Professional	2.0.10.353	2.0.10.353	10-05-2015	10/5/2015 5:01:17 PM	13:01:17	2.0.10.248	3	1	1	1	NA	NA	NA	NA	NA	NA	NA	NA	NA	NA	NA	NA	NA	NA	NA	NA	NA	NA	NA	NA	NA	NA	NA	NA	BlockProc	BlockList	NA	51	{LEFTARROW}	NA	-100	1653	incongruent	NA	NA	NA	NA	NA	NA	NA	NA	NA	NA	NA	NA	NA	NA	NA	NA	NA	NA	NA	NA	NA	NA	TrialProc	TrialList	0	12	326000	16	0	16	323917	0	1	{LEFTARROW}	-999999	0	325500	0	{LEFTARROW}	488	325988	NA	NA	left	rrlrr.bmp	354	0	NA	0	0	0	0	NA	0	0	0	NA	0	0	0	0	NA	0	0	3	1	51
Arrow Flanker 2014	12488	1	"<?xml version=""1.0""?>\n<Clock xmlns:dt=""urn:schemas-microsoft-com:datatypes""><Description dt:dt=""string"">E-Prime Primary Realtime Clock</Description><StartTime><Timestamp dt:dt=""int"">0</Timestamp><DateUtc dt:dt=""string"">2015-10-05T17:01:17Z</DateUtc></StartTime><FrequencyChanges><FrequencyChange><Frequency dt:dt=""r8"">2825556</Frequency><Timestamp dt:dt=""r8"">2534450371825</Timestamp><Current dt:dt=""r8"">0</Current><DateUtc dt:dt=""string"">2015-10-05T17:01:17Z</DateUtc></FrequencyChange></FrequencyChanges></Clock>\n"	Arrow Flanker 2014-12488-1	60.016	1.0.0.100	1	420224566	Professional	2.0.10.353	2.0.10.353	10-05-2015	10/5/2015 5:01:17 PM	13:01:17	2.0.10.248	3	1	1	1	NA	NA	NA	NA	NA	NA	NA	NA	NA	NA	NA	NA	NA	NA	NA	NA	NA	NA	NA	NA	NA	NA	NA	NA	BlockProc	BlockList	NA	52	{LEFTARROW}	NA	-100	1341	congruent	NA	NA	NA	NA	NA	NA	NA	NA	NA	NA	NA	NA	NA	NA	NA	NA	NA	NA	NA	NA	NA	NA	TrialProc	TrialList	0	7	328283	16	0	17	326533	0	1	{LEFTARROW}	-999999	0	327733	0	{LEFTARROW}	543	328276	NA	NA	left	lllll.bmp	354	0	NA	0	0	0	0	NA	0	0	0	NA	0	0	0	0	NA	0	0	1	1	52
Arrow Flanker 2014	12488	1	"<?xml version=""1.0""?>\n<Clock xmlns:dt=""urn:schemas-microsoft-com:datatypes""><Description dt:dt=""string"">E-Prime Primary Realtime Clock</Description><StartTime><Timestamp dt:dt=""int"">0</Timestamp><DateUtc dt:dt=""string"">2015-10-05T17:01:17Z</DateUtc></StartTime><FrequencyChanges><FrequencyChange><Frequency dt:dt=""r8"">2825556</Frequency><Timestamp dt:dt=""r8"">2534450371825</Timestamp><Current dt:dt=""r8"">0</Current><DateUtc dt:dt=""string"">2015-10-05T17:01:17Z</DateUtc></FrequencyChange></FrequencyChanges></Clock>\n"	Arrow Flanker 2014-12488-1	60.016	1.0.0.100	1	420224566	Professional	2.0.10.353	2.0.10.353	10-05-2015	10/5/2015 5:01:17 PM	13:01:17	2.0.10.248	3	1	1	1	NA	NA	NA	NA	NA	NA	NA	NA	NA	NA	NA	NA	NA	NA	NA	NA	NA	NA	NA	NA	NA	NA	NA	NA	BlockProc	BlockList	NA	53	{RIGHTARROW}	NA	-100	2083	neutral	NA	NA	NA	NA	NA	NA	NA	NA	NA	NA	NA	NA	NA	NA	NA	NA	NA	NA	NA	NA	NA	NA	TrialProc	TrialList	0	8	331132	16	0	17	328816	0	1	{RIGHTARROW}	-999999	0	330665	0	{RIGHTARROW}	459	331124	NA	NA	right	ooroo.bmp	354	0	NA	0	0	0	0	NA	0	0	0	NA	0	0	0	0	NA	0	0	6	1	53
Arrow Flanker 2014	12488	1	"<?xml version=""1.0""?>\n<Clock xmlns:dt=""urn:schemas-microsoft-com:datatypes""><Description dt:dt=""string"">E-Prime Primary Realtime Clock</Description><StartTime><Timestamp dt:dt=""int"">0</Timestamp><DateUtc dt:dt=""string"">2015-10-05T17:01:17Z</DateUtc></StartTime><FrequencyChanges><FrequencyChange><Frequency dt:dt=""r8"">2825556</Frequency><Timestamp dt:dt=""r8"">2534450371825</Timestamp><Current dt:dt=""r8"">0</Current><DateUtc dt:dt=""string"">2015-10-05T17:01:17Z</DateUtc></FrequencyChange></FrequencyChanges></Clock>\n"	Arrow Flanker 2014-12488-1	60.016	1.0.0.100	1	420224566	Professional	2.0.10.353	2.0.10.353	10-05-2015	10/5/2015 5:01:17 PM	13:01:17	2.0.10.248	3	1	1	1	NA	NA	NA	NA	NA	NA	NA	NA	NA	NA	NA	NA	NA	NA	NA	NA	NA	NA	NA	NA	NA	NA	NA	NA	BlockProc	BlockList	NA	54	{RIGHTARROW}	NA	-100	1804	incongruent	NA	NA	NA	NA	NA	NA	NA	NA	NA	NA	NA	NA	NA	NA	NA	NA	NA	NA	NA	NA	3	2	TrialProc	TrialList	0	11	333631	17	0	17	331665	0	1	{RIGHTARROW}	-999999	0	333048	0	{RIGHTARROW}	572	333620	NA	NA	right	llrll.bmp	354	0	NA	-999999	15	336547	0	1	417	336964	0	NA	-999999	16	336980	0	1	896	337876	4	1	54
Arrow Flanker 2014	12488	1	"<?xml version=""1.0""?>\n<Clock xmlns:dt=""urn:schemas-microsoft-com:datatypes""><Description dt:dt=""string"">E-Prime Primary Realtime Clock</Description><StartTime><Timestamp dt:dt=""int"">0</Timestamp><DateUtc dt:dt=""string"">2015-10-05T17:01:17Z</DateUtc></StartTime><FrequencyChanges><FrequencyChange><Frequency dt:dt=""r8"">2825556</Frequency><Timestamp dt:dt=""r8"">2534450371825</Timestamp><Current dt:dt=""r8"">0</Current><DateUtc dt:dt=""string"">2015-10-05T17:01:17Z</DateUtc></FrequencyChange></FrequencyChanges></Clock>\n"	Arrow Flanker 2014-12488-1	60.016	1.0.0.100	1	420224566	Professional	2.0.10.353	2.0.10.353	10-05-2015	10/5/2015 5:01:17 PM	13:01:17	2.0.10.248	3	1	1	1	NA	NA	NA	NA	NA	NA	NA	NA	NA	NA	NA	NA	NA	NA	NA	NA	NA	NA	NA	NA	NA	NA	NA	NA	BlockProc	BlockList	NA	55	{RIGHTARROW}	NA	-100	1802	congruent	NA	NA	NA	NA	NA	NA	NA	NA	NA	NA	NA	NA	NA	NA	NA	NA	NA	NA	NA	NA	NA	NA	TrialProc	TrialList	0	6	341146	17	0	15	338963	0	1	{RIGHTARROW}	-999999	0	340446	0	{RIGHTARROW}	694	341140	NA	NA	right	rrrrr.bmp	354	0	NA	0	0	0	0	NA	0	0	0	NA	0	0	0	0	NA	0	0	2	1	55
Arrow Flanker 2014	12488	1	"<?xml version=""1.0""?>\n<Clock xmlns:dt=""urn:schemas-microsoft-com:datatypes""><Description dt:dt=""string"">E-Prime Primary Realtime Clock</Description><StartTime><Timestamp dt:dt=""int"">0</Timestamp><DateUtc dt:dt=""string"">2015-10-05T17:01:17Z</DateUtc></StartTime><FrequencyChanges><FrequencyChange><Frequency dt:dt=""r8"">2825556</Frequency><Timestamp dt:dt=""r8"">2534450371825</Timestamp><Current dt:dt=""r8"">0</Current><DateUtc dt:dt=""string"">2015-10-05T17:01:17Z</DateUtc></FrequencyChange></FrequencyChanges></Clock>\n"	Arrow Flanker 2014-12488-1	60.016	1.0.0.100	1	420224566	Professional	2.0.10.353	2.0.10.353	10-05-2015	10/5/2015 5:01:17 PM	13:01:17	2.0.10.248	3	1	1	1	NA	NA	NA	NA	NA	NA	NA	NA	NA	NA	NA	NA	NA	NA	NA	NA	NA	NA	NA	NA	NA	NA	NA	NA	BlockProc	BlockList	NA	56	{RIGHTARROW}	NA	-100	2529	neutral	NA	NA	NA	NA	NA	NA	NA	NA	NA	NA	NA	NA	NA	NA	NA	NA	NA	NA	NA	NA	NA	NA	TrialProc	TrialList	1	8	344028	17	0	16	341679	0	1	{RIGHTARROW}	-999999	0	343595	0	{RIGHTARROW}	424	344019	NA	NA	right	ooroo.bmp	354	0	NA	0	0	0	0	NA	0	0	0	NA	0	0	0	0	NA	0	0	6	1	56
Arrow Flanker 2014	12488	1	"<?xml version=""1.0""?>\n<Clock xmlns:dt=""urn:schemas-microsoft-com:datatypes""><Description dt:dt=""string"">E-Prime Primary Realtime Clock</Description><StartTime><Timestamp dt:dt=""int"">0</Timestamp><DateUtc dt:dt=""string"">2015-10-05T17:01:17Z</DateUtc></StartTime><FrequencyChanges><FrequencyChange><Frequency dt:dt=""r8"">2825556</Frequency><Timestamp dt:dt=""r8"">2534450371825</Timestamp><Current dt:dt=""r8"">0</Current><DateUtc dt:dt=""string"">2015-10-05T17:01:17Z</DateUtc></FrequencyChange></FrequencyChanges></Clock>\n"	Arrow Flanker 2014-12488-1	60.016	1.0.0.100	1	420224566	Professional	2.0.10.353	2.0.10.353	10-05-2015	10/5/2015 5:01:17 PM	13:01:17	2.0.10.248	3	1	1	1	NA	NA	NA	NA	NA	NA	NA	NA	NA	NA	NA	NA	NA	NA	NA	NA	NA	NA	NA	NA	NA	NA	NA	NA	BlockProc	BlockList	NA	57	{RIGHTARROW}	NA	-100	1866	neutral	NA	NA	NA	NA	NA	NA	NA	NA	NA	NA	NA	NA	NA	NA	NA	NA	NA	NA	NA	NA	NA	NA	TrialProc	TrialList	1	5	346361	17	0	17	344562	0	1	{RIGHTARROW}	-999999	0	345945	0	{RIGHTARROW}	411	346356	NA	NA	right	ooroo.bmp	354	0	NA	0	0	0	0	NA	0	0	0	NA	0	0	0	0	NA	0	0	6	1	57
Arrow Flanker 2014	12488	1	"<?xml version=""1.0""?>\n<Clock xmlns:dt=""urn:schemas-microsoft-com:datatypes""><Description dt:dt=""string"">E-Prime Primary Realtime Clock</Description><StartTime><Timestamp dt:dt=""int"">0</Timestamp><DateUtc dt:dt=""string"">2015-10-05T17:01:17Z</DateUtc></StartTime><FrequencyChanges><FrequencyChange><Frequency dt:dt=""r8"">2825556</Frequency><Timestamp dt:dt=""r8"">2534450371825</Timestamp><Current dt:dt=""r8"">0</Current><DateUtc dt:dt=""string"">2015-10-05T17:01:17Z</DateUtc></FrequencyChange></FrequencyChanges></Clock>\n"	Arrow Flanker 2014-12488-1	60.016	1.0.0.100	1	420224566	Professional	2.0.10.353	2.0.10.353	10-05-2015	10/5/2015 5:01:17 PM	13:01:17	2.0.10.248	3	1	1	1	NA	NA	NA	NA	NA	NA	NA	NA	NA	NA	NA	NA	NA	NA	NA	NA	NA	NA	NA	NA	NA	NA	NA	NA	BlockProc	BlockList	NA	58	{RIGHTARROW}	NA	-100	1200	neutral	NA	NA	NA	NA	NA	NA	NA	NA	NA	NA	NA	NA	NA	NA	NA	NA	NA	NA	NA	NA	NA	NA	TrialProc	TrialList	0	20	348344	17	0	16	346894	0	1	{RIGHTARROW}	-999999	0	347894	0	{RIGHTARROW}	429	348323	NA	NA	right	ooroo.bmp	354	0	NA	0	0	0	0	NA	0	0	0	NA	0	0	0	0	NA	0	0	6	1	58
Arrow Flanker 2014	12488	1	"<?xml version=""1.0""?>\n<Clock xmlns:dt=""urn:schemas-microsoft-com:datatypes""><Description dt:dt=""string"">E-Prime Primary Realtime Clock</Description><StartTime><Timestamp dt:dt=""int"">0</Timestamp><DateUtc dt:dt=""string"">2015-10-05T17:01:17Z</DateUtc></StartTime><FrequencyChanges><FrequencyChange><Frequency dt:dt=""r8"">2825556</Frequency><Timestamp dt:dt=""r8"">2534450371825</Timestamp><Current dt:dt=""r8"">0</Current><DateUtc dt:dt=""string"">2015-10-05T17:01:17Z</DateUtc></FrequencyChange></FrequencyChanges></Clock>\n"	Arrow Flanker 2014-12488-1	60.016	1.0.0.100	1	420224566	Professional	2.0.10.353	2.0.10.353	10-05-2015	10/5/2015 5:01:17 PM	13:01:17	2.0.10.248	3	1	1	1	NA	NA	NA	NA	NA	NA	NA	NA	NA	NA	NA	NA	NA	NA	NA	NA	NA	NA	NA	NA	NA	NA	NA	NA	BlockProc	BlockList	NA	59	{LEFTARROW}	NA	-100	1321	neutral	NA	NA	NA	NA	NA	NA	NA	NA	NA	NA	NA	NA	NA	NA	NA	NA	NA	NA	NA	NA	NA	NA	TrialProc	TrialList	0	11	350927	16	0	16	348877	0	1	{LEFTARROW}	-999999	0	350460	0	{LEFTARROW}	455	350915	NA	NA	left	ooloo.bmp	354	0	NA	0	0	0	0	NA	0	0	0	NA	0	0	0	0	NA	0	0	5	1	59
Arrow Flanker 2014	12488	1	"<?xml version=""1.0""?>\n<Clock xmlns:dt=""urn:schemas-microsoft-com:datatypes""><Description dt:dt=""string"">E-Prime Primary Realtime Clock</Description><StartTime><Timestamp dt:dt=""int"">0</Timestamp><DateUtc dt:dt=""string"">2015-10-05T17:01:17Z</DateUtc></StartTime><FrequencyChanges><FrequencyChange><Frequency dt:dt=""r8"">2825556</Frequency><Timestamp dt:dt=""r8"">2534450371825</Timestamp><Current dt:dt=""r8"">0</Current><DateUtc dt:dt=""string"">2015-10-05T17:01:17Z</DateUtc></FrequencyChange></FrequencyChanges></Clock>\n"	Arrow Flanker 2014-12488-1	60.016	1.0.0.100	1	420224566	Professional	2.0.10.353	2.0.10.353	10-05-2015	10/5/2015 5:01:17 PM	13:01:17	2.0.10.248	3	1	1	1	NA	NA	NA	NA	NA	NA	NA	NA	NA	NA	NA	NA	NA	NA	NA	NA	NA	NA	NA	NA	NA	NA	NA	NA	BlockProc	BlockList	NA	60	{RIGHTARROW}	NA	-100	1669	incongruent	NA	NA	NA	NA	NA	NA	NA	NA	NA	NA	NA	NA	NA	NA	NA	NA	NA	NA	NA	NA	NA	NA	TrialProc	TrialList	0	7	354026	17	0	17	351460	0	1	{RIGHTARROW}	-999999	0	353493	0	{RIGHTARROW}	526	354019	NA	NA	right	llrll.bmp	354	0	NA	0	0	0	0	NA	0	0	0	NA	0	0	0	0	NA	0	0	4	1	60
Arrow Flanker 2014	12488	1	"<?xml version=""1.0""?>\n<Clock xmlns:dt=""urn:schemas-microsoft-com:datatypes""><Description dt:dt=""string"">E-Prime Primary Realtime Clock</Description><StartTime><Timestamp dt:dt=""int"">0</Timestamp><DateUtc dt:dt=""string"">2015-10-05T17:01:17Z</DateUtc></StartTime><FrequencyChanges><FrequencyChange><Frequency dt:dt=""r8"">2825556</Frequency><Timestamp dt:dt=""r8"">2534450371825</Timestamp><Current dt:dt=""r8"">0</Current><DateUtc dt:dt=""string"">2015-10-05T17:01:17Z</DateUtc></FrequencyChange></FrequencyChanges></Clock>\n"	Arrow Flanker 2014-12488-1	60.016	1.0.0.100	1	420224566	Professional	2.0.10.353	2.0.10.353	10-05-2015	10/5/2015 5:01:17 PM	13:01:17	2.0.10.248	3	1	1	1	NA	NA	NA	NA	NA	NA	NA	NA	NA	NA	NA	NA	NA	NA	NA	NA	NA	NA	NA	NA	NA	NA	NA	NA	BlockProc	BlockList	NA	61	{RIGHTARROW}	NA	-100	1166	neutral	NA	NA	NA	NA	NA	NA	NA	NA	NA	NA	NA	NA	NA	NA	NA	NA	NA	NA	NA	NA	NA	NA	TrialProc	TrialList	0	11	356142	17	0	16	354559	0	1	{RIGHTARROW}	-999999	0	355759	0	{RIGHTARROW}	372	356131	NA	NA	right	ooroo.bmp	354	0	NA	0	0	0	0	NA	0	0	0	NA	0	0	0	0	NA	0	0	6	1	61
Arrow Flanker 2014	12488	1	"<?xml version=""1.0""?>\n<Clock xmlns:dt=""urn:schemas-microsoft-com:datatypes""><Description dt:dt=""string"">E-Prime Primary Realtime Clock</Description><StartTime><Timestamp dt:dt=""int"">0</Timestamp><DateUtc dt:dt=""string"">2015-10-05T17:01:17Z</DateUtc></StartTime><FrequencyChanges><FrequencyChange><Frequency dt:dt=""r8"">2825556</Frequency><Timestamp dt:dt=""r8"">2534450371825</Timestamp><Current dt:dt=""r8"">0</Current><DateUtc dt:dt=""string"">2015-10-05T17:01:17Z</DateUtc></FrequencyChange></FrequencyChanges></Clock>\n"	Arrow Flanker 2014-12488-1	60.016	1.0.0.100	1	420224566	Professional	2.0.10.353	2.0.10.353	10-05-2015	10/5/2015 5:01:17 PM	13:01:17	2.0.10.248	3	1	1	1	NA	NA	NA	NA	NA	NA	NA	NA	NA	NA	NA	NA	NA	NA	NA	NA	NA	NA	NA	NA	NA	NA	NA	NA	BlockProc	BlockList	NA	62	{RIGHTARROW}	NA	-100	1590	incongruent	NA	NA	NA	NA	NA	NA	NA	NA	NA	NA	NA	NA	NA	NA	NA	NA	NA	NA	NA	NA	NA	NA	TrialProc	TrialList	1	18	358741	17	0	16	356675	0	1	{RIGHTARROW}	-999999	0	358175	0	{RIGHTARROW}	548	358723	NA	NA	right	llrll.bmp	354	0	NA	0	0	0	0	NA	0	0	0	NA	0	0	0	0	NA	0	0	4	1	62
Arrow Flanker 2014	12488	1	"<?xml version=""1.0""?>\n<Clock xmlns:dt=""urn:schemas-microsoft-com:datatypes""><Description dt:dt=""string"">E-Prime Primary Realtime Clock</Description><StartTime><Timestamp dt:dt=""int"">0</Timestamp><DateUtc dt:dt=""string"">2015-10-05T17:01:17Z</DateUtc></StartTime><FrequencyChanges><FrequencyChange><Frequency dt:dt=""r8"">2825556</Frequency><Timestamp dt:dt=""r8"">2534450371825</Timestamp><Current dt:dt=""r8"">0</Current><DateUtc dt:dt=""string"">2015-10-05T17:01:17Z</DateUtc></FrequencyChange></FrequencyChanges></Clock>\n"	Arrow Flanker 2014-12488-1	60.016	1.0.0.100	1	420224566	Professional	2.0.10.353	2.0.10.353	10-05-2015	10/5/2015 5:01:17 PM	13:01:17	2.0.10.248	3	1	1	1	NA	NA	NA	NA	NA	NA	NA	NA	NA	NA	NA	NA	NA	NA	NA	NA	NA	NA	NA	NA	NA	NA	NA	NA	BlockProc	BlockList	NA	63	{RIGHTARROW}	NA	-100	1788	neutral	NA	NA	NA	NA	NA	NA	NA	NA	NA	NA	NA	NA	NA	NA	NA	NA	NA	NA	NA	NA	NA	NA	TrialProc	TrialList	0	17	361524	17	0	17	359275	0	1	{RIGHTARROW}	-999999	0	361074	0	{RIGHTARROW}	433	361507	NA	NA	right	ooroo.bmp	354	0	NA	0	0	0	0	NA	0	0	0	NA	0	0	0	0	NA	0	0	6	1	63
Arrow Flanker 2014	12488	1	"<?xml version=""1.0""?>\n<Clock xmlns:dt=""urn:schemas-microsoft-com:datatypes""><Description dt:dt=""string"">E-Prime Primary Realtime Clock</Description><StartTime><Timestamp dt:dt=""int"">0</Timestamp><DateUtc dt:dt=""string"">2015-10-05T17:01:17Z</DateUtc></StartTime><FrequencyChanges><FrequencyChange><Frequency dt:dt=""r8"">2825556</Frequency><Timestamp dt:dt=""r8"">2534450371825</Timestamp><Current dt:dt=""r8"">0</Current><DateUtc dt:dt=""string"">2015-10-05T17:01:17Z</DateUtc></FrequencyChange></FrequencyChanges></Clock>\n"	Arrow Flanker 2014-12488-1	60.016	1.0.0.100	1	420224566	Professional	2.0.10.353	2.0.10.353	10-05-2015	10/5/2015 5:01:17 PM	13:01:17	2.0.10.248	3	1	1	1	NA	NA	NA	NA	NA	NA	NA	NA	NA	NA	NA	NA	NA	NA	NA	NA	NA	NA	NA	NA	NA	NA	NA	NA	BlockProc	BlockList	NA	64	{LEFTARROW}	NA	-100	1556	congruent	NA	NA	NA	NA	NA	NA	NA	NA	NA	NA	NA	NA	NA	NA	NA	NA	NA	NA	NA	NA	NA	NA	TrialProc	TrialList	0	21	364440	16	0	16	362057	0	1	{LEFTARROW}	-999999	0	363790	0	{LEFTARROW}	629	364419	NA	NA	left	lllll.bmp	354	0	NA	0	0	0	0	NA	0	0	0	NA	0	0	0	0	NA	0	0	1	1	64
Arrow Flanker 2014	12488	1	"<?xml version=""1.0""?>\n<Clock xmlns:dt=""urn:schemas-microsoft-com:datatypes""><Description dt:dt=""string"">E-Prime Primary Realtime Clock</Description><StartTime><Timestamp dt:dt=""int"">0</Timestamp><DateUtc dt:dt=""string"">2015-10-05T17:01:17Z</DateUtc></StartTime><FrequencyChanges><FrequencyChange><Frequency dt:dt=""r8"">2825556</Frequency><Timestamp dt:dt=""r8"">2534450371825</Timestamp><Current dt:dt=""r8"">0</Current><DateUtc dt:dt=""string"">2015-10-05T17:01:17Z</DateUtc></FrequencyChange></FrequencyChanges></Clock>\n"	Arrow Flanker 2014-12488-1	60.016	1.0.0.100	1	420224566	Professional	2.0.10.353	2.0.10.353	10-05-2015	10/5/2015 5:01:17 PM	13:01:17	2.0.10.248	3	1	1	1	NA	NA	NA	NA	NA	NA	NA	NA	NA	NA	NA	NA	NA	NA	NA	NA	NA	NA	NA	NA	NA	NA	NA	NA	BlockProc	BlockList	NA	65	{RIGHTARROW}	NA	-100	1472	neutral	NA	NA	NA	NA	NA	NA	NA	NA	NA	NA	NA	NA	NA	NA	NA	NA	NA	NA	NA	NA	NA	NA	TrialProc	TrialList	1	9	367372	17	0	17	364973	0	1	{RIGHTARROW}	-999999	0	366906	0	{RIGHTARROW}	457	367363	NA	NA	right	ooroo.bmp	354	0	NA	0	0	0	0	NA	0	0	0	NA	0	0	0	0	NA	0	0	6	1	65
Arrow Flanker 2014	12488	1	"<?xml version=""1.0""?>\n<Clock xmlns:dt=""urn:schemas-microsoft-com:datatypes""><Description dt:dt=""string"">E-Prime Primary Realtime Clock</Description><StartTime><Timestamp dt:dt=""int"">0</Timestamp><DateUtc dt:dt=""string"">2015-10-05T17:01:17Z</DateUtc></StartTime><FrequencyChanges><FrequencyChange><Frequency dt:dt=""r8"">2825556</Frequency><Timestamp dt:dt=""r8"">2534450371825</Timestamp><Current dt:dt=""r8"">0</Current><DateUtc dt:dt=""string"">2015-10-05T17:01:17Z</DateUtc></FrequencyChange></FrequencyChanges></Clock>\n"	Arrow Flanker 2014-12488-1	60.016	1.0.0.100	1	420224566	Professional	2.0.10.353	2.0.10.353	10-05-2015	10/5/2015 5:01:17 PM	13:01:17	2.0.10.248	3	1	1	1	NA	NA	NA	NA	NA	NA	NA	NA	NA	NA	NA	NA	NA	NA	NA	NA	NA	NA	NA	NA	NA	NA	NA	NA	BlockProc	BlockList	NA	66	{LEFTARROW}	NA	-100	1851	incongruent	NA	NA	NA	NA	NA	NA	NA	NA	NA	NA	NA	NA	NA	NA	NA	NA	NA	NA	NA	NA	NA	NA	TrialProc	TrialList	0	7	370522	16	0	17	367906	0	1	{LEFTARROW}	-999999	0	369755	0	{LEFTARROW}	760	370515	NA	NA	left	rrlrr.bmp	354	0	NA	0	0	0	0	NA	0	0	0	NA	0	0	0	0	NA	0	0	3	1	66
Arrow Flanker 2014	12488	1	"<?xml version=""1.0""?>\n<Clock xmlns:dt=""urn:schemas-microsoft-com:datatypes""><Description dt:dt=""string"">E-Prime Primary Realtime Clock</Description><StartTime><Timestamp dt:dt=""int"">0</Timestamp><DateUtc dt:dt=""string"">2015-10-05T17:01:17Z</DateUtc></StartTime><FrequencyChanges><FrequencyChange><Frequency dt:dt=""r8"">2825556</Frequency><Timestamp dt:dt=""r8"">2534450371825</Timestamp><Current dt:dt=""r8"">0</Current><DateUtc dt:dt=""string"">2015-10-05T17:01:17Z</DateUtc></FrequencyChange></FrequencyChanges></Clock>\n"	Arrow Flanker 2014-12488-1	60.016	1.0.0.100	1	420224566	Professional	2.0.10.353	2.0.10.353	10-05-2015	10/5/2015 5:01:17 PM	13:01:17	2.0.10.248	3	1	1	1	NA	NA	NA	NA	NA	NA	NA	NA	NA	NA	NA	NA	NA	NA	NA	NA	NA	NA	NA	NA	NA	NA	NA	NA	BlockProc	BlockList	NA	67	{LEFTARROW}	NA	-100	1699	congruent	NA	NA	NA	NA	NA	NA	NA	NA	NA	NA	NA	NA	NA	NA	NA	NA	NA	NA	NA	NA	NA	NA	TrialProc	TrialList	0	9	372988	16	0	17	371055	0	1	{LEFTARROW}	-999999	0	372504	0	{LEFTARROW}	475	372979	NA	NA	left	lllll.bmp	354	0	NA	0	0	0	0	NA	0	0	0	NA	0	0	0	0	NA	0	0	1	1	67
Arrow Flanker 2014	12488	1	"<?xml version=""1.0""?>\n<Clock xmlns:dt=""urn:schemas-microsoft-com:datatypes""><Description dt:dt=""string"">E-Prime Primary Realtime Clock</Description><StartTime><Timestamp dt:dt=""int"">0</Timestamp><DateUtc dt:dt=""string"">2015-10-05T17:01:17Z</DateUtc></StartTime><FrequencyChanges><FrequencyChange><Frequency dt:dt=""r8"">2825556</Frequency><Timestamp dt:dt=""r8"">2534450371825</Timestamp><Current dt:dt=""r8"">0</Current><DateUtc dt:dt=""string"">2015-10-05T17:01:17Z</DateUtc></FrequencyChange></FrequencyChanges></Clock>\n"	Arrow Flanker 2014-12488-1	60.016	1.0.0.100	1	420224566	Professional	2.0.10.353	2.0.10.353	10-05-2015	10/5/2015 5:01:17 PM	13:01:17	2.0.10.248	3	1	1	1	NA	NA	NA	NA	NA	NA	NA	NA	NA	NA	NA	NA	NA	NA	NA	NA	NA	NA	NA	NA	NA	NA	NA	NA	BlockProc	BlockList	NA	68	{RIGHTARROW}	NA	-100	1256	congruent	NA	NA	NA	NA	NA	NA	NA	NA	NA	NA	NA	NA	NA	NA	NA	NA	NA	NA	NA	NA	NA	NA	TrialProc	TrialList	0	6	375737	17	0	17	373521	0	1	{RIGHTARROW}	-999999	0	375270	0	{RIGHTARROW}	461	375731	NA	NA	right	rrrrr.bmp	354	0	NA	0	0	0	0	NA	0	0	0	NA	0	0	0	0	NA	0	0	2	1	68
Arrow Flanker 2014	12488	1	"<?xml version=""1.0""?>\n<Clock xmlns:dt=""urn:schemas-microsoft-com:datatypes""><Description dt:dt=""string"">E-Prime Primary Realtime Clock</Description><StartTime><Timestamp dt:dt=""int"">0</Timestamp><DateUtc dt:dt=""string"">2015-10-05T17:01:17Z</DateUtc></StartTime><FrequencyChanges><FrequencyChange><Frequency dt:dt=""r8"">2825556</Frequency><Timestamp dt:dt=""r8"">2534450371825</Timestamp><Current dt:dt=""r8"">0</Current><DateUtc dt:dt=""string"">2015-10-05T17:01:17Z</DateUtc></FrequencyChange></FrequencyChanges></Clock>\n"	Arrow Flanker 2014-12488-1	60.016	1.0.0.100	1	420224566	Professional	2.0.10.353	2.0.10.353	10-05-2015	10/5/2015 5:01:17 PM	13:01:17	2.0.10.248	3	1	1	1	NA	NA	NA	NA	NA	NA	NA	NA	NA	NA	NA	NA	NA	NA	NA	NA	NA	NA	NA	NA	NA	NA	NA	NA	BlockProc	BlockList	NA	69	{LEFTARROW}	NA	-100	1821	incongruent	NA	NA	NA	NA	NA	NA	NA	NA	NA	NA	NA	NA	NA	NA	NA	NA	NA	NA	NA	NA	NA	NA	TrialProc	TrialList	0	5	378936	17	0	16	376270	0	1	{LEFTARROW}	-999999	0	378270	0	{LEFTARROW}	661	378931	NA	NA	left	rrlrr.bmp	354	0	NA	0	0	0	0	NA	0	0	0	NA	0	0	0	0	NA	0	0	3	1	69
Arrow Flanker 2014	12488	1	"<?xml version=""1.0""?>\n<Clock xmlns:dt=""urn:schemas-microsoft-com:datatypes""><Description dt:dt=""string"">E-Prime Primary Realtime Clock</Description><StartTime><Timestamp dt:dt=""int"">0</Timestamp><DateUtc dt:dt=""string"">2015-10-05T17:01:17Z</DateUtc></StartTime><FrequencyChanges><FrequencyChange><Frequency dt:dt=""r8"">2825556</Frequency><Timestamp dt:dt=""r8"">2534450371825</Timestamp><Current dt:dt=""r8"">0</Current><DateUtc dt:dt=""string"">2015-10-05T17:01:17Z</DateUtc></FrequencyChange></FrequencyChanges></Clock>\n"	Arrow Flanker 2014-12488-1	60.016	1.0.0.100	1	420224566	Professional	2.0.10.353	2.0.10.353	10-05-2015	10/5/2015 5:01:17 PM	13:01:17	2.0.10.248	3	1	1	1	NA	NA	NA	NA	NA	NA	NA	NA	NA	NA	NA	NA	NA	NA	NA	NA	NA	NA	NA	NA	NA	NA	NA	NA	BlockProc	BlockList	NA	70	{LEFTARROW}	NA	-100	1185	neutral	NA	NA	NA	NA	NA	NA	NA	NA	NA	NA	NA	NA	NA	NA	NA	NA	NA	NA	NA	NA	4	2	TrialProc	TrialList	1	7	381002	17	0	16	379469	0	1	{LEFTARROW}	-999999	0	380486	0	{LEFTARROW}	509	380995	NA	NA	left	ooloo.bmp	354	0	NA	-999999	16	381535	0	1	2932	384467	0	NA	-999999	18	384485	0	1	3414	387899	5	1	70
Arrow Flanker 2014	12488	1	"<?xml version=""1.0""?>\n<Clock xmlns:dt=""urn:schemas-microsoft-com:datatypes""><Description dt:dt=""string"">E-Prime Primary Realtime Clock</Description><StartTime><Timestamp dt:dt=""int"">0</Timestamp><DateUtc dt:dt=""string"">2015-10-05T17:01:17Z</DateUtc></StartTime><FrequencyChanges><FrequencyChange><Frequency dt:dt=""r8"">2825556</Frequency><Timestamp dt:dt=""r8"">2534450371825</Timestamp><Current dt:dt=""r8"">0</Current><DateUtc dt:dt=""string"">2015-10-05T17:01:17Z</DateUtc></FrequencyChange></FrequencyChanges></Clock>\n"	Arrow Flanker 2014-12488-1	60.016	1.0.0.100	1	420224566	Professional	2.0.10.353	2.0.10.353	10-05-2015	10/5/2015 5:01:17 PM	13:01:17	2.0.10.248	3	1	1	1	NA	NA	NA	NA	NA	NA	NA	NA	NA	NA	NA	NA	NA	NA	NA	NA	NA	NA	NA	NA	NA	NA	NA	NA	BlockProc	BlockList	NA	71	{LEFTARROW}	NA	-100	2160	neutral	NA	NA	NA	NA	NA	NA	NA	NA	NA	NA	NA	NA	NA	NA	NA	NA	NA	NA	NA	NA	NA	NA	TrialProc	TrialList	1	20	391399	17	0	24	389083	0	1	{LEFTARROW}	-999999	0	390816	0	{LEFTARROW}	562	391378	NA	NA	left	ooloo.bmp	354	0	NA	0	0	0	0	NA	0	0	0	NA	0	0	0	0	NA	0	0	5	1	71
Arrow Flanker 2014	12488	1	"<?xml version=""1.0""?>\n<Clock xmlns:dt=""urn:schemas-microsoft-com:datatypes""><Description dt:dt=""string"">E-Prime Primary Realtime Clock</Description><StartTime><Timestamp dt:dt=""int"">0</Timestamp><DateUtc dt:dt=""string"">2015-10-05T17:01:17Z</DateUtc></StartTime><FrequencyChanges><FrequencyChange><Frequency dt:dt=""r8"">2825556</Frequency><Timestamp dt:dt=""r8"">2534450371825</Timestamp><Current dt:dt=""r8"">0</Current><DateUtc dt:dt=""string"">2015-10-05T17:01:17Z</DateUtc></FrequencyChange></FrequencyChanges></Clock>\n"	Arrow Flanker 2014-12488-1	60.016	1.0.0.100	1	420224566	Professional	2.0.10.353	2.0.10.353	10-05-2015	10/5/2015 5:01:17 PM	13:01:17	2.0.10.248	3	1	1	1	NA	NA	NA	NA	NA	NA	NA	NA	NA	NA	NA	NA	NA	NA	NA	NA	NA	NA	NA	NA	NA	NA	NA	NA	BlockProc	BlockList	NA	72	{RIGHTARROW}	NA	-100	2596	incongruent	NA	NA	NA	NA	NA	NA	NA	NA	NA	NA	NA	NA	NA	NA	NA	NA	NA	NA	NA	NA	NA	NA	TrialProc	TrialList	1	18	394565	17	0	17	391933	0	1	{RIGHTARROW}	-999999	-1	393865	0	{RIGHTARROW}	681	394546	NA	NA	right	llrll.bmp	354	0	NA	0	0	0	0	NA	0	0	0	NA	0	0	0	0	NA	0	0	4	1	72
