ExperimentName	Subject	Session	Clock.Information	DataFile.Basename	Display.RefreshRate	ExperimentVersion	Group	RandomSeed	RuntimeCapabilities	RuntimeVersion	RuntimeVersionExpected	SessionDate	SessionStartDateTimeUtc	SessionTime	StudioVersion	Block	BlockList	BlockList.Cycle	BlockList.Sample	Both	CompletelyMW	CongMeanRT	CongTotal	Fragmented	GoodByeList	GoodByeList.Cycle	GoodByeList.Sample	IncongMeanRT	IncongTotal	MapBlockList	MapBlockList.Cycle	MapBlockList.Sample	Mindwandering	MostlyMW	MostlyOT	NeutralMeanRT	NeutralTotal	NumberProbes1	NumberProbes2	OnTask	PracBlockList	PracBlockList.Cycle	PracBlockList.Sample	Procedure[Block]	Running[Block]	Sequential	Trial	CorrectAnswer	CuePositionY	CuePositionY2	DurationOfFixation	FlankerType	MapTrialList	MapTrialList.Cycle	MapTrialList.Sample	PracSlideFixationStart.DurationError	PracSlideFixationStart.OnsetDelay	PracSlideFixationStart.OnsetTime	PracSlideFixationStart.OnsetToOnsetTime	PracSlideTarget.ACC	PracSlideTarget.CRESP	PracSlideTarget.DurationError	PracSlideTarget.OnsetDelay	PracSlideTarget.OnsetTime	PracSlideTarget.OnsetToOnsetTime	PracSlideTarget.RESP	PracSlideTarget.RT	PracSlideTarget.RTTime	PracSlideTarget.Tag	PracTrialList	PracTrialList.Cycle	PracTrialList.Sample	Probe1Resp	Probe2Resp	Procedure[Trial]	Running[Trial]	SlideFixationEnd.DurationError	SlideFixationEnd.OnsetDelay	SlideFixationEnd.OnsetTime	SlideFixationEnd.OnsetToOnsetTime	SlideFixationStart.DurationError	SlideFixationStart.OnsetDelay	SlideFixationStart.OnsetTime	SlideFixationStart.OnsetToOnsetTime	SlideTarget.ACC	SlideTarget.CRESP	SlideTarget.DurationError	SlideTarget.OnsetDelay	SlideTarget.OnsetTime	SlideTarget.OnsetToOnsetTime	SlideTarget.RESP	SlideTarget.RT	SlideTarget.RTTime	SlideTarget.Tag	TargerDirection	TargetDirection	TargetImage	TargetPosition	ThoughtProbe1.ACC	ThoughtProbe1.CRESP	ThoughtProbe1.DurationError	ThoughtProbe1.OnsetDelay	ThoughtProbe1.OnsetTime	ThoughtProbe1.OnsetToOnsetTime	ThoughtProbe1.RESP	ThoughtProbe1.RT	ThoughtProbe1.RTTime	ThoughtProbe2.ACC	ThoughtProbe2.CRESP	ThoughtProbe2.DurationError	ThoughtProbe2.OnsetDelay	ThoughtProbe2.OnsetTime	ThoughtProbe2.OnsetToOnsetTime	ThoughtProbe2.RESP	ThoughtProbe2.RT	ThoughtProbe2.RTTime	TrialList	TrialList.Cycle	TrialList.Sample
Arrow Flanker 2014	12000	1	"<?xml version=""1.0""?>\n<Clock xmlns:dt=""urn:schemas-microsoft-com:datatypes""><Description dt:dt=""string"">E-Prime Primary Realtime Clock</Description><StartTime><Timestamp dt:dt=""int"">0</Timestamp><DateUtc dt:dt=""string"">2015-02-18T18:05:32Z</DateUtc></StartTime><FrequencyChanges><FrequencyChange><Frequency dt:dt=""r8"">2825693</Frequency><Timestamp dt:dt=""r8"">1563970297613</Timestamp><Current dt:dt=""r8"">0</Current><DateUtc dt:dt=""string"">2015-02-18T18:05:32Z</DateUtc></FrequencyChange></FrequencyChanges></Clock>\n"	Arrow Flanker 2014-12000-1	60.019	1.0.0.86	1	602762138	Professional	2.0.10.353	2.0.10.353	02-18-2015	2/18/2015 6:05:32 PM	13:05:32	2.0.10.248	1	NA	NA	NA	NA	NA	NA	NA	NA	NA	NA	NA	NA	NA	1	1	1	NA	NA	NA	NA	NA	NA	NA	NA	NA	NA	NA	MapBlockProc	MapBlockList	NA	1	{LEFTARROW}	-100	NA	1552	NA	1	1	1	0	15	91615	1566	1	{LEFTARROW}	-999999	0	93681	0	{LEFTARROW}	870	94551	NA	NA	NA	NA	NA	NA	MapTrialProc	MapTrialList	NA	NA	NA	NA	NA	NA	NA	NA	NA	NA	NA	NA	NA	NA	NA	NA	NA	NA	left	NA	L.bmp	354	NA	NA	NA	NA	NA	NA	NA	NA	NA	NA	NA	NA	NA	NA	NA	NA	NA	NA	NA	NA	NA
Arrow Flanker 2014	12000	1	"<?xml version=""1.0""?>\n<Clock xmlns:dt=""urn:schemas-microsoft-com:datatypes""><Description dt:dt=""string"">E-Prime Primary Realtime Clock</Description><StartTime><Timestamp dt:dt=""int"">0</Timestamp><DateUtc dt:dt=""string"">2015-02-18T18:05:32Z</DateUtc></StartTime><FrequencyChanges><FrequencyChange><Frequency dt:dt=""r8"">2825693</Frequency><Timestamp dt:dt=""r8"">1563970297613</Timestamp><Current dt:dt=""r8"">0</Current><DateUtc dt:dt=""string"">2015-02-18T18:05:32Z</DateUtc></FrequencyChange></FrequencyChanges></Clock>\n"	Arrow Flanker 2014-12000-1	60.019	1.0.0.86	1	602762138	Professional	2.0.10.353	2.0.10.353	02-18-2015	2/18/2015 6:05:32 PM	13:05:32	2.0.10.248	1	NA	NA	NA	NA	NA	NA	NA	NA	NA	NA	NA	NA	NA	1	1	1	NA	NA	NA	NA	NA	NA	NA	NA	NA	NA	NA	MapBlockProc	MapBlockList	NA	2	{RIGHTARROW}	-100	NA	1046	NA	2	1	2	0	16	96097	1050	1	{RIGHTARROW}	-999999	16	97663	0	{RIGHTARROW}	384	98047	NA	NA	NA	NA	NA	NA	MapTrialProc	MapTrialList	NA	NA	NA	NA	NA	NA	NA	NA	NA	NA	NA	NA	NA	NA	NA	NA	NA	NA	right	NA	R.bmp	354	NA	NA	NA	NA	NA	NA	NA	NA	NA	NA	NA	NA	NA	NA	NA	NA	NA	NA	NA	NA	NA
Arrow Flanker 2014	12000	1	"<?xml version=""1.0""?>\n<Clock xmlns:dt=""urn:schemas-microsoft-com:datatypes""><Description dt:dt=""string"">E-Prime Primary Realtime Clock</Description><StartTime><Timestamp dt:dt=""int"">0</Timestamp><DateUtc dt:dt=""string"">2015-02-18T18:05:32Z</DateUtc></StartTime><FrequencyChanges><FrequencyChange><Frequency dt:dt=""r8"">2825693</Frequency><Timestamp dt:dt=""r8"">1563970297613</Timestamp><Current dt:dt=""r8"">0</Current><DateUtc dt:dt=""string"">2015-02-18T18:05:32Z</DateUtc></FrequencyChange></FrequencyChanges></Clock>\n"	Arrow Flanker 2014-12000-1	60.019	1.0.0.86	1	602762138	Professional	2.0.10.353	2.0.10.353	02-18-2015	2/18/2015 6:05:32 PM	13:05:32	2.0.10.248	1	NA	NA	NA	NA	NA	NA	NA	NA	NA	NA	NA	NA	NA	1	1	1	NA	NA	NA	NA	NA	NA	NA	NA	NA	NA	NA	MapBlockProc	MapBlockList	NA	3	{RIGHTARROW}	-100	NA	1195	NA	2	1	3	0	16	99579	1200	1	{RIGHTARROW}	-999999	0	101279	0	{RIGHTARROW}	368	101647	NA	NA	NA	NA	NA	NA	MapTrialProc	MapTrialList	NA	NA	NA	NA	NA	NA	NA	NA	NA	NA	NA	NA	NA	NA	NA	NA	NA	NA	right	NA	R.bmp	354	NA	NA	NA	NA	NA	NA	NA	NA	NA	NA	NA	NA	NA	NA	NA	NA	NA	NA	NA	NA	NA
Arrow Flanker 2014	12000	1	"<?xml version=""1.0""?>\n<Clock xmlns:dt=""urn:schemas-microsoft-com:datatypes""><Description dt:dt=""string"">E-Prime Primary Realtime Clock</Description><StartTime><Timestamp dt:dt=""int"">0</Timestamp><DateUtc dt:dt=""string"">2015-02-18T18:05:32Z</DateUtc></StartTime><FrequencyChanges><FrequencyChange><Frequency dt:dt=""r8"">2825693</Frequency><Timestamp dt:dt=""r8"">1563970297613</Timestamp><Current dt:dt=""r8"">0</Current><DateUtc dt:dt=""string"">2015-02-18T18:05:32Z</DateUtc></FrequencyChange></FrequencyChanges></Clock>\n"	Arrow Flanker 2014-12000-1	60.019	1.0.0.86	1	602762138	Professional	2.0.10.353	2.0.10.353	02-18-2015	2/18/2015 6:05:32 PM	13:05:32	2.0.10.248	1	NA	NA	NA	NA	NA	NA	NA	NA	NA	NA	NA	NA	NA	1	1	1	NA	NA	NA	NA	NA	NA	NA	NA	NA	NA	NA	MapBlockProc	MapBlockList	NA	4	{RIGHTARROW}	-100	NA	1510	NA	2	1	4	0	16	103178	1516	1	{RIGHTARROW}	-999999	0	105194	0	{RIGHTARROW}	357	105551	NA	NA	NA	NA	NA	NA	MapTrialProc	MapTrialList	NA	NA	NA	NA	NA	NA	NA	NA	NA	NA	NA	NA	NA	NA	NA	NA	NA	NA	right	NA	R.bmp	354	NA	NA	NA	NA	NA	NA	NA	NA	NA	NA	NA	NA	NA	NA	NA	NA	NA	NA	NA	NA	NA
Arrow Flanker 2014	12000	1	"<?xml version=""1.0""?>\n<Clock xmlns:dt=""urn:schemas-microsoft-com:datatypes""><Description dt:dt=""string"">E-Prime Primary Realtime Clock</Description><StartTime><Timestamp dt:dt=""int"">0</Timestamp><DateUtc dt:dt=""string"">2015-02-18T18:05:32Z</DateUtc></StartTime><FrequencyChanges><FrequencyChange><Frequency dt:dt=""r8"">2825693</Frequency><Timestamp dt:dt=""r8"">1563970297613</Timestamp><Current dt:dt=""r8"">0</Current><DateUtc dt:dt=""string"">2015-02-18T18:05:32Z</DateUtc></FrequencyChange></FrequencyChanges></Clock>\n"	Arrow Flanker 2014-12000-1	60.019	1.0.0.86	1	602762138	Professional	2.0.10.353	2.0.10.353	02-18-2015	2/18/2015 6:05:32 PM	13:05:32	2.0.10.248	1	NA	NA	NA	NA	NA	NA	NA	NA	NA	NA	NA	NA	NA	1	1	1	NA	NA	NA	NA	NA	NA	NA	NA	NA	NA	NA	MapBlockProc	MapBlockList	NA	5	{RIGHTARROW}	-100	NA	1558	NA	2	1	5	0	17	107094	1566	1	{RIGHTARROW}	-999999	-1	109159	0	{RIGHTARROW}	439	109598	NA	NA	NA	NA	NA	NA	MapTrialProc	MapTrialList	NA	NA	NA	NA	NA	NA	NA	NA	NA	NA	NA	NA	NA	NA	NA	NA	NA	NA	right	NA	R.bmp	354	NA	NA	NA	NA	NA	NA	NA	NA	NA	NA	NA	NA	NA	NA	NA	NA	NA	NA	NA	NA	NA
Arrow Flanker 2014	12000	1	"<?xml version=""1.0""?>\n<Clock xmlns:dt=""urn:schemas-microsoft-com:datatypes""><Description dt:dt=""string"">E-Prime Primary Realtime Clock</Description><StartTime><Timestamp dt:dt=""int"">0</Timestamp><DateUtc dt:dt=""string"">2015-02-18T18:05:32Z</DateUtc></StartTime><FrequencyChanges><FrequencyChange><Frequency dt:dt=""r8"">2825693</Frequency><Timestamp dt:dt=""r8"">1563970297613</Timestamp><Current dt:dt=""r8"">0</Current><DateUtc dt:dt=""string"">2015-02-18T18:05:32Z</DateUtc></FrequencyChange></FrequencyChanges></Clock>\n"	Arrow Flanker 2014-12000-1	60.019	1.0.0.86	1	602762138	Professional	2.0.10.353	2.0.10.353	02-18-2015	2/18/2015 6:05:32 PM	13:05:32	2.0.10.248	1	NA	NA	NA	NA	NA	NA	NA	NA	NA	NA	NA	NA	NA	1	1	1	NA	NA	NA	NA	NA	NA	NA	NA	NA	NA	NA	MapBlockProc	MapBlockList	NA	6	{LEFTARROW}	-100	NA	1415	NA	1	1	6	0	17	111126	1416	1	{LEFTARROW}	-999999	0	113042	0	{LEFTARROW}	420	113462	NA	NA	NA	NA	NA	NA	MapTrialProc	MapTrialList	NA	NA	NA	NA	NA	NA	NA	NA	NA	NA	NA	NA	NA	NA	NA	NA	NA	NA	left	NA	L.bmp	354	NA	NA	NA	NA	NA	NA	NA	NA	NA	NA	NA	NA	NA	NA	NA	NA	NA	NA	NA	NA	NA
Arrow Flanker 2014	12000	1	"<?xml version=""1.0""?>\n<Clock xmlns:dt=""urn:schemas-microsoft-com:datatypes""><Description dt:dt=""string"">E-Prime Primary Realtime Clock</Description><StartTime><Timestamp dt:dt=""int"">0</Timestamp><DateUtc dt:dt=""string"">2015-02-18T18:05:32Z</DateUtc></StartTime><FrequencyChanges><FrequencyChange><Frequency dt:dt=""r8"">2825693</Frequency><Timestamp dt:dt=""r8"">1563970297613</Timestamp><Current dt:dt=""r8"">0</Current><DateUtc dt:dt=""string"">2015-02-18T18:05:32Z</DateUtc></FrequencyChange></FrequencyChanges></Clock>\n"	Arrow Flanker 2014-12000-1	60.019	1.0.0.86	1	602762138	Professional	2.0.10.353	2.0.10.353	02-18-2015	2/18/2015 6:05:32 PM	13:05:32	2.0.10.248	1	NA	NA	NA	NA	NA	NA	NA	NA	NA	NA	NA	NA	NA	1	1	1	NA	NA	NA	NA	NA	NA	NA	NA	NA	NA	NA	MapBlockProc	MapBlockList	NA	7	{RIGHTARROW}	-100	NA	1430	NA	2	1	7	0	16	114991	1433	1	{RIGHTARROW}	-999999	0	116924	0	{RIGHTARROW}	338	117262	NA	NA	NA	NA	NA	NA	MapTrialProc	MapTrialList	NA	NA	NA	NA	NA	NA	NA	NA	NA	NA	NA	NA	NA	NA	NA	NA	NA	NA	right	NA	R.bmp	354	NA	NA	NA	NA	NA	NA	NA	NA	NA	NA	NA	NA	NA	NA	NA	NA	NA	NA	NA	NA	NA
Arrow Flanker 2014	12000	1	"<?xml version=""1.0""?>\n<Clock xmlns:dt=""urn:schemas-microsoft-com:datatypes""><Description dt:dt=""string"">E-Prime Primary Realtime Clock</Description><StartTime><Timestamp dt:dt=""int"">0</Timestamp><DateUtc dt:dt=""string"">2015-02-18T18:05:32Z</DateUtc></StartTime><FrequencyChanges><FrequencyChange><Frequency dt:dt=""r8"">2825693</Frequency><Timestamp dt:dt=""r8"">1563970297613</Timestamp><Current dt:dt=""r8"">0</Current><DateUtc dt:dt=""string"">2015-02-18T18:05:32Z</DateUtc></FrequencyChange></FrequencyChanges></Clock>\n"	Arrow Flanker 2014-12000-1	60.019	1.0.0.86	1	602762138	Professional	2.0.10.353	2.0.10.353	02-18-2015	2/18/2015 6:05:32 PM	13:05:32	2.0.10.248	1	NA	NA	NA	NA	NA	NA	NA	NA	NA	NA	NA	NA	NA	1	1	1	NA	NA	NA	NA	NA	NA	NA	NA	NA	NA	NA	MapBlockProc	MapBlockList	NA	8	{LEFTARROW}	-100	NA	1300	NA	1	1	8	0	16	118790	1316	1	{LEFTARROW}	-999999	0	120606	0	{LEFTARROW}	512	121118	NA	NA	NA	NA	NA	NA	MapTrialProc	MapTrialList	NA	NA	NA	NA	NA	NA	NA	NA	NA	NA	NA	NA	NA	NA	NA	NA	NA	NA	left	NA	L.bmp	354	NA	NA	NA	NA	NA	NA	NA	NA	NA	NA	NA	NA	NA	NA	NA	NA	NA	NA	NA	NA	NA
Arrow Flanker 2014	12000	1	"<?xml version=""1.0""?>\n<Clock xmlns:dt=""urn:schemas-microsoft-com:datatypes""><Description dt:dt=""string"">E-Prime Primary Realtime Clock</Description><StartTime><Timestamp dt:dt=""int"">0</Timestamp><DateUtc dt:dt=""string"">2015-02-18T18:05:32Z</DateUtc></StartTime><FrequencyChanges><FrequencyChange><Frequency dt:dt=""r8"">2825693</Frequency><Timestamp dt:dt=""r8"">1563970297613</Timestamp><Current dt:dt=""r8"">0</Current><DateUtc dt:dt=""string"">2015-02-18T18:05:32Z</DateUtc></FrequencyChange></FrequencyChanges></Clock>\n"	Arrow Flanker 2014-12000-1	60.019	1.0.0.86	1	602762138	Professional	2.0.10.353	2.0.10.353	02-18-2015	2/18/2015 6:05:32 PM	13:05:32	2.0.10.248	1	NA	NA	NA	NA	NA	NA	NA	NA	NA	NA	NA	NA	NA	1	1	1	NA	NA	NA	NA	NA	NA	NA	NA	NA	NA	NA	MapBlockProc	MapBlockList	NA	9	{LEFTARROW}	-100	NA	1439	NA	1	1	9	0	16	122655	1450	1	{LEFTARROW}	-999999	0	124605	0	{LEFTARROW}	456	125061	NA	NA	NA	NA	NA	NA	MapTrialProc	MapTrialList	NA	NA	NA	NA	NA	NA	NA	NA	NA	NA	NA	NA	NA	NA	NA	NA	NA	NA	left	NA	L.bmp	354	NA	NA	NA	NA	NA	NA	NA	NA	NA	NA	NA	NA	NA	NA	NA	NA	NA	NA	NA	NA	NA
Arrow Flanker 2014	12000	1	"<?xml version=""1.0""?>\n<Clock xmlns:dt=""urn:schemas-microsoft-com:datatypes""><Description dt:dt=""string"">E-Prime Primary Realtime Clock</Description><StartTime><Timestamp dt:dt=""int"">0</Timestamp><DateUtc dt:dt=""string"">2015-02-18T18:05:32Z</DateUtc></StartTime><FrequencyChanges><FrequencyChange><Frequency dt:dt=""r8"">2825693</Frequency><Timestamp dt:dt=""r8"">1563970297613</Timestamp><Current dt:dt=""r8"">0</Current><DateUtc dt:dt=""string"">2015-02-18T18:05:32Z</DateUtc></FrequencyChange></FrequencyChanges></Clock>\n"	Arrow Flanker 2014-12000-1	60.019	1.0.0.86	1	602762138	Professional	2.0.10.353	2.0.10.353	02-18-2015	2/18/2015 6:05:32 PM	13:05:32	2.0.10.248	1	NA	NA	NA	NA	NA	NA	NA	NA	NA	NA	NA	NA	NA	1	1	1	NA	NA	NA	NA	NA	NA	NA	NA	NA	NA	NA	MapBlockProc	MapBlockList	NA	10	{LEFTARROW}	-100	NA	1335	NA	1	1	10	0	16	126588	1349	1	{LEFTARROW}	-999999	0	128437	0	{LEFTARROW}	456	128893	NA	NA	NA	NA	NA	NA	MapTrialProc	MapTrialList	NA	NA	NA	NA	NA	NA	NA	NA	NA	NA	NA	NA	NA	NA	NA	NA	NA	NA	left	NA	L.bmp	354	NA	NA	NA	NA	NA	NA	NA	NA	NA	NA	NA	NA	NA	NA	NA	NA	NA	NA	NA	NA	NA
Arrow Flanker 2014	12000	1	"<?xml version=""1.0""?>\n<Clock xmlns:dt=""urn:schemas-microsoft-com:datatypes""><Description dt:dt=""string"">E-Prime Primary Realtime Clock</Description><StartTime><Timestamp dt:dt=""int"">0</Timestamp><DateUtc dt:dt=""string"">2015-02-18T18:05:32Z</DateUtc></StartTime><FrequencyChanges><FrequencyChange><Frequency dt:dt=""r8"">2825693</Frequency><Timestamp dt:dt=""r8"">1563970297613</Timestamp><Current dt:dt=""r8"">0</Current><DateUtc dt:dt=""string"">2015-02-18T18:05:32Z</DateUtc></FrequencyChange></FrequencyChanges></Clock>\n"	Arrow Flanker 2014-12000-1	60.019	1.0.0.86	1	602762138	Professional	2.0.10.353	2.0.10.353	02-18-2015	2/18/2015 6:05:32 PM	13:05:32	2.0.10.248	2	NA	NA	NA	NA	NA	NA	NA	NA	NA	NA	NA	NA	NA	NA	NA	NA	NA	NA	NA	NA	NA	NA	NA	NA	1	1	1	PracBlockProc	PracBlockList	NA	1	{RIGHTARROW}	-100	NA	1006	neutral	NA	NA	NA	0	12	149064	1016	1	{RIGHTARROW}	-999999	0	150580	0	{RIGHTARROW}	711	151291	NA	6	1	1	NA	NA	PracTrialProc	PracTrialList	NA	NA	NA	NA	NA	NA	NA	NA	NA	NA	NA	NA	NA	NA	NA	NA	NA	NA	right	NA	ooroo.bmp	354	NA	NA	NA	NA	NA	NA	NA	NA	NA	NA	NA	NA	NA	NA	NA	NA	NA	NA	NA	NA	NA
Arrow Flanker 2014	12000	1	"<?xml version=""1.0""?>\n<Clock xmlns:dt=""urn:schemas-microsoft-com:datatypes""><Description dt:dt=""string"">E-Prime Primary Realtime Clock</Description><StartTime><Timestamp dt:dt=""int"">0</Timestamp><DateUtc dt:dt=""string"">2015-02-18T18:05:32Z</DateUtc></StartTime><FrequencyChanges><FrequencyChange><Frequency dt:dt=""r8"">2825693</Frequency><Timestamp dt:dt=""r8"">1563970297613</Timestamp><Current dt:dt=""r8"">0</Current><DateUtc dt:dt=""string"">2015-02-18T18:05:32Z</DateUtc></FrequencyChange></FrequencyChanges></Clock>\n"	Arrow Flanker 2014-12000-1	60.019	1.0.0.86	1	602762138	Professional	2.0.10.353	2.0.10.353	02-18-2015	2/18/2015 6:05:32 PM	13:05:32	2.0.10.248	2	NA	NA	NA	NA	NA	NA	NA	NA	NA	NA	NA	NA	NA	NA	NA	NA	NA	NA	NA	NA	NA	NA	NA	NA	1	1	1	PracBlockProc	PracBlockList	NA	2	{RIGHTARROW}	-100	NA	666	congruent	NA	NA	NA	0	16	152829	667	1	{RIGHTARROW}	-999999	0	153996	0	{RIGHTARROW}	647	154643	NA	4	1	2	NA	NA	PracTrialProc	PracTrialList	NA	NA	NA	NA	NA	NA	NA	NA	NA	NA	NA	NA	NA	NA	NA	NA	NA	NA	right	NA	rrrrr.bmp	354	NA	NA	NA	NA	NA	NA	NA	NA	NA	NA	NA	NA	NA	NA	NA	NA	NA	NA	NA	NA	NA
Arrow Flanker 2014	12000	1	"<?xml version=""1.0""?>\n<Clock xmlns:dt=""urn:schemas-microsoft-com:datatypes""><Description dt:dt=""string"">E-Prime Primary Realtime Clock</Description><StartTime><Timestamp dt:dt=""int"">0</Timestamp><DateUtc dt:dt=""string"">2015-02-18T18:05:32Z</DateUtc></StartTime><FrequencyChanges><FrequencyChange><Frequency dt:dt=""r8"">2825693</Frequency><Timestamp dt:dt=""r8"">1563970297613</Timestamp><Current dt:dt=""r8"">0</Current><DateUtc dt:dt=""string"">2015-02-18T18:05:32Z</DateUtc></FrequencyChange></FrequencyChanges></Clock>\n"	Arrow Flanker 2014-12000-1	60.019	1.0.0.86	1	602762138	Professional	2.0.10.353	2.0.10.353	02-18-2015	2/18/2015 6:05:32 PM	13:05:32	2.0.10.248	2	NA	NA	NA	NA	NA	NA	NA	NA	NA	NA	NA	NA	NA	NA	NA	NA	NA	NA	NA	NA	NA	NA	NA	NA	1	1	1	PracBlockProc	PracBlockList	NA	3	{LEFTARROW}	-100	NA	1395	neutral	NA	NA	NA	0	16	156178	1400	1	{LEFTARROW}	-999999	0	158078	0	{LEFTARROW}	573	158651	NA	3	1	3	NA	NA	PracTrialProc	PracTrialList	NA	NA	NA	NA	NA	NA	NA	NA	NA	NA	NA	NA	NA	NA	NA	NA	NA	NA	left	NA	ooloo.bmp	354	NA	NA	NA	NA	NA	NA	NA	NA	NA	NA	NA	NA	NA	NA	NA	NA	NA	NA	NA	NA	NA
Arrow Flanker 2014	12000	1	"<?xml version=""1.0""?>\n<Clock xmlns:dt=""urn:schemas-microsoft-com:datatypes""><Description dt:dt=""string"">E-Prime Primary Realtime Clock</Description><StartTime><Timestamp dt:dt=""int"">0</Timestamp><DateUtc dt:dt=""string"">2015-02-18T18:05:32Z</DateUtc></StartTime><FrequencyChanges><FrequencyChange><Frequency dt:dt=""r8"">2825693</Frequency><Timestamp dt:dt=""r8"">1563970297613</Timestamp><Current dt:dt=""r8"">0</Current><DateUtc dt:dt=""string"">2015-02-18T18:05:32Z</DateUtc></FrequencyChange></FrequencyChanges></Clock>\n"	Arrow Flanker 2014-12000-1	60.019	1.0.0.86	1	602762138	Professional	2.0.10.353	2.0.10.353	02-18-2015	2/18/2015 6:05:32 PM	13:05:32	2.0.10.248	2	NA	NA	NA	NA	NA	NA	NA	NA	NA	NA	NA	NA	NA	NA	NA	NA	NA	NA	NA	NA	NA	NA	NA	NA	1	1	1	PracBlockProc	PracBlockList	NA	4	{RIGHTARROW}	-100	NA	1359	incongruent	NA	NA	NA	0	15	160177	1366	1	{RIGHTARROW}	-999999	0	162043	0	{RIGHTARROW}	808	162851	NA	5	1	4	NA	NA	PracTrialProc	PracTrialList	NA	NA	NA	NA	NA	NA	NA	NA	NA	NA	NA	NA	NA	NA	NA	NA	NA	NA	right	NA	llrll.bmp	354	NA	NA	NA	NA	NA	NA	NA	NA	NA	NA	NA	NA	NA	NA	NA	NA	NA	NA	NA	NA	NA
Arrow Flanker 2014	12000	1	"<?xml version=""1.0""?>\n<Clock xmlns:dt=""urn:schemas-microsoft-com:datatypes""><Description dt:dt=""string"">E-Prime Primary Realtime Clock</Description><StartTime><Timestamp dt:dt=""int"">0</Timestamp><DateUtc dt:dt=""string"">2015-02-18T18:05:32Z</DateUtc></StartTime><FrequencyChanges><FrequencyChange><Frequency dt:dt=""r8"">2825693</Frequency><Timestamp dt:dt=""r8"">1563970297613</Timestamp><Current dt:dt=""r8"">0</Current><DateUtc dt:dt=""string"">2015-02-18T18:05:32Z</DateUtc></FrequencyChange></FrequencyChanges></Clock>\n"	Arrow Flanker 2014-12000-1	60.019	1.0.0.86	1	602762138	Professional	2.0.10.353	2.0.10.353	02-18-2015	2/18/2015 6:05:32 PM	13:05:32	2.0.10.248	2	NA	NA	NA	NA	NA	NA	NA	NA	NA	NA	NA	NA	NA	NA	NA	NA	NA	NA	NA	NA	NA	NA	NA	NA	1	1	1	PracBlockProc	PracBlockList	NA	5	{LEFTARROW}	-100	NA	429	congruent	NA	NA	NA	0	16	164392	434	1	{LEFTARROW}	-999999	-1	165325	0	{LEFTARROW}	557	165882	NA	1	1	5	NA	NA	PracTrialProc	PracTrialList	NA	NA	NA	NA	NA	NA	NA	NA	NA	NA	NA	NA	NA	NA	NA	NA	NA	NA	left	NA	lllll.bmp	354	NA	NA	NA	NA	NA	NA	NA	NA	NA	NA	NA	NA	NA	NA	NA	NA	NA	NA	NA	NA	NA
Arrow Flanker 2014	12000	1	"<?xml version=""1.0""?>\n<Clock xmlns:dt=""urn:schemas-microsoft-com:datatypes""><Description dt:dt=""string"">E-Prime Primary Realtime Clock</Description><StartTime><Timestamp dt:dt=""int"">0</Timestamp><DateUtc dt:dt=""string"">2015-02-18T18:05:32Z</DateUtc></StartTime><FrequencyChanges><FrequencyChange><Frequency dt:dt=""r8"">2825693</Frequency><Timestamp dt:dt=""r8"">1563970297613</Timestamp><Current dt:dt=""r8"">0</Current><DateUtc dt:dt=""string"">2015-02-18T18:05:32Z</DateUtc></FrequencyChange></FrequencyChanges></Clock>\n"	Arrow Flanker 2014-12000-1	60.019	1.0.0.86	1	602762138	Professional	2.0.10.353	2.0.10.353	02-18-2015	2/18/2015 6:05:32 PM	13:05:32	2.0.10.248	2	NA	NA	NA	NA	NA	NA	NA	NA	NA	NA	NA	NA	NA	NA	NA	NA	NA	NA	NA	NA	NA	NA	NA	NA	1	1	1	PracBlockProc	PracBlockList	NA	6	{LEFTARROW}	-100	NA	796	incongruent	NA	NA	NA	0	16	167425	800	1	{LEFTARROW}	-999999	16	168741	0	{LEFTARROW}	653	169394	NA	2	1	6	NA	NA	PracTrialProc	PracTrialList	NA	NA	NA	NA	NA	NA	NA	NA	NA	NA	NA	NA	NA	NA	NA	NA	NA	NA	left	NA	rrlrr.bmp	354	NA	NA	NA	NA	NA	NA	NA	NA	NA	NA	NA	NA	NA	NA	NA	NA	NA	NA	NA	NA	NA
Arrow Flanker 2014	12000	1	"<?xml version=""1.0""?>\n<Clock xmlns:dt=""urn:schemas-microsoft-com:datatypes""><Description dt:dt=""string"">E-Prime Primary Realtime Clock</Description><StartTime><Timestamp dt:dt=""int"">0</Timestamp><DateUtc dt:dt=""string"">2015-02-18T18:05:32Z</DateUtc></StartTime><FrequencyChanges><FrequencyChange><Frequency dt:dt=""r8"">2825693</Frequency><Timestamp dt:dt=""r8"">1563970297613</Timestamp><Current dt:dt=""r8"">0</Current><DateUtc dt:dt=""string"">2015-02-18T18:05:32Z</DateUtc></FrequencyChange></FrequencyChanges></Clock>\n"	Arrow Flanker 2014-12000-1	60.019	1.0.0.86	1	602762138	Professional	2.0.10.353	2.0.10.353	02-18-2015	2/18/2015 6:05:32 PM	13:05:32	2.0.10.248	3	1	1	1	NA	NA	NA	NA	NA	NA	NA	NA	NA	NA	NA	NA	NA	NA	NA	NA	NA	NA	NA	NA	NA	NA	NA	NA	BlockProc	BlockList	NA	1	{LEFTARROW}	NA	-100	1505	neutral	NA	NA	NA	NA	NA	NA	NA	NA	NA	NA	NA	NA	NA	NA	NA	NA	NA	NA	NA	NA	NA	NA	TrialProc	TrialList	0	17	181954	16	0	16	180121	700	1	{LEFTARROW}	-999999	16	181337	0	{LEFTARROW}	600	181937	NA	NA	left	ooloo.bmp	354	0	NA	0	0	0	0	NA	0	0	0	NA	0	0	0	0	NA	0	0	5	1	1
Arrow Flanker 2014	12000	1	"<?xml version=""1.0""?>\n<Clock xmlns:dt=""urn:schemas-microsoft-com:datatypes""><Description dt:dt=""string"">E-Prime Primary Realtime Clock</Description><StartTime><Timestamp dt:dt=""int"">0</Timestamp><DateUtc dt:dt=""string"">2015-02-18T18:05:32Z</DateUtc></StartTime><FrequencyChanges><FrequencyChange><Frequency dt:dt=""r8"">2825693</Frequency><Timestamp dt:dt=""r8"">1563970297613</Timestamp><Current dt:dt=""r8"">0</Current><DateUtc dt:dt=""string"">2015-02-18T18:05:32Z</DateUtc></FrequencyChange></FrequencyChanges></Clock>\n"	Arrow Flanker 2014-12000-1	60.019	1.0.0.86	1	602762138	Professional	2.0.10.353	2.0.10.353	02-18-2015	2/18/2015 6:05:32 PM	13:05:32	2.0.10.248	3	1	1	1	NA	NA	NA	NA	NA	NA	NA	NA	NA	NA	NA	NA	NA	NA	NA	NA	NA	NA	NA	NA	NA	NA	NA	NA	BlockProc	BlockList	NA	2	{RIGHTARROW}	NA	-100	1776	incongruent	NA	NA	NA	NA	NA	NA	NA	NA	NA	NA	NA	NA	NA	NA	NA	NA	NA	NA	NA	NA	NA	NA	TrialProc	TrialList	0	7	184936	17	0	17	182487	1366	1	{RIGHTARROW}	-999999	0	184353	0	{RIGHTARROW}	576	184929	NA	NA	right	llrll.bmp	354	0	NA	0	0	0	0	NA	0	0	0	NA	0	0	0	0	NA	0	0	4	1	2
Arrow Flanker 2014	12000	1	"<?xml version=""1.0""?>\n<Clock xmlns:dt=""urn:schemas-microsoft-com:datatypes""><Description dt:dt=""string"">E-Prime Primary Realtime Clock</Description><StartTime><Timestamp dt:dt=""int"">0</Timestamp><DateUtc dt:dt=""string"">2015-02-18T18:05:32Z</DateUtc></StartTime><FrequencyChanges><FrequencyChange><Frequency dt:dt=""r8"">2825693</Frequency><Timestamp dt:dt=""r8"">1563970297613</Timestamp><Current dt:dt=""r8"">0</Current><DateUtc dt:dt=""string"">2015-02-18T18:05:32Z</DateUtc></FrequencyChange></FrequencyChanges></Clock>\n"	Arrow Flanker 2014-12000-1	60.019	1.0.0.86	1	602762138	Professional	2.0.10.353	2.0.10.353	02-18-2015	2/18/2015 6:05:32 PM	13:05:32	2.0.10.248	3	1	1	1	NA	NA	NA	NA	NA	NA	NA	NA	NA	NA	NA	NA	NA	NA	NA	NA	NA	NA	NA	NA	NA	NA	NA	NA	BlockProc	BlockList	NA	3	{RIGHTARROW}	NA	-100	1873	neutral	NA	NA	NA	NA	NA	NA	NA	NA	NA	NA	NA	NA	NA	NA	NA	NA	NA	NA	NA	NA	NA	NA	TrialProc	TrialList	0	19	187852	17	0	16	185469	1283	1	{RIGHTARROW}	-999999	0	187252	0	{RIGHTARROW}	581	187833	NA	NA	right	ooroo.bmp	354	0	NA	0	0	0	0	NA	0	0	0	NA	0	0	0	0	NA	0	0	6	1	3
Arrow Flanker 2014	12000	1	"<?xml version=""1.0""?>\n<Clock xmlns:dt=""urn:schemas-microsoft-com:datatypes""><Description dt:dt=""string"">E-Prime Primary Realtime Clock</Description><StartTime><Timestamp dt:dt=""int"">0</Timestamp><DateUtc dt:dt=""string"">2015-02-18T18:05:32Z</DateUtc></StartTime><FrequencyChanges><FrequencyChange><Frequency dt:dt=""r8"">2825693</Frequency><Timestamp dt:dt=""r8"">1563970297613</Timestamp><Current dt:dt=""r8"">0</Current><DateUtc dt:dt=""string"">2015-02-18T18:05:32Z</DateUtc></FrequencyChange></FrequencyChanges></Clock>\n"	Arrow Flanker 2014-12000-1	60.019	1.0.0.86	1	602762138	Professional	2.0.10.353	2.0.10.353	02-18-2015	2/18/2015 6:05:32 PM	13:05:32	2.0.10.248	3	1	1	1	NA	NA	NA	NA	NA	NA	NA	NA	NA	NA	NA	NA	NA	NA	NA	NA	NA	NA	NA	NA	NA	NA	NA	NA	BlockProc	BlockList	NA	4	{LEFTARROW}	NA	-100	886	congruent	NA	NA	NA	NA	NA	NA	NA	NA	NA	NA	NA	NA	NA	NA	NA	NA	NA	NA	NA	NA	NA	NA	TrialProc	TrialList	1	5	190318	16	0	16	188385	850	1	{LEFTARROW}	-999999	0	189735	0	{LEFTARROW}	577	190312	NA	NA	left	lllll.bmp	354	0	NA	0	0	0	0	NA	0	0	0	NA	0	0	0	0	NA	0	0	1	1	4
Arrow Flanker 2014	12000	1	"<?xml version=""1.0""?>\n<Clock xmlns:dt=""urn:schemas-microsoft-com:datatypes""><Description dt:dt=""string"">E-Prime Primary Realtime Clock</Description><StartTime><Timestamp dt:dt=""int"">0</Timestamp><DateUtc dt:dt=""string"">2015-02-18T18:05:32Z</DateUtc></StartTime><FrequencyChanges><FrequencyChange><Frequency dt:dt=""r8"">2825693</Frequency><Timestamp dt:dt=""r8"">1563970297613</Timestamp><Current dt:dt=""r8"">0</Current><DateUtc dt:dt=""string"">2015-02-18T18:05:32Z</DateUtc></FrequencyChange></FrequencyChanges></Clock>\n"	Arrow Flanker 2014-12000-1	60.019	1.0.0.86	1	602762138	Professional	2.0.10.353	2.0.10.353	02-18-2015	2/18/2015 6:05:32 PM	13:05:32	2.0.10.248	3	1	1	1	NA	NA	NA	NA	NA	NA	NA	NA	NA	NA	NA	NA	NA	NA	NA	NA	NA	NA	NA	NA	NA	NA	NA	NA	BlockProc	BlockList	NA	5	{LEFTARROW}	NA	-100	1996	incongruent	NA	NA	NA	NA	NA	NA	NA	NA	NA	NA	NA	NA	NA	NA	NA	NA	NA	NA	NA	NA	NA	NA	TrialProc	TrialList	0	11	193500	17	0	17	190851	1499	1	{LEFTARROW}	-999999	0	192850	0	{LEFTARROW}	638	193488	NA	NA	left	rrlrr.bmp	354	0	NA	0	0	0	0	NA	0	0	0	NA	0	0	0	0	NA	0	0	3	1	5
Arrow Flanker 2014	12000	1	"<?xml version=""1.0""?>\n<Clock xmlns:dt=""urn:schemas-microsoft-com:datatypes""><Description dt:dt=""string"">E-Prime Primary Realtime Clock</Description><StartTime><Timestamp dt:dt=""int"">0</Timestamp><DateUtc dt:dt=""string"">2015-02-18T18:05:32Z</DateUtc></StartTime><FrequencyChanges><FrequencyChange><Frequency dt:dt=""r8"">2825693</Frequency><Timestamp dt:dt=""r8"">1563970297613</Timestamp><Current dt:dt=""r8"">0</Current><DateUtc dt:dt=""string"">2015-02-18T18:05:32Z</DateUtc></FrequencyChange></FrequencyChanges></Clock>\n"	Arrow Flanker 2014-12000-1	60.019	1.0.0.86	1	602762138	Professional	2.0.10.353	2.0.10.353	02-18-2015	2/18/2015 6:05:32 PM	13:05:32	2.0.10.248	3	1	1	1	NA	NA	NA	NA	NA	NA	NA	NA	NA	NA	NA	NA	NA	NA	NA	NA	NA	NA	NA	NA	NA	NA	NA	NA	BlockProc	BlockList	NA	6	{LEFTARROW}	NA	-100	1351	neutral	NA	NA	NA	NA	NA	NA	NA	NA	NA	NA	NA	NA	NA	NA	NA	NA	NA	NA	NA	NA	NA	NA	TrialProc	TrialList	0	11	195483	16	0	16	194033	417	1	{LEFTARROW}	-999999	0	194950	0	{LEFTARROW}	522	195472	NA	NA	left	ooloo.bmp	354	0	NA	0	0	0	0	NA	0	0	0	NA	0	0	0	0	NA	0	0	5	1	6
Arrow Flanker 2014	12000	1	"<?xml version=""1.0""?>\n<Clock xmlns:dt=""urn:schemas-microsoft-com:datatypes""><Description dt:dt=""string"">E-Prime Primary Realtime Clock</Description><StartTime><Timestamp dt:dt=""int"">0</Timestamp><DateUtc dt:dt=""string"">2015-02-18T18:05:32Z</DateUtc></StartTime><FrequencyChanges><FrequencyChange><Frequency dt:dt=""r8"">2825693</Frequency><Timestamp dt:dt=""r8"">1563970297613</Timestamp><Current dt:dt=""r8"">0</Current><DateUtc dt:dt=""string"">2015-02-18T18:05:32Z</DateUtc></FrequencyChange></FrequencyChanges></Clock>\n"	Arrow Flanker 2014-12000-1	60.019	1.0.0.86	1	602762138	Professional	2.0.10.353	2.0.10.353	02-18-2015	2/18/2015 6:05:32 PM	13:05:32	2.0.10.248	3	1	1	1	NA	NA	NA	NA	NA	NA	NA	NA	NA	NA	NA	NA	NA	NA	NA	NA	NA	NA	NA	NA	NA	NA	NA	NA	BlockProc	BlockList	NA	7	{LEFTARROW}	NA	-100	977	incongruent	NA	NA	NA	NA	NA	NA	NA	NA	NA	NA	NA	NA	NA	NA	NA	NA	NA	NA	NA	NA	NA	NA	TrialProc	TrialList	0	19	197699	16	0	17	196016	600	1	{LEFTARROW}	-999999	0	197116	0	{LEFTARROW}	564	197680	NA	NA	left	rrlrr.bmp	354	0	NA	0	0	0	0	NA	0	0	0	NA	0	0	0	0	NA	0	0	3	1	7
Arrow Flanker 2014	12000	1	"<?xml version=""1.0""?>\n<Clock xmlns:dt=""urn:schemas-microsoft-com:datatypes""><Description dt:dt=""string"">E-Prime Primary Realtime Clock</Description><StartTime><Timestamp dt:dt=""int"">0</Timestamp><DateUtc dt:dt=""string"">2015-02-18T18:05:32Z</DateUtc></StartTime><FrequencyChanges><FrequencyChange><Frequency dt:dt=""r8"">2825693</Frequency><Timestamp dt:dt=""r8"">1563970297613</Timestamp><Current dt:dt=""r8"">0</Current><DateUtc dt:dt=""string"">2015-02-18T18:05:32Z</DateUtc></FrequencyChange></FrequencyChanges></Clock>\n"	Arrow Flanker 2014-12000-1	60.019	1.0.0.86	1	602762138	Professional	2.0.10.353	2.0.10.353	02-18-2015	2/18/2015 6:05:32 PM	13:05:32	2.0.10.248	3	1	1	1	NA	NA	NA	NA	NA	NA	NA	NA	NA	NA	NA	NA	NA	NA	NA	NA	NA	NA	NA	NA	NA	NA	NA	NA	BlockProc	BlockList	NA	8	{LEFTARROW}	NA	-100	1014	congruent	NA	NA	NA	NA	NA	NA	NA	NA	NA	NA	NA	NA	NA	NA	NA	NA	NA	NA	NA	NA	NA	NA	TrialProc	TrialList	0	10	199898	17	0	17	198232	683	1	{LEFTARROW}	-999999	0	199415	0	{LEFTARROW}	473	199888	NA	NA	left	lllll.bmp	354	0	NA	0	0	0	0	NA	0	0	0	NA	0	0	0	0	NA	0	0	1	1	8
Arrow Flanker 2014	12000	1	"<?xml version=""1.0""?>\n<Clock xmlns:dt=""urn:schemas-microsoft-com:datatypes""><Description dt:dt=""string"">E-Prime Primary Realtime Clock</Description><StartTime><Timestamp dt:dt=""int"">0</Timestamp><DateUtc dt:dt=""string"">2015-02-18T18:05:32Z</DateUtc></StartTime><FrequencyChanges><FrequencyChange><Frequency dt:dt=""r8"">2825693</Frequency><Timestamp dt:dt=""r8"">1563970297613</Timestamp><Current dt:dt=""r8"">0</Current><DateUtc dt:dt=""string"">2015-02-18T18:05:32Z</DateUtc></FrequencyChange></FrequencyChanges></Clock>\n"	Arrow Flanker 2014-12000-1	60.019	1.0.0.86	1	602762138	Professional	2.0.10.353	2.0.10.353	02-18-2015	2/18/2015 6:05:32 PM	13:05:32	2.0.10.248	3	1	1	1	NA	NA	NA	NA	NA	NA	NA	NA	NA	NA	NA	NA	NA	NA	NA	NA	NA	NA	NA	NA	NA	NA	NA	NA	BlockProc	BlockList	NA	9	{RIGHTARROW}	NA	-100	1386	neutral	NA	NA	NA	NA	NA	NA	NA	NA	NA	NA	NA	NA	NA	NA	NA	NA	NA	NA	NA	NA	NA	NA	TrialProc	TrialList	0	7	202831	16	0	16	200431	1283	1	{RIGHTARROW}	-999999	0	202214	0	{RIGHTARROW}	610	202824	NA	NA	right	ooroo.bmp	354	0	NA	0	0	0	0	NA	0	0	0	NA	0	0	0	0	NA	0	0	6	1	9
Arrow Flanker 2014	12000	1	"<?xml version=""1.0""?>\n<Clock xmlns:dt=""urn:schemas-microsoft-com:datatypes""><Description dt:dt=""string"">E-Prime Primary Realtime Clock</Description><StartTime><Timestamp dt:dt=""int"">0</Timestamp><DateUtc dt:dt=""string"">2015-02-18T18:05:32Z</DateUtc></StartTime><FrequencyChanges><FrequencyChange><Frequency dt:dt=""r8"">2825693</Frequency><Timestamp dt:dt=""r8"">1563970297613</Timestamp><Current dt:dt=""r8"">0</Current><DateUtc dt:dt=""string"">2015-02-18T18:05:32Z</DateUtc></FrequencyChange></FrequencyChanges></Clock>\n"	Arrow Flanker 2014-12000-1	60.019	1.0.0.86	1	602762138	Professional	2.0.10.353	2.0.10.353	02-18-2015	2/18/2015 6:05:32 PM	13:05:32	2.0.10.248	3	1	1	1	NA	NA	NA	NA	NA	NA	NA	NA	NA	NA	NA	NA	NA	NA	NA	NA	NA	NA	NA	NA	NA	NA	NA	NA	BlockProc	BlockList	NA	10	{LEFTARROW}	NA	-100	1251	incongruent	NA	NA	NA	NA	NA	NA	NA	NA	NA	NA	NA	NA	NA	NA	NA	NA	NA	NA	NA	NA	NA	NA	TrialProc	TrialList	1	10	205546	17	0	17	203364	1116	1	{LEFTARROW}	-999999	0	204980	0	{LEFTARROW}	555	205535	NA	NA	left	rrlrr.bmp	354	0	NA	0	0	0	0	NA	0	0	0	NA	0	0	0	0	NA	0	0	3	1	10
Arrow Flanker 2014	12000	1	"<?xml version=""1.0""?>\n<Clock xmlns:dt=""urn:schemas-microsoft-com:datatypes""><Description dt:dt=""string"">E-Prime Primary Realtime Clock</Description><StartTime><Timestamp dt:dt=""int"">0</Timestamp><DateUtc dt:dt=""string"">2015-02-18T18:05:32Z</DateUtc></StartTime><FrequencyChanges><FrequencyChange><Frequency dt:dt=""r8"">2825693</Frequency><Timestamp dt:dt=""r8"">1563970297613</Timestamp><Current dt:dt=""r8"">0</Current><DateUtc dt:dt=""string"">2015-02-18T18:05:32Z</DateUtc></FrequencyChange></FrequencyChanges></Clock>\n"	Arrow Flanker 2014-12000-1	60.019	1.0.0.86	1	602762138	Professional	2.0.10.353	2.0.10.353	02-18-2015	2/18/2015 6:05:32 PM	13:05:32	2.0.10.248	3	1	1	1	NA	NA	NA	NA	NA	NA	NA	NA	NA	NA	NA	NA	NA	NA	NA	NA	NA	NA	NA	NA	NA	NA	NA	NA	BlockProc	BlockList	NA	11	{RIGHTARROW}	NA	-100	1591	neutral	NA	NA	NA	NA	NA	NA	NA	NA	NA	NA	NA	NA	NA	NA	NA	NA	NA	NA	NA	NA	NA	NA	TrialProc	TrialList	0	12	208579	16	0	17	206080	1516	1	{RIGHTARROW}	-999999	0	208096	0	{RIGHTARROW}	471	208567	NA	NA	right	ooroo.bmp	354	0	NA	0	0	0	0	NA	0	0	0	NA	0	0	0	0	NA	0	0	6	1	11
Arrow Flanker 2014	12000	1	"<?xml version=""1.0""?>\n<Clock xmlns:dt=""urn:schemas-microsoft-com:datatypes""><Description dt:dt=""string"">E-Prime Primary Realtime Clock</Description><StartTime><Timestamp dt:dt=""int"">0</Timestamp><DateUtc dt:dt=""string"">2015-02-18T18:05:32Z</DateUtc></StartTime><FrequencyChanges><FrequencyChange><Frequency dt:dt=""r8"">2825693</Frequency><Timestamp dt:dt=""r8"">1563970297613</Timestamp><Current dt:dt=""r8"">0</Current><DateUtc dt:dt=""string"">2015-02-18T18:05:32Z</DateUtc></FrequencyChange></FrequencyChanges></Clock>\n"	Arrow Flanker 2014-12000-1	60.019	1.0.0.86	1	602762138	Professional	2.0.10.353	2.0.10.353	02-18-2015	2/18/2015 6:05:32 PM	13:05:32	2.0.10.248	3	1	1	1	NA	NA	NA	NA	NA	NA	NA	NA	NA	NA	NA	NA	NA	NA	NA	NA	NA	NA	NA	NA	NA	NA	NA	NA	BlockProc	BlockList	NA	12	{RIGHTARROW}	NA	-100	1735	congruent	NA	NA	NA	NA	NA	NA	NA	NA	NA	NA	NA	NA	NA	NA	NA	NA	NA	NA	NA	NA	NA	NA	TrialProc	TrialList	0	19	211178	17	0	17	209112	550	1	{RIGHTARROW}	-999999	0	210162	0	{RIGHTARROW}	997	211159	NA	NA	right	rrrrr.bmp	354	0	NA	0	0	0	0	NA	0	0	0	NA	0	0	0	0	NA	0	0	2	1	12
Arrow Flanker 2014	12000	1	"<?xml version=""1.0""?>\n<Clock xmlns:dt=""urn:schemas-microsoft-com:datatypes""><Description dt:dt=""string"">E-Prime Primary Realtime Clock</Description><StartTime><Timestamp dt:dt=""int"">0</Timestamp><DateUtc dt:dt=""string"">2015-02-18T18:05:32Z</DateUtc></StartTime><FrequencyChanges><FrequencyChange><Frequency dt:dt=""r8"">2825693</Frequency><Timestamp dt:dt=""r8"">1563970297613</Timestamp><Current dt:dt=""r8"">0</Current><DateUtc dt:dt=""string"">2015-02-18T18:05:32Z</DateUtc></FrequencyChange></FrequencyChanges></Clock>\n"	Arrow Flanker 2014-12000-1	60.019	1.0.0.86	1	602762138	Professional	2.0.10.353	2.0.10.353	02-18-2015	2/18/2015 6:05:32 PM	13:05:32	2.0.10.248	3	1	1	1	NA	NA	NA	NA	NA	NA	NA	NA	NA	NA	NA	NA	NA	NA	NA	NA	NA	NA	NA	NA	NA	NA	NA	NA	BlockProc	BlockList	NA	13	{LEFTARROW}	NA	-100	1496	incongruent	NA	NA	NA	NA	NA	NA	NA	NA	NA	NA	NA	NA	NA	NA	NA	NA	NA	NA	NA	NA	NA	NA	TrialProc	TrialList	0	20	213611	16	0	16	211711	900	1	{LEFTARROW}	-999999	0	213111	0	{LEFTARROW}	480	213591	NA	NA	left	rrlrr.bmp	354	0	NA	0	0	0	0	NA	0	0	0	NA	0	0	0	0	NA	0	0	3	1	13
Arrow Flanker 2014	12000	1	"<?xml version=""1.0""?>\n<Clock xmlns:dt=""urn:schemas-microsoft-com:datatypes""><Description dt:dt=""string"">E-Prime Primary Realtime Clock</Description><StartTime><Timestamp dt:dt=""int"">0</Timestamp><DateUtc dt:dt=""string"">2015-02-18T18:05:32Z</DateUtc></StartTime><FrequencyChanges><FrequencyChange><Frequency dt:dt=""r8"">2825693</Frequency><Timestamp dt:dt=""r8"">1563970297613</Timestamp><Current dt:dt=""r8"">0</Current><DateUtc dt:dt=""string"">2015-02-18T18:05:32Z</DateUtc></FrequencyChange></FrequencyChanges></Clock>\n"	Arrow Flanker 2014-12000-1	60.019	1.0.0.86	1	602762138	Professional	2.0.10.353	2.0.10.353	02-18-2015	2/18/2015 6:05:32 PM	13:05:32	2.0.10.248	3	1	1	1	NA	NA	NA	NA	NA	NA	NA	NA	NA	NA	NA	NA	NA	NA	NA	NA	NA	NA	NA	NA	NA	NA	NA	NA	BlockProc	BlockList	NA	14	{LEFTARROW}	NA	-100	2224	neutral	NA	NA	NA	NA	NA	NA	NA	NA	NA	NA	NA	NA	NA	NA	NA	NA	NA	NA	NA	NA	NA	NA	TrialProc	TrialList	0	10	216193	17	0	17	214144	1133	1	{LEFTARROW}	-999999	0	215777	0	{LEFTARROW}	406	216183	NA	NA	left	ooloo.bmp	354	0	NA	0	0	0	0	NA	0	0	0	NA	0	0	0	0	NA	0	0	5	1	14
Arrow Flanker 2014	12000	1	"<?xml version=""1.0""?>\n<Clock xmlns:dt=""urn:schemas-microsoft-com:datatypes""><Description dt:dt=""string"">E-Prime Primary Realtime Clock</Description><StartTime><Timestamp dt:dt=""int"">0</Timestamp><DateUtc dt:dt=""string"">2015-02-18T18:05:32Z</DateUtc></StartTime><FrequencyChanges><FrequencyChange><Frequency dt:dt=""r8"">2825693</Frequency><Timestamp dt:dt=""r8"">1563970297613</Timestamp><Current dt:dt=""r8"">0</Current><DateUtc dt:dt=""string"">2015-02-18T18:05:32Z</DateUtc></FrequencyChange></FrequencyChanges></Clock>\n"	Arrow Flanker 2014-12000-1	60.019	1.0.0.86	1	602762138	Professional	2.0.10.353	2.0.10.353	02-18-2015	2/18/2015 6:05:32 PM	13:05:32	2.0.10.248	3	1	1	1	NA	NA	NA	NA	NA	NA	NA	NA	NA	NA	NA	NA	NA	NA	NA	NA	NA	NA	NA	NA	NA	NA	NA	NA	BlockProc	BlockList	NA	15	{RIGHTARROW}	NA	-100	1761	incongruent	NA	NA	NA	NA	NA	NA	NA	NA	NA	NA	NA	NA	NA	NA	NA	NA	NA	NA	NA	NA	NA	NA	TrialProc	TrialList	0	7	219342	17	0	16	216726	1500	1	{RIGHTARROW}	-999999	0	218726	0	{RIGHTARROW}	608	219334	NA	NA	right	llrll.bmp	354	0	NA	0	0	0	0	NA	0	0	0	NA	0	0	0	0	NA	0	0	4	1	15
Arrow Flanker 2014	12000	1	"<?xml version=""1.0""?>\n<Clock xmlns:dt=""urn:schemas-microsoft-com:datatypes""><Description dt:dt=""string"">E-Prime Primary Realtime Clock</Description><StartTime><Timestamp dt:dt=""int"">0</Timestamp><DateUtc dt:dt=""string"">2015-02-18T18:05:32Z</DateUtc></StartTime><FrequencyChanges><FrequencyChange><Frequency dt:dt=""r8"">2825693</Frequency><Timestamp dt:dt=""r8"">1563970297613</Timestamp><Current dt:dt=""r8"">0</Current><DateUtc dt:dt=""string"">2015-02-18T18:05:32Z</DateUtc></FrequencyChange></FrequencyChanges></Clock>\n"	Arrow Flanker 2014-12000-1	60.019	1.0.0.86	1	602762138	Professional	2.0.10.353	2.0.10.353	02-18-2015	2/18/2015 6:05:32 PM	13:05:32	2.0.10.248	3	1	1	1	NA	NA	NA	NA	NA	NA	NA	NA	NA	NA	NA	NA	NA	NA	NA	NA	NA	NA	NA	NA	NA	NA	NA	NA	BlockProc	BlockList	NA	16	{RIGHTARROW}	NA	-100	1105	congruent	NA	NA	NA	NA	NA	NA	NA	NA	NA	NA	NA	NA	NA	NA	NA	NA	NA	NA	NA	NA	NA	NA	TrialProc	TrialList	0	11	222058	17	0	16	219875	1067	1	{RIGHTARROW}	-999999	-1	221441	0	{RIGHTARROW}	605	222046	NA	NA	right	rrrrr.bmp	354	0	NA	0	0	0	0	NA	0	0	0	NA	0	0	0	0	NA	0	0	2	1	16
Arrow Flanker 2014	12000	1	"<?xml version=""1.0""?>\n<Clock xmlns:dt=""urn:schemas-microsoft-com:datatypes""><Description dt:dt=""string"">E-Prime Primary Realtime Clock</Description><StartTime><Timestamp dt:dt=""int"">0</Timestamp><DateUtc dt:dt=""string"">2015-02-18T18:05:32Z</DateUtc></StartTime><FrequencyChanges><FrequencyChange><Frequency dt:dt=""r8"">2825693</Frequency><Timestamp dt:dt=""r8"">1563970297613</Timestamp><Current dt:dt=""r8"">0</Current><DateUtc dt:dt=""string"">2015-02-18T18:05:32Z</DateUtc></FrequencyChange></FrequencyChanges></Clock>\n"	Arrow Flanker 2014-12000-1	60.019	1.0.0.86	1	602762138	Professional	2.0.10.353	2.0.10.353	02-18-2015	2/18/2015 6:05:32 PM	13:05:32	2.0.10.248	3	1	1	1	NA	NA	NA	NA	NA	NA	NA	NA	NA	NA	NA	NA	NA	NA	NA	NA	NA	NA	NA	NA	NA	NA	NA	NA	BlockProc	BlockList	NA	17	{RIGHTARROW}	NA	-100	1848	neutral	NA	NA	NA	NA	NA	NA	NA	NA	NA	NA	NA	NA	NA	NA	NA	NA	NA	NA	NA	NA	NA	NA	TrialProc	TrialList	0	9	224607	17	0	16	222591	1083	1	{RIGHTARROW}	-999999	0	224174	0	{RIGHTARROW}	424	224598	NA	NA	right	ooroo.bmp	354	0	NA	0	0	0	0	NA	0	0	0	NA	0	0	0	0	NA	0	0	6	1	17
Arrow Flanker 2014	12000	1	"<?xml version=""1.0""?>\n<Clock xmlns:dt=""urn:schemas-microsoft-com:datatypes""><Description dt:dt=""string"">E-Prime Primary Realtime Clock</Description><StartTime><Timestamp dt:dt=""int"">0</Timestamp><DateUtc dt:dt=""string"">2015-02-18T18:05:32Z</DateUtc></StartTime><FrequencyChanges><FrequencyChange><Frequency dt:dt=""r8"">2825693</Frequency><Timestamp dt:dt=""r8"">1563970297613</Timestamp><Current dt:dt=""r8"">0</Current><DateUtc dt:dt=""string"">2015-02-18T18:05:32Z</DateUtc></FrequencyChange></FrequencyChanges></Clock>\n"	Arrow Flanker 2014-12000-1	60.019	1.0.0.86	1	602762138	Professional	2.0.10.353	2.0.10.353	02-18-2015	2/18/2015 6:05:32 PM	13:05:32	2.0.10.248	3	1	1	1	NA	NA	NA	NA	NA	NA	NA	NA	NA	NA	NA	NA	NA	NA	NA	NA	NA	NA	NA	NA	NA	NA	NA	NA	BlockProc	BlockList	NA	18	{RIGHTARROW}	NA	-100	2356	neutral	NA	NA	NA	NA	NA	NA	NA	NA	NA	NA	NA	NA	NA	NA	NA	NA	NA	NA	NA	NA	NA	NA	TrialProc	TrialList	0	11	227273	17	0	16	225140	1200	1	{RIGHTARROW}	-999999	0	226840	0	{RIGHTARROW}	422	227262	NA	NA	right	ooroo.bmp	354	0	NA	0	0	0	0	NA	0	0	0	NA	0	0	0	0	NA	0	0	6	1	18
Arrow Flanker 2014	12000	1	"<?xml version=""1.0""?>\n<Clock xmlns:dt=""urn:schemas-microsoft-com:datatypes""><Description dt:dt=""string"">E-Prime Primary Realtime Clock</Description><StartTime><Timestamp dt:dt=""int"">0</Timestamp><DateUtc dt:dt=""string"">2015-02-18T18:05:32Z</DateUtc></StartTime><FrequencyChanges><FrequencyChange><Frequency dt:dt=""r8"">2825693</Frequency><Timestamp dt:dt=""r8"">1563970297613</Timestamp><Current dt:dt=""r8"">0</Current><DateUtc dt:dt=""string"">2015-02-18T18:05:32Z</DateUtc></FrequencyChange></FrequencyChanges></Clock>\n"	Arrow Flanker 2014-12000-1	60.019	1.0.0.86	1	602762138	Professional	2.0.10.353	2.0.10.353	02-18-2015	2/18/2015 6:05:32 PM	13:05:32	2.0.10.248	3	1	1	1	NA	NA	NA	NA	NA	NA	NA	NA	NA	NA	NA	NA	NA	NA	NA	NA	NA	NA	NA	NA	NA	NA	NA	NA	BlockProc	BlockList	NA	19	{RIGHTARROW}	NA	-100	2254	congruent	NA	NA	NA	NA	NA	NA	NA	NA	NA	NA	NA	NA	NA	NA	NA	NA	NA	NA	NA	NA	NA	NA	TrialProc	TrialList	0	9	230239	16	0	16	227806	1550	1	{RIGHTARROW}	-999999	0	229856	0	{RIGHTARROW}	374	230230	NA	NA	right	rrrrr.bmp	354	0	NA	0	0	0	0	NA	0	0	0	NA	0	0	0	0	NA	0	0	2	1	19
Arrow Flanker 2014	12000	1	"<?xml version=""1.0""?>\n<Clock xmlns:dt=""urn:schemas-microsoft-com:datatypes""><Description dt:dt=""string"">E-Prime Primary Realtime Clock</Description><StartTime><Timestamp dt:dt=""int"">0</Timestamp><DateUtc dt:dt=""string"">2015-02-18T18:05:32Z</DateUtc></StartTime><FrequencyChanges><FrequencyChange><Frequency dt:dt=""r8"">2825693</Frequency><Timestamp dt:dt=""r8"">1563970297613</Timestamp><Current dt:dt=""r8"">0</Current><DateUtc dt:dt=""string"">2015-02-18T18:05:32Z</DateUtc></FrequencyChange></FrequencyChanges></Clock>\n"	Arrow Flanker 2014-12000-1	60.019	1.0.0.86	1	602762138	Professional	2.0.10.353	2.0.10.353	02-18-2015	2/18/2015 6:05:32 PM	13:05:32	2.0.10.248	3	1	1	1	NA	NA	NA	NA	NA	NA	NA	NA	NA	NA	NA	NA	NA	NA	NA	NA	NA	NA	NA	NA	NA	NA	NA	NA	BlockProc	BlockList	NA	20	{RIGHTARROW}	NA	-100	808	neutral	NA	NA	NA	NA	NA	NA	NA	NA	NA	NA	NA	NA	NA	NA	NA	NA	NA	NA	NA	NA	NA	NA	TrialProc	TrialList	0	9	232255	16	0	17	230772	450	1	{RIGHTARROW}	-999999	0	231722	0	{RIGHTARROW}	524	232246	NA	NA	right	ooroo.bmp	354	0	NA	0	0	0	0	NA	0	0	0	NA	0	0	0	0	NA	0	0	6	1	20
Arrow Flanker 2014	12000	1	"<?xml version=""1.0""?>\n<Clock xmlns:dt=""urn:schemas-microsoft-com:datatypes""><Description dt:dt=""string"">E-Prime Primary Realtime Clock</Description><StartTime><Timestamp dt:dt=""int"">0</Timestamp><DateUtc dt:dt=""string"">2015-02-18T18:05:32Z</DateUtc></StartTime><FrequencyChanges><FrequencyChange><Frequency dt:dt=""r8"">2825693</Frequency><Timestamp dt:dt=""r8"">1563970297613</Timestamp><Current dt:dt=""r8"">0</Current><DateUtc dt:dt=""string"">2015-02-18T18:05:32Z</DateUtc></FrequencyChange></FrequencyChanges></Clock>\n"	Arrow Flanker 2014-12000-1	60.019	1.0.0.86	1	602762138	Professional	2.0.10.353	2.0.10.353	02-18-2015	2/18/2015 6:05:32 PM	13:05:32	2.0.10.248	3	1	1	1	NA	NA	NA	NA	NA	NA	NA	NA	NA	NA	NA	NA	NA	NA	NA	NA	NA	NA	NA	NA	NA	NA	NA	NA	BlockProc	BlockList	NA	21	{RIGHTARROW}	NA	-100	2552	congruent	NA	NA	NA	NA	NA	NA	NA	NA	NA	NA	NA	NA	NA	NA	NA	NA	NA	NA	NA	NA	NA	NA	TrialProc	TrialList	0	15	235221	16	0	17	232788	1466	1	{RIGHTARROW}	-999999	0	234754	0	{RIGHTARROW}	451	235205	NA	NA	right	rrrrr.bmp	354	0	NA	0	0	0	0	NA	0	0	0	NA	0	0	0	0	NA	0	0	2	1	21
Arrow Flanker 2014	12000	1	"<?xml version=""1.0""?>\n<Clock xmlns:dt=""urn:schemas-microsoft-com:datatypes""><Description dt:dt=""string"">E-Prime Primary Realtime Clock</Description><StartTime><Timestamp dt:dt=""int"">0</Timestamp><DateUtc dt:dt=""string"">2015-02-18T18:05:32Z</DateUtc></StartTime><FrequencyChanges><FrequencyChange><Frequency dt:dt=""r8"">2825693</Frequency><Timestamp dt:dt=""r8"">1563970297613</Timestamp><Current dt:dt=""r8"">0</Current><DateUtc dt:dt=""string"">2015-02-18T18:05:32Z</DateUtc></FrequencyChange></FrequencyChanges></Clock>\n"	Arrow Flanker 2014-12000-1	60.019	1.0.0.86	1	602762138	Professional	2.0.10.353	2.0.10.353	02-18-2015	2/18/2015 6:05:32 PM	13:05:32	2.0.10.248	3	1	1	1	NA	NA	NA	NA	NA	NA	NA	NA	NA	NA	NA	NA	NA	NA	NA	NA	NA	NA	NA	NA	NA	NA	NA	NA	BlockProc	BlockList	NA	22	{LEFTARROW}	NA	-100	1531	incongruent	NA	NA	NA	NA	NA	NA	NA	NA	NA	NA	NA	NA	NA	NA	NA	NA	NA	NA	NA	NA	1	NA	TrialProc	TrialList	1	19	238136	17	0	17	235754	1366	1	{LEFTARROW}	-999999	0	237620	0	{LEFTARROW}	497	238117	NA	NA	left	rrlrr.bmp	354	0	NA	-999999	26	244251	0	1	534	244785	0	NA	0	0	0	0	NA	0	0	3	1	22
Arrow Flanker 2014	12000	1	"<?xml version=""1.0""?>\n<Clock xmlns:dt=""urn:schemas-microsoft-com:datatypes""><Description dt:dt=""string"">E-Prime Primary Realtime Clock</Description><StartTime><Timestamp dt:dt=""int"">0</Timestamp><DateUtc dt:dt=""string"">2015-02-18T18:05:32Z</DateUtc></StartTime><FrequencyChanges><FrequencyChange><Frequency dt:dt=""r8"">2825693</Frequency><Timestamp dt:dt=""r8"">1563970297613</Timestamp><Current dt:dt=""r8"">0</Current><DateUtc dt:dt=""string"">2015-02-18T18:05:32Z</DateUtc></FrequencyChange></FrequencyChanges></Clock>\n"	Arrow Flanker 2014-12000-1	60.019	1.0.0.86	1	602762138	Professional	2.0.10.353	2.0.10.353	02-18-2015	2/18/2015 6:05:32 PM	13:05:32	2.0.10.248	3	1	1	1	NA	NA	NA	NA	NA	NA	NA	NA	NA	NA	NA	NA	NA	NA	NA	NA	NA	NA	NA	NA	NA	NA	NA	NA	BlockProc	BlockList	NA	23	{RIGHTARROW}	NA	-100	962	congruent	NA	NA	NA	NA	NA	NA	NA	NA	NA	NA	NA	NA	NA	NA	NA	NA	NA	NA	NA	NA	NA	NA	TrialProc	TrialList	1	5	248666	17	0	17	246734	566	1	{RIGHTARROW}	-999999	0	247800	0	{RIGHTARROW}	860	248660	NA	NA	right	rrrrr.bmp	354	0	NA	0	0	0	0	NA	0	0	0	NA	0	0	0	0	NA	0	0	2	1	23
Arrow Flanker 2014	12000	1	"<?xml version=""1.0""?>\n<Clock xmlns:dt=""urn:schemas-microsoft-com:datatypes""><Description dt:dt=""string"">E-Prime Primary Realtime Clock</Description><StartTime><Timestamp dt:dt=""int"">0</Timestamp><DateUtc dt:dt=""string"">2015-02-18T18:05:32Z</DateUtc></StartTime><FrequencyChanges><FrequencyChange><Frequency dt:dt=""r8"">2825693</Frequency><Timestamp dt:dt=""r8"">1563970297613</Timestamp><Current dt:dt=""r8"">0</Current><DateUtc dt:dt=""string"">2015-02-18T18:05:32Z</DateUtc></FrequencyChange></FrequencyChanges></Clock>\n"	Arrow Flanker 2014-12000-1	60.019	1.0.0.86	1	602762138	Professional	2.0.10.353	2.0.10.353	02-18-2015	2/18/2015 6:05:32 PM	13:05:32	2.0.10.248	3	1	1	1	NA	NA	NA	NA	NA	NA	NA	NA	NA	NA	NA	NA	NA	NA	NA	NA	NA	NA	NA	NA	NA	NA	NA	NA	BlockProc	BlockList	NA	24	{LEFTARROW}	NA	-100	1734	congruent	NA	NA	NA	NA	NA	NA	NA	NA	NA	NA	NA	NA	NA	NA	NA	NA	NA	NA	NA	NA	NA	NA	TrialProc	TrialList	0	21	251649	16	0	17	249200	1482	1	{LEFTARROW}	-999999	0	251182	0	{LEFTARROW}	446	251628	NA	NA	left	lllll.bmp	354	0	NA	0	0	0	0	NA	0	0	0	NA	0	0	0	0	NA	0	0	1	1	24
Arrow Flanker 2014	12000	1	"<?xml version=""1.0""?>\n<Clock xmlns:dt=""urn:schemas-microsoft-com:datatypes""><Description dt:dt=""string"">E-Prime Primary Realtime Clock</Description><StartTime><Timestamp dt:dt=""int"">0</Timestamp><DateUtc dt:dt=""string"">2015-02-18T18:05:32Z</DateUtc></StartTime><FrequencyChanges><FrequencyChange><Frequency dt:dt=""r8"">2825693</Frequency><Timestamp dt:dt=""r8"">1563970297613</Timestamp><Current dt:dt=""r8"">0</Current><DateUtc dt:dt=""string"">2015-02-18T18:05:32Z</DateUtc></FrequencyChange></FrequencyChanges></Clock>\n"	Arrow Flanker 2014-12000-1	60.019	1.0.0.86	1	602762138	Professional	2.0.10.353	2.0.10.353	02-18-2015	2/18/2015 6:05:32 PM	13:05:32	2.0.10.248	3	1	1	1	NA	NA	NA	NA	NA	NA	NA	NA	NA	NA	NA	NA	NA	NA	NA	NA	NA	NA	NA	NA	NA	NA	NA	NA	BlockProc	BlockList	NA	25	{LEFTARROW}	NA	-100	1652	neutral	NA	NA	NA	NA	NA	NA	NA	NA	NA	NA	NA	NA	NA	NA	NA	NA	NA	NA	NA	NA	NA	NA	TrialProc	TrialList	1	7	253731	17	0	17	252182	516	1	{LEFTARROW}	-999999	0	253198	0	{LEFTARROW}	526	253724	NA	NA	left	ooloo.bmp	354	0	NA	0	0	0	0	NA	0	0	0	NA	0	0	0	0	NA	0	0	5	1	25
Arrow Flanker 2014	12000	1	"<?xml version=""1.0""?>\n<Clock xmlns:dt=""urn:schemas-microsoft-com:datatypes""><Description dt:dt=""string"">E-Prime Primary Realtime Clock</Description><StartTime><Timestamp dt:dt=""int"">0</Timestamp><DateUtc dt:dt=""string"">2015-02-18T18:05:32Z</DateUtc></StartTime><FrequencyChanges><FrequencyChange><Frequency dt:dt=""r8"">2825693</Frequency><Timestamp dt:dt=""r8"">1563970297613</Timestamp><Current dt:dt=""r8"">0</Current><DateUtc dt:dt=""string"">2015-02-18T18:05:32Z</DateUtc></FrequencyChange></FrequencyChanges></Clock>\n"	Arrow Flanker 2014-12000-1	60.019	1.0.0.86	1	602762138	Professional	2.0.10.353	2.0.10.353	02-18-2015	2/18/2015 6:05:32 PM	13:05:32	2.0.10.248	3	1	1	1	NA	NA	NA	NA	NA	NA	NA	NA	NA	NA	NA	NA	NA	NA	NA	NA	NA	NA	NA	NA	NA	NA	NA	NA	BlockProc	BlockList	NA	26	{LEFTARROW}	NA	-100	1603	incongruent	NA	NA	NA	NA	NA	NA	NA	NA	NA	NA	NA	NA	NA	NA	NA	NA	NA	NA	NA	NA	NA	NA	TrialProc	TrialList	1	17	256597	17	0	17	254265	1316	1	{LEFTARROW}	-999999	0	256081	0	{LEFTARROW}	499	256580	NA	NA	left	rrlrr.bmp	354	0	NA	0	0	0	0	NA	0	0	0	NA	0	0	0	0	NA	0	0	3	1	26
Arrow Flanker 2014	12000	1	"<?xml version=""1.0""?>\n<Clock xmlns:dt=""urn:schemas-microsoft-com:datatypes""><Description dt:dt=""string"">E-Prime Primary Realtime Clock</Description><StartTime><Timestamp dt:dt=""int"">0</Timestamp><DateUtc dt:dt=""string"">2015-02-18T18:05:32Z</DateUtc></StartTime><FrequencyChanges><FrequencyChange><Frequency dt:dt=""r8"">2825693</Frequency><Timestamp dt:dt=""r8"">1563970297613</Timestamp><Current dt:dt=""r8"">0</Current><DateUtc dt:dt=""string"">2015-02-18T18:05:32Z</DateUtc></FrequencyChange></FrequencyChanges></Clock>\n"	Arrow Flanker 2014-12000-1	60.019	1.0.0.86	1	602762138	Professional	2.0.10.353	2.0.10.353	02-18-2015	2/18/2015 6:05:32 PM	13:05:32	2.0.10.248	3	1	1	1	NA	NA	NA	NA	NA	NA	NA	NA	NA	NA	NA	NA	NA	NA	NA	NA	NA	NA	NA	NA	NA	NA	NA	NA	BlockProc	BlockList	NA	27	{RIGHTARROW}	NA	-100	1113	congruent	NA	NA	NA	NA	NA	NA	NA	NA	NA	NA	NA	NA	NA	NA	NA	NA	NA	NA	NA	NA	NA	NA	TrialProc	TrialList	0	7	258947	16	0	16	257130	0	1	{RIGHTARROW}	-999999	0	258513	0	{RIGHTARROW}	427	258940	NA	NA	right	rrrrr.bmp	354	0	NA	0	0	0	0	NA	0	0	0	NA	0	0	0	0	NA	0	0	2	1	27
Arrow Flanker 2014	12000	1	"<?xml version=""1.0""?>\n<Clock xmlns:dt=""urn:schemas-microsoft-com:datatypes""><Description dt:dt=""string"">E-Prime Primary Realtime Clock</Description><StartTime><Timestamp dt:dt=""int"">0</Timestamp><DateUtc dt:dt=""string"">2015-02-18T18:05:32Z</DateUtc></StartTime><FrequencyChanges><FrequencyChange><Frequency dt:dt=""r8"">2825693</Frequency><Timestamp dt:dt=""r8"">1563970297613</Timestamp><Current dt:dt=""r8"">0</Current><DateUtc dt:dt=""string"">2015-02-18T18:05:32Z</DateUtc></FrequencyChange></FrequencyChanges></Clock>\n"	Arrow Flanker 2014-12000-1	60.019	1.0.0.86	1	602762138	Professional	2.0.10.353	2.0.10.353	02-18-2015	2/18/2015 6:05:32 PM	13:05:32	2.0.10.248	3	1	1	1	NA	NA	NA	NA	NA	NA	NA	NA	NA	NA	NA	NA	NA	NA	NA	NA	NA	NA	NA	NA	NA	NA	NA	NA	BlockProc	BlockList	NA	28	{RIGHTARROW}	NA	-100	865	congruent	NA	NA	NA	NA	NA	NA	NA	NA	NA	NA	NA	NA	NA	NA	NA	NA	NA	NA	NA	NA	NA	NA	TrialProc	TrialList	1	13	260929	17	0	17	259480	0	1	{RIGHTARROW}	-999999	0	260496	0	{RIGHTARROW}	420	260916	NA	NA	right	rrrrr.bmp	354	0	NA	0	0	0	0	NA	0	0	0	NA	0	0	0	0	NA	0	0	2	1	28
Arrow Flanker 2014	12000	1	"<?xml version=""1.0""?>\n<Clock xmlns:dt=""urn:schemas-microsoft-com:datatypes""><Description dt:dt=""string"">E-Prime Primary Realtime Clock</Description><StartTime><Timestamp dt:dt=""int"">0</Timestamp><DateUtc dt:dt=""string"">2015-02-18T18:05:32Z</DateUtc></StartTime><FrequencyChanges><FrequencyChange><Frequency dt:dt=""r8"">2825693</Frequency><Timestamp dt:dt=""r8"">1563970297613</Timestamp><Current dt:dt=""r8"">0</Current><DateUtc dt:dt=""string"">2015-02-18T18:05:32Z</DateUtc></FrequencyChange></FrequencyChanges></Clock>\n"	Arrow Flanker 2014-12000-1	60.019	1.0.0.86	1	602762138	Professional	2.0.10.353	2.0.10.353	02-18-2015	2/18/2015 6:05:32 PM	13:05:32	2.0.10.248	3	1	1	1	NA	NA	NA	NA	NA	NA	NA	NA	NA	NA	NA	NA	NA	NA	NA	NA	NA	NA	NA	NA	NA	NA	NA	NA	BlockProc	BlockList	NA	29	{RIGHTARROW}	NA	-100	1997	neutral	NA	NA	NA	NA	NA	NA	NA	NA	NA	NA	NA	NA	NA	NA	NA	NA	NA	NA	NA	NA	NA	NA	TrialProc	TrialList	0	5	263529	16	0	16	261462	0	1	{RIGHTARROW}	-999999	0	262995	0	{RIGHTARROW}	528	263523	NA	NA	right	ooroo.bmp	354	0	NA	0	0	0	0	NA	0	0	0	NA	0	0	0	0	NA	0	0	6	1	29
Arrow Flanker 2014	12000	1	"<?xml version=""1.0""?>\n<Clock xmlns:dt=""urn:schemas-microsoft-com:datatypes""><Description dt:dt=""string"">E-Prime Primary Realtime Clock</Description><StartTime><Timestamp dt:dt=""int"">0</Timestamp><DateUtc dt:dt=""string"">2015-02-18T18:05:32Z</DateUtc></StartTime><FrequencyChanges><FrequencyChange><Frequency dt:dt=""r8"">2825693</Frequency><Timestamp dt:dt=""r8"">1563970297613</Timestamp><Current dt:dt=""r8"">0</Current><DateUtc dt:dt=""string"">2015-02-18T18:05:32Z</DateUtc></FrequencyChange></FrequencyChanges></Clock>\n"	Arrow Flanker 2014-12000-1	60.019	1.0.0.86	1	602762138	Professional	2.0.10.353	2.0.10.353	02-18-2015	2/18/2015 6:05:32 PM	13:05:32	2.0.10.248	3	1	1	1	NA	NA	NA	NA	NA	NA	NA	NA	NA	NA	NA	NA	NA	NA	NA	NA	NA	NA	NA	NA	NA	NA	NA	NA	BlockProc	BlockList	NA	30	{LEFTARROW}	NA	-100	1427	incongruent	NA	NA	NA	NA	NA	NA	NA	NA	NA	NA	NA	NA	NA	NA	NA	NA	NA	NA	NA	NA	NA	NA	TrialProc	TrialList	1	21	265744	17	0	17	264062	0	1	{LEFTARROW}	-999999	0	265178	0	{LEFTARROW}	545	265723	NA	NA	left	rrlrr.bmp	354	0	NA	0	0	0	0	NA	0	0	0	NA	0	0	0	0	NA	0	0	3	1	30
Arrow Flanker 2014	12000	1	"<?xml version=""1.0""?>\n<Clock xmlns:dt=""urn:schemas-microsoft-com:datatypes""><Description dt:dt=""string"">E-Prime Primary Realtime Clock</Description><StartTime><Timestamp dt:dt=""int"">0</Timestamp><DateUtc dt:dt=""string"">2015-02-18T18:05:32Z</DateUtc></StartTime><FrequencyChanges><FrequencyChange><Frequency dt:dt=""r8"">2825693</Frequency><Timestamp dt:dt=""r8"">1563970297613</Timestamp><Current dt:dt=""r8"">0</Current><DateUtc dt:dt=""string"">2015-02-18T18:05:32Z</DateUtc></FrequencyChange></FrequencyChanges></Clock>\n"	Arrow Flanker 2014-12000-1	60.019	1.0.0.86	1	602762138	Professional	2.0.10.353	2.0.10.353	02-18-2015	2/18/2015 6:05:32 PM	13:05:32	2.0.10.248	3	1	1	1	NA	NA	NA	NA	NA	NA	NA	NA	NA	NA	NA	NA	NA	NA	NA	NA	NA	NA	NA	NA	NA	NA	NA	NA	BlockProc	BlockList	NA	31	{LEFTARROW}	NA	-100	1742	incongruent	NA	NA	NA	NA	NA	NA	NA	NA	NA	NA	NA	NA	NA	NA	NA	NA	NA	NA	NA	NA	NA	NA	TrialProc	TrialList	0	14	268777	16	0	17	266278	0	1	{LEFTARROW}	-999999	0	268260	0	{LEFTARROW}	503	268763	NA	NA	left	rrlrr.bmp	354	0	NA	0	0	0	0	NA	0	0	0	NA	0	0	0	0	NA	0	0	3	1	31
Arrow Flanker 2014	12000	1	"<?xml version=""1.0""?>\n<Clock xmlns:dt=""urn:schemas-microsoft-com:datatypes""><Description dt:dt=""string"">E-Prime Primary Realtime Clock</Description><StartTime><Timestamp dt:dt=""int"">0</Timestamp><DateUtc dt:dt=""string"">2015-02-18T18:05:32Z</DateUtc></StartTime><FrequencyChanges><FrequencyChange><Frequency dt:dt=""r8"">2825693</Frequency><Timestamp dt:dt=""r8"">1563970297613</Timestamp><Current dt:dt=""r8"">0</Current><DateUtc dt:dt=""string"">2015-02-18T18:05:32Z</DateUtc></FrequencyChange></FrequencyChanges></Clock>\n"	Arrow Flanker 2014-12000-1	60.019	1.0.0.86	1	602762138	Professional	2.0.10.353	2.0.10.353	02-18-2015	2/18/2015 6:05:32 PM	13:05:32	2.0.10.248	3	1	1	1	NA	NA	NA	NA	NA	NA	NA	NA	NA	NA	NA	NA	NA	NA	NA	NA	NA	NA	NA	NA	NA	NA	NA	NA	BlockProc	BlockList	NA	32	{LEFTARROW}	NA	-100	823	neutral	NA	NA	NA	NA	NA	NA	NA	NA	NA	NA	NA	NA	NA	NA	NA	NA	NA	NA	NA	NA	NA	NA	TrialProc	TrialList	0	21	271776	17	0	17	269310	0	1	{LEFTARROW}	-999999	0	270560	0	{LEFTARROW}	1195	271755	NA	NA	left	ooloo.bmp	354	0	NA	0	0	0	0	NA	0	0	0	NA	0	0	0	0	NA	0	0	5	1	32
Arrow Flanker 2014	12000	1	"<?xml version=""1.0""?>\n<Clock xmlns:dt=""urn:schemas-microsoft-com:datatypes""><Description dt:dt=""string"">E-Prime Primary Realtime Clock</Description><StartTime><Timestamp dt:dt=""int"">0</Timestamp><DateUtc dt:dt=""string"">2015-02-18T18:05:32Z</DateUtc></StartTime><FrequencyChanges><FrequencyChange><Frequency dt:dt=""r8"">2825693</Frequency><Timestamp dt:dt=""r8"">1563970297613</Timestamp><Current dt:dt=""r8"">0</Current><DateUtc dt:dt=""string"">2015-02-18T18:05:32Z</DateUtc></FrequencyChange></FrequencyChanges></Clock>\n"	Arrow Flanker 2014-12000-1	60.019	1.0.0.86	1	602762138	Professional	2.0.10.353	2.0.10.353	02-18-2015	2/18/2015 6:05:32 PM	13:05:32	2.0.10.248	3	1	1	1	NA	NA	NA	NA	NA	NA	NA	NA	NA	NA	NA	NA	NA	NA	NA	NA	NA	NA	NA	NA	NA	NA	NA	NA	BlockProc	BlockList	NA	33	{LEFTARROW}	NA	-100	1889	neutral	NA	NA	NA	NA	NA	NA	NA	NA	NA	NA	NA	NA	NA	NA	NA	NA	NA	NA	NA	NA	NA	NA	TrialProc	TrialList	1	5	274808	17	0	16	272309	0	1	{LEFTARROW}	-999999	16	274425	0	{LEFTARROW}	378	274803	NA	NA	left	ooloo.bmp	354	0	NA	0	0	0	0	NA	0	0	0	NA	0	0	0	0	NA	0	0	5	1	33
Arrow Flanker 2014	12000	1	"<?xml version=""1.0""?>\n<Clock xmlns:dt=""urn:schemas-microsoft-com:datatypes""><Description dt:dt=""string"">E-Prime Primary Realtime Clock</Description><StartTime><Timestamp dt:dt=""int"">0</Timestamp><DateUtc dt:dt=""string"">2015-02-18T18:05:32Z</DateUtc></StartTime><FrequencyChanges><FrequencyChange><Frequency dt:dt=""r8"">2825693</Frequency><Timestamp dt:dt=""r8"">1563970297613</Timestamp><Current dt:dt=""r8"">0</Current><DateUtc dt:dt=""string"">2015-02-18T18:05:32Z</DateUtc></FrequencyChange></FrequencyChanges></Clock>\n"	Arrow Flanker 2014-12000-1	60.019	1.0.0.86	1	602762138	Professional	2.0.10.353	2.0.10.353	02-18-2015	2/18/2015 6:05:32 PM	13:05:32	2.0.10.248	3	1	1	1	NA	NA	NA	NA	NA	NA	NA	NA	NA	NA	NA	NA	NA	NA	NA	NA	NA	NA	NA	NA	NA	NA	NA	NA	BlockProc	BlockList	NA	34	{RIGHTARROW}	NA	-100	802	neutral	NA	NA	NA	NA	NA	NA	NA	NA	NA	NA	NA	NA	NA	NA	NA	NA	NA	NA	NA	NA	NA	NA	TrialProc	TrialList	0	12	276791	17	0	17	275342	0	1	{RIGHTARROW}	-999999	-1	276324	0	{RIGHTARROW}	454	276778	NA	NA	right	ooroo.bmp	354	0	NA	0	0	0	0	NA	0	0	0	NA	0	0	0	0	NA	0	0	6	1	34
Arrow Flanker 2014	12000	1	"<?xml version=""1.0""?>\n<Clock xmlns:dt=""urn:schemas-microsoft-com:datatypes""><Description dt:dt=""string"">E-Prime Primary Realtime Clock</Description><StartTime><Timestamp dt:dt=""int"">0</Timestamp><DateUtc dt:dt=""string"">2015-02-18T18:05:32Z</DateUtc></StartTime><FrequencyChanges><FrequencyChange><Frequency dt:dt=""r8"">2825693</Frequency><Timestamp dt:dt=""r8"">1563970297613</Timestamp><Current dt:dt=""r8"">0</Current><DateUtc dt:dt=""string"">2015-02-18T18:05:32Z</DateUtc></FrequencyChange></FrequencyChanges></Clock>\n"	Arrow Flanker 2014-12000-1	60.019	1.0.0.86	1	602762138	Professional	2.0.10.353	2.0.10.353	02-18-2015	2/18/2015 6:05:32 PM	13:05:32	2.0.10.248	3	1	1	1	NA	NA	NA	NA	NA	NA	NA	NA	NA	NA	NA	NA	NA	NA	NA	NA	NA	NA	NA	NA	NA	NA	NA	NA	BlockProc	BlockList	NA	35	{RIGHTARROW}	NA	-100	899	neutral	NA	NA	NA	NA	NA	NA	NA	NA	NA	NA	NA	NA	NA	NA	NA	NA	NA	NA	NA	NA	NA	NA	TrialProc	TrialList	1	10	278740	17	0	16	277324	0	1	{RIGHTARROW}	-999999	0	278241	0	{RIGHTARROW}	489	278730	NA	NA	right	ooroo.bmp	354	0	NA	0	0	0	0	NA	0	0	0	NA	0	0	0	0	NA	0	0	6	1	35
Arrow Flanker 2014	12000	1	"<?xml version=""1.0""?>\n<Clock xmlns:dt=""urn:schemas-microsoft-com:datatypes""><Description dt:dt=""string"">E-Prime Primary Realtime Clock</Description><StartTime><Timestamp dt:dt=""int"">0</Timestamp><DateUtc dt:dt=""string"">2015-02-18T18:05:32Z</DateUtc></StartTime><FrequencyChanges><FrequencyChange><Frequency dt:dt=""r8"">2825693</Frequency><Timestamp dt:dt=""r8"">1563970297613</Timestamp><Current dt:dt=""r8"">0</Current><DateUtc dt:dt=""string"">2015-02-18T18:05:32Z</DateUtc></FrequencyChange></FrequencyChanges></Clock>\n"	Arrow Flanker 2014-12000-1	60.019	1.0.0.86	1	602762138	Professional	2.0.10.353	2.0.10.353	02-18-2015	2/18/2015 6:05:32 PM	13:05:32	2.0.10.248	3	1	1	1	NA	NA	NA	NA	NA	NA	NA	NA	NA	NA	NA	NA	NA	NA	NA	NA	NA	NA	NA	NA	NA	NA	NA	NA	BlockProc	BlockList	NA	36	{LEFTARROW}	NA	-100	1023	neutral	NA	NA	NA	NA	NA	NA	NA	NA	NA	NA	NA	NA	NA	NA	NA	NA	NA	NA	NA	NA	NA	NA	TrialProc	TrialList	0	21	281023	17	0	17	279274	0	1	{LEFTARROW}	-999999	0	280390	0	{LEFTARROW}	612	281002	NA	NA	left	ooloo.bmp	354	0	NA	0	0	0	0	NA	0	0	0	NA	0	0	0	0	NA	0	0	5	1	36
Arrow Flanker 2014	12000	1	"<?xml version=""1.0""?>\n<Clock xmlns:dt=""urn:schemas-microsoft-com:datatypes""><Description dt:dt=""string"">E-Prime Primary Realtime Clock</Description><StartTime><Timestamp dt:dt=""int"">0</Timestamp><DateUtc dt:dt=""string"">2015-02-18T18:05:32Z</DateUtc></StartTime><FrequencyChanges><FrequencyChange><Frequency dt:dt=""r8"">2825693</Frequency><Timestamp dt:dt=""r8"">1563970297613</Timestamp><Current dt:dt=""r8"">0</Current><DateUtc dt:dt=""string"">2015-02-18T18:05:32Z</DateUtc></FrequencyChange></FrequencyChanges></Clock>\n"	Arrow Flanker 2014-12000-1	60.019	1.0.0.86	1	602762138	Professional	2.0.10.353	2.0.10.353	02-18-2015	2/18/2015 6:05:32 PM	13:05:32	2.0.10.248	3	1	1	1	NA	NA	NA	NA	NA	NA	NA	NA	NA	NA	NA	NA	NA	NA	NA	NA	NA	NA	NA	NA	NA	NA	NA	NA	BlockProc	BlockList	NA	37	{LEFTARROW}	NA	-100	2189	congruent	NA	NA	NA	NA	NA	NA	NA	NA	NA	NA	NA	NA	NA	NA	NA	NA	NA	NA	NA	NA	2	1	TrialProc	TrialList	1	18	283572	17	0	16	281556	0	1	{LEFTARROW}	-999999	0	283189	0	{LEFTARROW}	365	283554	NA	NA	left	lllll.bmp	354	0	NA	-999999	16	284105	0	1	4060	288165	0	NA	-999999	22	288188	0	1	3962	292150	1	1	37
Arrow Flanker 2014	12000	1	"<?xml version=""1.0""?>\n<Clock xmlns:dt=""urn:schemas-microsoft-com:datatypes""><Description dt:dt=""string"">E-Prime Primary Realtime Clock</Description><StartTime><Timestamp dt:dt=""int"">0</Timestamp><DateUtc dt:dt=""string"">2015-02-18T18:05:32Z</DateUtc></StartTime><FrequencyChanges><FrequencyChange><Frequency dt:dt=""r8"">2825693</Frequency><Timestamp dt:dt=""r8"">1563970297613</Timestamp><Current dt:dt=""r8"">0</Current><DateUtc dt:dt=""string"">2015-02-18T18:05:32Z</DateUtc></FrequencyChange></FrequencyChanges></Clock>\n"	Arrow Flanker 2014-12000-1	60.019	1.0.0.86	1	602762138	Professional	2.0.10.353	2.0.10.353	02-18-2015	2/18/2015 6:05:32 PM	13:05:32	2.0.10.248	3	1	1	1	NA	NA	NA	NA	NA	NA	NA	NA	NA	NA	NA	NA	NA	NA	NA	NA	NA	NA	NA	NA	NA	NA	NA	NA	BlockProc	BlockList	NA	38	{LEFTARROW}	NA	-100	1932	neutral	NA	NA	NA	NA	NA	NA	NA	NA	NA	NA	NA	NA	NA	NA	NA	NA	NA	NA	NA	NA	NA	NA	TrialProc	TrialList	0	12	295669	16	0	23	293336	0	1	{LEFTARROW}	-999999	0	295135	0	{LEFTARROW}	522	295657	NA	NA	left	ooloo.bmp	354	0	NA	0	0	0	0	NA	0	0	0	NA	0	0	0	0	NA	0	0	5	1	38
Arrow Flanker 2014	12000	1	"<?xml version=""1.0""?>\n<Clock xmlns:dt=""urn:schemas-microsoft-com:datatypes""><Description dt:dt=""string"">E-Prime Primary Realtime Clock</Description><StartTime><Timestamp dt:dt=""int"">0</Timestamp><DateUtc dt:dt=""string"">2015-02-18T18:05:32Z</DateUtc></StartTime><FrequencyChanges><FrequencyChange><Frequency dt:dt=""r8"">2825693</Frequency><Timestamp dt:dt=""r8"">1563970297613</Timestamp><Current dt:dt=""r8"">0</Current><DateUtc dt:dt=""string"">2015-02-18T18:05:32Z</DateUtc></FrequencyChange></FrequencyChanges></Clock>\n"	Arrow Flanker 2014-12000-1	60.019	1.0.0.86	1	602762138	Professional	2.0.10.353	2.0.10.353	02-18-2015	2/18/2015 6:05:32 PM	13:05:32	2.0.10.248	3	1	1	1	NA	NA	NA	NA	NA	NA	NA	NA	NA	NA	NA	NA	NA	NA	NA	NA	NA	NA	NA	NA	NA	NA	NA	NA	BlockProc	BlockList	NA	39	{LEFTARROW}	NA	-100	2111	neutral	NA	NA	NA	NA	NA	NA	NA	NA	NA	NA	NA	NA	NA	NA	NA	NA	NA	NA	NA	NA	NA	NA	TrialProc	TrialList	0	17	298618	16	0	17	296202	0	1	{LEFTARROW}	-999999	0	298218	0	{LEFTARROW}	383	298601	NA	NA	left	ooloo.bmp	354	0	NA	0	0	0	0	NA	0	0	0	NA	0	0	0	0	NA	0	0	5	1	39
Arrow Flanker 2014	12000	1	"<?xml version=""1.0""?>\n<Clock xmlns:dt=""urn:schemas-microsoft-com:datatypes""><Description dt:dt=""string"">E-Prime Primary Realtime Clock</Description><StartTime><Timestamp dt:dt=""int"">0</Timestamp><DateUtc dt:dt=""string"">2015-02-18T18:05:32Z</DateUtc></StartTime><FrequencyChanges><FrequencyChange><Frequency dt:dt=""r8"">2825693</Frequency><Timestamp dt:dt=""r8"">1563970297613</Timestamp><Current dt:dt=""r8"">0</Current><DateUtc dt:dt=""string"">2015-02-18T18:05:32Z</DateUtc></FrequencyChange></FrequencyChanges></Clock>\n"	Arrow Flanker 2014-12000-1	60.019	1.0.0.86	1	602762138	Professional	2.0.10.353	2.0.10.353	02-18-2015	2/18/2015 6:05:32 PM	13:05:32	2.0.10.248	3	1	1	1	NA	NA	NA	NA	NA	NA	NA	NA	NA	NA	NA	NA	NA	NA	NA	NA	NA	NA	NA	NA	NA	NA	NA	NA	BlockProc	BlockList	NA	40	{RIGHTARROW}	NA	-100	1769	incongruent	NA	NA	NA	NA	NA	NA	NA	NA	NA	NA	NA	NA	NA	NA	NA	NA	NA	NA	NA	NA	NA	NA	TrialProc	TrialList	0	17	301250	17	0	17	299151	0	1	{RIGHTARROW}	-999999	0	300650	0	{RIGHTARROW}	583	301233	NA	NA	right	llrll.bmp	354	0	NA	0	0	0	0	NA	0	0	0	NA	0	0	0	0	NA	0	0	4	1	40
Arrow Flanker 2014	12000	1	"<?xml version=""1.0""?>\n<Clock xmlns:dt=""urn:schemas-microsoft-com:datatypes""><Description dt:dt=""string"">E-Prime Primary Realtime Clock</Description><StartTime><Timestamp dt:dt=""int"">0</Timestamp><DateUtc dt:dt=""string"">2015-02-18T18:05:32Z</DateUtc></StartTime><FrequencyChanges><FrequencyChange><Frequency dt:dt=""r8"">2825693</Frequency><Timestamp dt:dt=""r8"">1563970297613</Timestamp><Current dt:dt=""r8"">0</Current><DateUtc dt:dt=""string"">2015-02-18T18:05:32Z</DateUtc></FrequencyChange></FrequencyChanges></Clock>\n"	Arrow Flanker 2014-12000-1	60.019	1.0.0.86	1	602762138	Professional	2.0.10.353	2.0.10.353	02-18-2015	2/18/2015 6:05:32 PM	13:05:32	2.0.10.248	3	1	1	1	NA	NA	NA	NA	NA	NA	NA	NA	NA	NA	NA	NA	NA	NA	NA	NA	NA	NA	NA	NA	NA	NA	NA	NA	BlockProc	BlockList	NA	41	{LEFTARROW}	NA	-100	1726	incongruent	NA	NA	NA	NA	NA	NA	NA	NA	NA	NA	NA	NA	NA	NA	NA	NA	NA	NA	NA	NA	NA	NA	TrialProc	TrialList	0	13	303766	17	0	16	301783	0	1	{LEFTARROW}	-999999	0	303283	0	{LEFTARROW}	469	303752	NA	NA	left	rrlrr.bmp	354	0	NA	0	0	0	0	NA	0	0	0	NA	0	0	0	0	NA	0	0	3	1	41
Arrow Flanker 2014	12000	1	"<?xml version=""1.0""?>\n<Clock xmlns:dt=""urn:schemas-microsoft-com:datatypes""><Description dt:dt=""string"">E-Prime Primary Realtime Clock</Description><StartTime><Timestamp dt:dt=""int"">0</Timestamp><DateUtc dt:dt=""string"">2015-02-18T18:05:32Z</DateUtc></StartTime><FrequencyChanges><FrequencyChange><Frequency dt:dt=""r8"">2825693</Frequency><Timestamp dt:dt=""r8"">1563970297613</Timestamp><Current dt:dt=""r8"">0</Current><DateUtc dt:dt=""string"">2015-02-18T18:05:32Z</DateUtc></FrequencyChange></FrequencyChanges></Clock>\n"	Arrow Flanker 2014-12000-1	60.019	1.0.0.86	1	602762138	Professional	2.0.10.353	2.0.10.353	02-18-2015	2/18/2015 6:05:32 PM	13:05:32	2.0.10.248	3	1	1	1	NA	NA	NA	NA	NA	NA	NA	NA	NA	NA	NA	NA	NA	NA	NA	NA	NA	NA	NA	NA	NA	NA	NA	NA	BlockProc	BlockList	NA	42	{RIGHTARROW}	NA	-100	2481	neutral	NA	NA	NA	NA	NA	NA	NA	NA	NA	NA	NA	NA	NA	NA	NA	NA	NA	NA	NA	NA	NA	NA	TrialProc	TrialList	0	17	306865	17	0	16	304299	0	1	{RIGHTARROW}	-999999	16	306415	0	{RIGHTARROW}	433	306848	NA	NA	right	ooroo.bmp	354	0	NA	0	0	0	0	NA	0	0	0	NA	0	0	0	0	NA	0	0	6	1	42
Arrow Flanker 2014	12000	1	"<?xml version=""1.0""?>\n<Clock xmlns:dt=""urn:schemas-microsoft-com:datatypes""><Description dt:dt=""string"">E-Prime Primary Realtime Clock</Description><StartTime><Timestamp dt:dt=""int"">0</Timestamp><DateUtc dt:dt=""string"">2015-02-18T18:05:32Z</DateUtc></StartTime><FrequencyChanges><FrequencyChange><Frequency dt:dt=""r8"">2825693</Frequency><Timestamp dt:dt=""r8"">1563970297613</Timestamp><Current dt:dt=""r8"">0</Current><DateUtc dt:dt=""string"">2015-02-18T18:05:32Z</DateUtc></FrequencyChange></FrequencyChanges></Clock>\n"	Arrow Flanker 2014-12000-1	60.019	1.0.0.86	1	602762138	Professional	2.0.10.353	2.0.10.353	02-18-2015	2/18/2015 6:05:32 PM	13:05:32	2.0.10.248	3	1	1	1	NA	NA	NA	NA	NA	NA	NA	NA	NA	NA	NA	NA	NA	NA	NA	NA	NA	NA	NA	NA	NA	NA	NA	NA	BlockProc	BlockList	NA	43	{RIGHTARROW}	NA	-100	2044	congruent	NA	NA	NA	NA	NA	NA	NA	NA	NA	NA	NA	NA	NA	NA	NA	NA	NA	NA	NA	NA	NA	NA	TrialProc	TrialList	1	20	309564	17	0	16	307398	0	1	{RIGHTARROW}	-999999	0	309098	0	{RIGHTARROW}	446	309544	NA	NA	right	rrrrr.bmp	354	0	NA	0	0	0	0	NA	0	0	0	NA	0	0	0	0	NA	0	0	2	1	43
Arrow Flanker 2014	12000	1	"<?xml version=""1.0""?>\n<Clock xmlns:dt=""urn:schemas-microsoft-com:datatypes""><Description dt:dt=""string"">E-Prime Primary Realtime Clock</Description><StartTime><Timestamp dt:dt=""int"">0</Timestamp><DateUtc dt:dt=""string"">2015-02-18T18:05:32Z</DateUtc></StartTime><FrequencyChanges><FrequencyChange><Frequency dt:dt=""r8"">2825693</Frequency><Timestamp dt:dt=""r8"">1563970297613</Timestamp><Current dt:dt=""r8"">0</Current><DateUtc dt:dt=""string"">2015-02-18T18:05:32Z</DateUtc></FrequencyChange></FrequencyChanges></Clock>\n"	Arrow Flanker 2014-12000-1	60.019	1.0.0.86	1	602762138	Professional	2.0.10.353	2.0.10.353	02-18-2015	2/18/2015 6:05:32 PM	13:05:32	2.0.10.248	3	1	1	1	NA	NA	NA	NA	NA	NA	NA	NA	NA	NA	NA	NA	NA	NA	NA	NA	NA	NA	NA	NA	NA	NA	NA	NA	BlockProc	BlockList	NA	44	{RIGHTARROW}	NA	-100	1280	congruent	NA	NA	NA	NA	NA	NA	NA	NA	NA	NA	NA	NA	NA	NA	NA	NA	NA	NA	NA	NA	NA	NA	TrialProc	TrialList	0	13	312197	16	0	16	310097	0	1	{RIGHTARROW}	-999999	0	311780	0	{RIGHTARROW}	404	312184	NA	NA	right	rrrrr.bmp	354	0	NA	0	0	0	0	NA	0	0	0	NA	0	0	0	0	NA	0	0	2	1	44
Arrow Flanker 2014	12000	1	"<?xml version=""1.0""?>\n<Clock xmlns:dt=""urn:schemas-microsoft-com:datatypes""><Description dt:dt=""string"">E-Prime Primary Realtime Clock</Description><StartTime><Timestamp dt:dt=""int"">0</Timestamp><DateUtc dt:dt=""string"">2015-02-18T18:05:32Z</DateUtc></StartTime><FrequencyChanges><FrequencyChange><Frequency dt:dt=""r8"">2825693</Frequency><Timestamp dt:dt=""r8"">1563970297613</Timestamp><Current dt:dt=""r8"">0</Current><DateUtc dt:dt=""string"">2015-02-18T18:05:32Z</DateUtc></FrequencyChange></FrequencyChanges></Clock>\n"	Arrow Flanker 2014-12000-1	60.019	1.0.0.86	1	602762138	Professional	2.0.10.353	2.0.10.353	02-18-2015	2/18/2015 6:05:32 PM	13:05:32	2.0.10.248	3	1	1	1	NA	NA	NA	NA	NA	NA	NA	NA	NA	NA	NA	NA	NA	NA	NA	NA	NA	NA	NA	NA	NA	NA	NA	NA	BlockProc	BlockList	NA	45	{LEFTARROW}	NA	-100	1489	congruent	NA	NA	NA	NA	NA	NA	NA	NA	NA	NA	NA	NA	NA	NA	NA	NA	NA	NA	NA	NA	NA	NA	TrialProc	TrialList	1	15	314279	17	0	17	312730	0	1	{LEFTARROW}	-999999	16	313846	0	{LEFTARROW}	418	314264	NA	NA	left	lllll.bmp	354	0	NA	0	0	0	0	NA	0	0	0	NA	0	0	0	0	NA	0	0	1	1	45
Arrow Flanker 2014	12000	1	"<?xml version=""1.0""?>\n<Clock xmlns:dt=""urn:schemas-microsoft-com:datatypes""><Description dt:dt=""string"">E-Prime Primary Realtime Clock</Description><StartTime><Timestamp dt:dt=""int"">0</Timestamp><DateUtc dt:dt=""string"">2015-02-18T18:05:32Z</DateUtc></StartTime><FrequencyChanges><FrequencyChange><Frequency dt:dt=""r8"">2825693</Frequency><Timestamp dt:dt=""r8"">1563970297613</Timestamp><Current dt:dt=""r8"">0</Current><DateUtc dt:dt=""string"">2015-02-18T18:05:32Z</DateUtc></FrequencyChange></FrequencyChanges></Clock>\n"	Arrow Flanker 2014-12000-1	60.019	1.0.0.86	1	602762138	Professional	2.0.10.353	2.0.10.353	02-18-2015	2/18/2015 6:05:32 PM	13:05:32	2.0.10.248	3	1	1	1	NA	NA	NA	NA	NA	NA	NA	NA	NA	NA	NA	NA	NA	NA	NA	NA	NA	NA	NA	NA	NA	NA	NA	NA	BlockProc	BlockList	NA	46	{LEFTARROW}	NA	-100	1454	congruent	NA	NA	NA	NA	NA	NA	NA	NA	NA	NA	NA	NA	NA	NA	NA	NA	NA	NA	NA	NA	NA	NA	TrialProc	TrialList	0	19	317179	16	0	17	314813	0	1	{LEFTARROW}	-999999	0	316695	0	{LEFTARROW}	464	317159	NA	NA	left	lllll.bmp	354	0	NA	0	0	0	0	NA	0	0	0	NA	0	0	0	0	NA	0	0	1	1	46
Arrow Flanker 2014	12000	1	"<?xml version=""1.0""?>\n<Clock xmlns:dt=""urn:schemas-microsoft-com:datatypes""><Description dt:dt=""string"">E-Prime Primary Realtime Clock</Description><StartTime><Timestamp dt:dt=""int"">0</Timestamp><DateUtc dt:dt=""string"">2015-02-18T18:05:32Z</DateUtc></StartTime><FrequencyChanges><FrequencyChange><Frequency dt:dt=""r8"">2825693</Frequency><Timestamp dt:dt=""r8"">1563970297613</Timestamp><Current dt:dt=""r8"">0</Current><DateUtc dt:dt=""string"">2015-02-18T18:05:32Z</DateUtc></FrequencyChange></FrequencyChanges></Clock>\n"	Arrow Flanker 2014-12000-1	60.019	1.0.0.86	1	602762138	Professional	2.0.10.353	2.0.10.353	02-18-2015	2/18/2015 6:05:32 PM	13:05:32	2.0.10.248	3	1	1	1	NA	NA	NA	NA	NA	NA	NA	NA	NA	NA	NA	NA	NA	NA	NA	NA	NA	NA	NA	NA	NA	NA	NA	NA	BlockProc	BlockList	NA	47	{LEFTARROW}	NA	-100	1415	incongruent	NA	NA	NA	NA	NA	NA	NA	NA	NA	NA	NA	NA	NA	NA	NA	NA	NA	NA	NA	NA	NA	NA	TrialProc	TrialList	0	9	319361	17	0	17	317712	0	1	{LEFTARROW}	-999999	0	318828	0	{LEFTARROW}	523	319351	NA	NA	left	rrlrr.bmp	354	0	NA	0	0	0	0	NA	0	0	0	NA	0	0	0	0	NA	0	0	3	1	47
Arrow Flanker 2014	12000	1	"<?xml version=""1.0""?>\n<Clock xmlns:dt=""urn:schemas-microsoft-com:datatypes""><Description dt:dt=""string"">E-Prime Primary Realtime Clock</Description><StartTime><Timestamp dt:dt=""int"">0</Timestamp><DateUtc dt:dt=""string"">2015-02-18T18:05:32Z</DateUtc></StartTime><FrequencyChanges><FrequencyChange><Frequency dt:dt=""r8"">2825693</Frequency><Timestamp dt:dt=""r8"">1563970297613</Timestamp><Current dt:dt=""r8"">0</Current><DateUtc dt:dt=""string"">2015-02-18T18:05:32Z</DateUtc></FrequencyChange></FrequencyChanges></Clock>\n"	Arrow Flanker 2014-12000-1	60.019	1.0.0.86	1	602762138	Professional	2.0.10.353	2.0.10.353	02-18-2015	2/18/2015 6:05:32 PM	13:05:32	2.0.10.248	3	1	1	1	NA	NA	NA	NA	NA	NA	NA	NA	NA	NA	NA	NA	NA	NA	NA	NA	NA	NA	NA	NA	NA	NA	NA	NA	BlockProc	BlockList	NA	48	{RIGHTARROW}	NA	-100	2670	congruent	NA	NA	NA	NA	NA	NA	NA	NA	NA	NA	NA	NA	NA	NA	NA	NA	NA	NA	NA	NA	NA	NA	TrialProc	TrialList	0	9	322344	16	0	16	319894	1517	1	{RIGHTARROW}	-999999	0	321910	0	{RIGHTARROW}	425	322335	NA	NA	right	rrrrr.bmp	354	0	NA	0	0	0	0	NA	0	0	0	NA	0	0	0	0	NA	0	0	2	1	48
Arrow Flanker 2014	12000	1	"<?xml version=""1.0""?>\n<Clock xmlns:dt=""urn:schemas-microsoft-com:datatypes""><Description dt:dt=""string"">E-Prime Primary Realtime Clock</Description><StartTime><Timestamp dt:dt=""int"">0</Timestamp><DateUtc dt:dt=""string"">2015-02-18T18:05:32Z</DateUtc></StartTime><FrequencyChanges><FrequencyChange><Frequency dt:dt=""r8"">2825693</Frequency><Timestamp dt:dt=""r8"">1563970297613</Timestamp><Current dt:dt=""r8"">0</Current><DateUtc dt:dt=""string"">2015-02-18T18:05:32Z</DateUtc></FrequencyChange></FrequencyChanges></Clock>\n"	Arrow Flanker 2014-12000-1	60.019	1.0.0.86	1	602762138	Professional	2.0.10.353	2.0.10.353	02-18-2015	2/18/2015 6:05:32 PM	13:05:32	2.0.10.248	3	1	1	1	NA	NA	NA	NA	NA	NA	NA	NA	NA	NA	NA	NA	NA	NA	NA	NA	NA	NA	NA	NA	NA	NA	NA	NA	BlockProc	BlockList	NA	49	{LEFTARROW}	NA	-100	1443	congruent	NA	NA	NA	NA	NA	NA	NA	NA	NA	NA	NA	NA	NA	NA	NA	NA	NA	NA	NA	NA	NA	NA	TrialProc	TrialList	0	21	324460	16	0	17	322877	0	1	{LEFTARROW}	-999999	0	323960	0	{LEFTARROW}	479	324439	NA	NA	left	lllll.bmp	354	0	NA	0	0	0	0	NA	0	0	0	NA	0	0	0	0	NA	0	0	1	1	49
Arrow Flanker 2014	12000	1	"<?xml version=""1.0""?>\n<Clock xmlns:dt=""urn:schemas-microsoft-com:datatypes""><Description dt:dt=""string"">E-Prime Primary Realtime Clock</Description><StartTime><Timestamp dt:dt=""int"">0</Timestamp><DateUtc dt:dt=""string"">2015-02-18T18:05:32Z</DateUtc></StartTime><FrequencyChanges><FrequencyChange><Frequency dt:dt=""r8"">2825693</Frequency><Timestamp dt:dt=""r8"">1563970297613</Timestamp><Current dt:dt=""r8"">0</Current><DateUtc dt:dt=""string"">2015-02-18T18:05:32Z</DateUtc></FrequencyChange></FrequencyChanges></Clock>\n"	Arrow Flanker 2014-12000-1	60.019	1.0.0.86	1	602762138	Professional	2.0.10.353	2.0.10.353	02-18-2015	2/18/2015 6:05:32 PM	13:05:32	2.0.10.248	3	1	1	1	NA	NA	NA	NA	NA	NA	NA	NA	NA	NA	NA	NA	NA	NA	NA	NA	NA	NA	NA	NA	NA	NA	NA	NA	BlockProc	BlockList	NA	50	{RIGHTARROW}	NA	-100	1975	congruent	NA	NA	NA	NA	NA	NA	NA	NA	NA	NA	NA	NA	NA	NA	NA	NA	NA	NA	NA	NA	NA	NA	TrialProc	TrialList	0	14	327109	16	0	17	324993	0	1	{RIGHTARROW}	-999999	0	326559	0	{RIGHTARROW}	536	327095	NA	NA	right	rrrrr.bmp	354	0	NA	0	0	0	0	NA	0	0	0	NA	0	0	0	0	NA	0	0	2	1	50
Arrow Flanker 2014	12000	1	"<?xml version=""1.0""?>\n<Clock xmlns:dt=""urn:schemas-microsoft-com:datatypes""><Description dt:dt=""string"">E-Prime Primary Realtime Clock</Description><StartTime><Timestamp dt:dt=""int"">0</Timestamp><DateUtc dt:dt=""string"">2015-02-18T18:05:32Z</DateUtc></StartTime><FrequencyChanges><FrequencyChange><Frequency dt:dt=""r8"">2825693</Frequency><Timestamp dt:dt=""r8"">1563970297613</Timestamp><Current dt:dt=""r8"">0</Current><DateUtc dt:dt=""string"">2015-02-18T18:05:32Z</DateUtc></FrequencyChange></FrequencyChanges></Clock>\n"	Arrow Flanker 2014-12000-1	60.019	1.0.0.86	1	602762138	Professional	2.0.10.353	2.0.10.353	02-18-2015	2/18/2015 6:05:32 PM	13:05:32	2.0.10.248	3	1	1	1	NA	NA	NA	NA	NA	NA	NA	NA	NA	NA	NA	NA	NA	NA	NA	NA	NA	NA	NA	NA	NA	NA	NA	NA	BlockProc	BlockList	NA	51	{RIGHTARROW}	NA	-100	1800	incongruent	NA	NA	NA	NA	NA	NA	NA	NA	NA	NA	NA	NA	NA	NA	NA	NA	NA	NA	NA	NA	NA	NA	TrialProc	TrialList	0	9	329608	17	0	17	327642	0	1	{RIGHTARROW}	-999999	0	329008	0	{RIGHTARROW}	591	329599	NA	NA	right	llrll.bmp	354	0	NA	0	0	0	0	NA	0	0	0	NA	0	0	0	0	NA	0	0	4	1	51
Arrow Flanker 2014	12000	1	"<?xml version=""1.0""?>\n<Clock xmlns:dt=""urn:schemas-microsoft-com:datatypes""><Description dt:dt=""string"">E-Prime Primary Realtime Clock</Description><StartTime><Timestamp dt:dt=""int"">0</Timestamp><DateUtc dt:dt=""string"">2015-02-18T18:05:32Z</DateUtc></StartTime><FrequencyChanges><FrequencyChange><Frequency dt:dt=""r8"">2825693</Frequency><Timestamp dt:dt=""r8"">1563970297613</Timestamp><Current dt:dt=""r8"">0</Current><DateUtc dt:dt=""string"">2015-02-18T18:05:32Z</DateUtc></FrequencyChange></FrequencyChanges></Clock>\n"	Arrow Flanker 2014-12000-1	60.019	1.0.0.86	1	602762138	Professional	2.0.10.353	2.0.10.353	02-18-2015	2/18/2015 6:05:32 PM	13:05:32	2.0.10.248	3	1	1	1	NA	NA	NA	NA	NA	NA	NA	NA	NA	NA	NA	NA	NA	NA	NA	NA	NA	NA	NA	NA	NA	NA	NA	NA	BlockProc	BlockList	NA	52	{RIGHTARROW}	NA	-100	1466	incongruent	NA	NA	NA	NA	NA	NA	NA	NA	NA	NA	NA	NA	NA	NA	NA	NA	NA	NA	NA	NA	NA	NA	TrialProc	TrialList	1	18	332057	17	0	16	330141	0	1	{RIGHTARROW}	-999999	0	331474	0	{RIGHTARROW}	564	332038	NA	NA	right	llrll.bmp	354	0	NA	0	0	0	0	NA	0	0	0	NA	0	0	0	0	NA	0	0	4	1	52
Arrow Flanker 2014	12000	1	"<?xml version=""1.0""?>\n<Clock xmlns:dt=""urn:schemas-microsoft-com:datatypes""><Description dt:dt=""string"">E-Prime Primary Realtime Clock</Description><StartTime><Timestamp dt:dt=""int"">0</Timestamp><DateUtc dt:dt=""string"">2015-02-18T18:05:32Z</DateUtc></StartTime><FrequencyChanges><FrequencyChange><Frequency dt:dt=""r8"">2825693</Frequency><Timestamp dt:dt=""r8"">1563970297613</Timestamp><Current dt:dt=""r8"">0</Current><DateUtc dt:dt=""string"">2015-02-18T18:05:32Z</DateUtc></FrequencyChange></FrequencyChanges></Clock>\n"	Arrow Flanker 2014-12000-1	60.019	1.0.0.86	1	602762138	Professional	2.0.10.353	2.0.10.353	02-18-2015	2/18/2015 6:05:32 PM	13:05:32	2.0.10.248	3	1	1	1	NA	NA	NA	NA	NA	NA	NA	NA	NA	NA	NA	NA	NA	NA	NA	NA	NA	NA	NA	NA	NA	NA	NA	NA	BlockProc	BlockList	NA	53	{RIGHTARROW}	NA	-100	893	incongruent	NA	NA	NA	NA	NA	NA	NA	NA	NA	NA	NA	NA	NA	NA	NA	NA	NA	NA	NA	NA	NA	NA	TrialProc	TrialList	0	17	334207	16	0	16	332590	0	1	{RIGHTARROW}	-999999	0	333657	0	{RIGHTARROW}	533	334190	NA	NA	right	llrll.bmp	354	0	NA	0	0	0	0	NA	0	0	0	NA	0	0	0	0	NA	0	0	4	1	53
Arrow Flanker 2014	12000	1	"<?xml version=""1.0""?>\n<Clock xmlns:dt=""urn:schemas-microsoft-com:datatypes""><Description dt:dt=""string"">E-Prime Primary Realtime Clock</Description><StartTime><Timestamp dt:dt=""int"">0</Timestamp><DateUtc dt:dt=""string"">2015-02-18T18:05:32Z</DateUtc></StartTime><FrequencyChanges><FrequencyChange><Frequency dt:dt=""r8"">2825693</Frequency><Timestamp dt:dt=""r8"">1563970297613</Timestamp><Current dt:dt=""r8"">0</Current><DateUtc dt:dt=""string"">2015-02-18T18:05:32Z</DateUtc></FrequencyChange></FrequencyChanges></Clock>\n"	Arrow Flanker 2014-12000-1	60.019	1.0.0.86	1	602762138	Professional	2.0.10.353	2.0.10.353	02-18-2015	2/18/2015 6:05:32 PM	13:05:32	2.0.10.248	3	1	1	1	NA	NA	NA	NA	NA	NA	NA	NA	NA	NA	NA	NA	NA	NA	NA	NA	NA	NA	NA	NA	NA	NA	NA	NA	BlockProc	BlockList	NA	54	{RIGHTARROW}	NA	-100	1689	neutral	NA	NA	NA	NA	NA	NA	NA	NA	NA	NA	NA	NA	NA	NA	NA	NA	NA	NA	NA	NA	1	NA	TrialProc	TrialList	0	10	337256	16	0	17	334740	0	1	{RIGHTARROW}	-999999	0	336806	0	{RIGHTARROW}	440	337246	NA	NA	right	ooroo.bmp	354	0	NA	-999999	17	337789	0	1	4461	342250	0	NA	0	0	0	0	NA	0	0	6	1	54
Arrow Flanker 2014	12000	1	"<?xml version=""1.0""?>\n<Clock xmlns:dt=""urn:schemas-microsoft-com:datatypes""><Description dt:dt=""string"">E-Prime Primary Realtime Clock</Description><StartTime><Timestamp dt:dt=""int"">0</Timestamp><DateUtc dt:dt=""string"">2015-02-18T18:05:32Z</DateUtc></StartTime><FrequencyChanges><FrequencyChange><Frequency dt:dt=""r8"">2825693</Frequency><Timestamp dt:dt=""r8"">1563970297613</Timestamp><Current dt:dt=""r8"">0</Current><DateUtc dt:dt=""string"">2015-02-18T18:05:32Z</DateUtc></FrequencyChange></FrequencyChanges></Clock>\n"	Arrow Flanker 2014-12000-1	60.019	1.0.0.86	1	602762138	Professional	2.0.10.353	2.0.10.353	02-18-2015	2/18/2015 6:05:32 PM	13:05:32	2.0.10.248	3	1	1	1	NA	NA	NA	NA	NA	NA	NA	NA	NA	NA	NA	NA	NA	NA	NA	NA	NA	NA	NA	NA	NA	NA	NA	NA	BlockProc	BlockList	NA	55	{LEFTARROW}	NA	-100	2585	congruent	NA	NA	NA	NA	NA	NA	NA	NA	NA	NA	NA	NA	NA	NA	NA	NA	NA	NA	NA	NA	NA	NA	TrialProc	TrialList	1	8	346286	17	0	22	343604	0	1	{LEFTARROW}	-999999	0	345703	0	{LEFTARROW}	574	346277	NA	NA	left	lllll.bmp	354	0	NA	0	0	0	0	NA	0	0	0	NA	0	0	0	0	NA	0	0	1	1	55
Arrow Flanker 2014	12000	1	"<?xml version=""1.0""?>\n<Clock xmlns:dt=""urn:schemas-microsoft-com:datatypes""><Description dt:dt=""string"">E-Prime Primary Realtime Clock</Description><StartTime><Timestamp dt:dt=""int"">0</Timestamp><DateUtc dt:dt=""string"">2015-02-18T18:05:32Z</DateUtc></StartTime><FrequencyChanges><FrequencyChange><Frequency dt:dt=""r8"">2825693</Frequency><Timestamp dt:dt=""r8"">1563970297613</Timestamp><Current dt:dt=""r8"">0</Current><DateUtc dt:dt=""string"">2015-02-18T18:05:32Z</DateUtc></FrequencyChange></FrequencyChanges></Clock>\n"	Arrow Flanker 2014-12000-1	60.019	1.0.0.86	1	602762138	Professional	2.0.10.353	2.0.10.353	02-18-2015	2/18/2015 6:05:32 PM	13:05:32	2.0.10.248	3	1	1	1	NA	NA	NA	NA	NA	NA	NA	NA	NA	NA	NA	NA	NA	NA	NA	NA	NA	NA	NA	NA	NA	NA	NA	NA	BlockProc	BlockList	NA	56	{RIGHTARROW}	NA	-100	872	congruent	NA	NA	NA	NA	NA	NA	NA	NA	NA	NA	NA	NA	NA	NA	NA	NA	NA	NA	NA	NA	NA	NA	TrialProc	TrialList	0	13	348602	17	0	16	346819	0	1	{RIGHTARROW}	-999999	0	348152	0	{RIGHTARROW}	437	348589	NA	NA	right	rrrrr.bmp	354	0	NA	0	0	0	0	NA	0	0	0	NA	0	0	0	0	NA	0	0	2	1	56
Arrow Flanker 2014	12000	1	"<?xml version=""1.0""?>\n<Clock xmlns:dt=""urn:schemas-microsoft-com:datatypes""><Description dt:dt=""string"">E-Prime Primary Realtime Clock</Description><StartTime><Timestamp dt:dt=""int"">0</Timestamp><DateUtc dt:dt=""string"">2015-02-18T18:05:32Z</DateUtc></StartTime><FrequencyChanges><FrequencyChange><Frequency dt:dt=""r8"">2825693</Frequency><Timestamp dt:dt=""r8"">1563970297613</Timestamp><Current dt:dt=""r8"">0</Current><DateUtc dt:dt=""string"">2015-02-18T18:05:32Z</DateUtc></FrequencyChange></FrequencyChanges></Clock>\n"	Arrow Flanker 2014-12000-1	60.019	1.0.0.86	1	602762138	Professional	2.0.10.353	2.0.10.353	02-18-2015	2/18/2015 6:05:32 PM	13:05:32	2.0.10.248	3	1	1	1	NA	NA	NA	NA	NA	NA	NA	NA	NA	NA	NA	NA	NA	NA	NA	NA	NA	NA	NA	NA	NA	NA	NA	NA	BlockProc	BlockList	NA	57	{LEFTARROW}	NA	-100	2481	congruent	NA	NA	NA	NA	NA	NA	NA	NA	NA	NA	NA	NA	NA	NA	NA	NA	NA	NA	NA	NA	NA	NA	TrialProc	TrialList	1	14	351451	17	0	16	349135	0	1	{LEFTARROW}	-999999	0	350968	0	{LEFTARROW}	469	351437	NA	NA	left	lllll.bmp	354	0	NA	0	0	0	0	NA	0	0	0	NA	0	0	0	0	NA	0	0	1	1	57
Arrow Flanker 2014	12000	1	"<?xml version=""1.0""?>\n<Clock xmlns:dt=""urn:schemas-microsoft-com:datatypes""><Description dt:dt=""string"">E-Prime Primary Realtime Clock</Description><StartTime><Timestamp dt:dt=""int"">0</Timestamp><DateUtc dt:dt=""string"">2015-02-18T18:05:32Z</DateUtc></StartTime><FrequencyChanges><FrequencyChange><Frequency dt:dt=""r8"">2825693</Frequency><Timestamp dt:dt=""r8"">1563970297613</Timestamp><Current dt:dt=""r8"">0</Current><DateUtc dt:dt=""string"">2015-02-18T18:05:32Z</DateUtc></FrequencyChange></FrequencyChanges></Clock>\n"	Arrow Flanker 2014-12000-1	60.019	1.0.0.86	1	602762138	Professional	2.0.10.353	2.0.10.353	02-18-2015	2/18/2015 6:05:32 PM	13:05:32	2.0.10.248	3	1	1	1	NA	NA	NA	NA	NA	NA	NA	NA	NA	NA	NA	NA	NA	NA	NA	NA	NA	NA	NA	NA	NA	NA	NA	NA	BlockProc	BlockList	NA	58	{LEFTARROW}	NA	-100	2413	incongruent	NA	NA	NA	NA	NA	NA	NA	NA	NA	NA	NA	NA	NA	NA	NA	NA	NA	NA	NA	NA	NA	NA	TrialProc	TrialList	0	21	354234	16	0	16	351984	0	1	{LEFTARROW}	-999999	0	353717	0	{LEFTARROW}	496	354213	NA	NA	left	rrlrr.bmp	354	0	NA	0	0	0	0	NA	0	0	0	NA	0	0	0	0	NA	0	0	3	1	58
Arrow Flanker 2014	12000	1	"<?xml version=""1.0""?>\n<Clock xmlns:dt=""urn:schemas-microsoft-com:datatypes""><Description dt:dt=""string"">E-Prime Primary Realtime Clock</Description><StartTime><Timestamp dt:dt=""int"">0</Timestamp><DateUtc dt:dt=""string"">2015-02-18T18:05:32Z</DateUtc></StartTime><FrequencyChanges><FrequencyChange><Frequency dt:dt=""r8"">2825693</Frequency><Timestamp dt:dt=""r8"">1563970297613</Timestamp><Current dt:dt=""r8"">0</Current><DateUtc dt:dt=""string"">2015-02-18T18:05:32Z</DateUtc></FrequencyChange></FrequencyChanges></Clock>\n"	Arrow Flanker 2014-12000-1	60.019	1.0.0.86	1	602762138	Professional	2.0.10.353	2.0.10.353	02-18-2015	2/18/2015 6:05:32 PM	13:05:32	2.0.10.248	3	1	1	1	NA	NA	NA	NA	NA	NA	NA	NA	NA	NA	NA	NA	NA	NA	NA	NA	NA	NA	NA	NA	NA	NA	NA	NA	BlockProc	BlockList	NA	59	{LEFTARROW}	NA	-100	741	incongruent	NA	NA	NA	NA	NA	NA	NA	NA	NA	NA	NA	NA	NA	NA	NA	NA	NA	NA	NA	NA	NA	NA	TrialProc	TrialList	1	13	356466	17	0	17	354767	0	1	{LEFTARROW}	-999999	0	355900	0	{LEFTARROW}	553	356453	NA	NA	left	rrlrr.bmp	354	0	NA	0	0	0	0	NA	0	0	0	NA	0	0	0	0	NA	0	0	3	1	59
Arrow Flanker 2014	12000	1	"<?xml version=""1.0""?>\n<Clock xmlns:dt=""urn:schemas-microsoft-com:datatypes""><Description dt:dt=""string"">E-Prime Primary Realtime Clock</Description><StartTime><Timestamp dt:dt=""int"">0</Timestamp><DateUtc dt:dt=""string"">2015-02-18T18:05:32Z</DateUtc></StartTime><FrequencyChanges><FrequencyChange><Frequency dt:dt=""r8"">2825693</Frequency><Timestamp dt:dt=""r8"">1563970297613</Timestamp><Current dt:dt=""r8"">0</Current><DateUtc dt:dt=""string"">2015-02-18T18:05:32Z</DateUtc></FrequencyChange></FrequencyChanges></Clock>\n"	Arrow Flanker 2014-12000-1	60.019	1.0.0.86	1	602762138	Professional	2.0.10.353	2.0.10.353	02-18-2015	2/18/2015 6:05:32 PM	13:05:32	2.0.10.248	3	1	1	1	NA	NA	NA	NA	NA	NA	NA	NA	NA	NA	NA	NA	NA	NA	NA	NA	NA	NA	NA	NA	NA	NA	NA	NA	BlockProc	BlockList	NA	60	{LEFTARROW}	NA	-100	1371	neutral	NA	NA	NA	NA	NA	NA	NA	NA	NA	NA	NA	NA	NA	NA	NA	NA	NA	NA	NA	NA	NA	NA	TrialProc	TrialList	0	16	359149	17	0	16	356999	0	1	{LEFTARROW}	-999999	0	358666	0	{LEFTARROW}	467	359133	NA	NA	left	ooloo.bmp	354	0	NA	0	0	0	0	NA	0	0	0	NA	0	0	0	0	NA	0	0	5	1	60
Arrow Flanker 2014	12000	1	"<?xml version=""1.0""?>\n<Clock xmlns:dt=""urn:schemas-microsoft-com:datatypes""><Description dt:dt=""string"">E-Prime Primary Realtime Clock</Description><StartTime><Timestamp dt:dt=""int"">0</Timestamp><DateUtc dt:dt=""string"">2015-02-18T18:05:32Z</DateUtc></StartTime><FrequencyChanges><FrequencyChange><Frequency dt:dt=""r8"">2825693</Frequency><Timestamp dt:dt=""r8"">1563970297613</Timestamp><Current dt:dt=""r8"">0</Current><DateUtc dt:dt=""string"">2015-02-18T18:05:32Z</DateUtc></FrequencyChange></FrequencyChanges></Clock>\n"	Arrow Flanker 2014-12000-1	60.019	1.0.0.86	1	602762138	Professional	2.0.10.353	2.0.10.353	02-18-2015	2/18/2015 6:05:32 PM	13:05:32	2.0.10.248	3	1	1	1	NA	NA	NA	NA	NA	NA	NA	NA	NA	NA	NA	NA	NA	NA	NA	NA	NA	NA	NA	NA	NA	NA	NA	NA	BlockProc	BlockList	NA	61	{RIGHTARROW}	NA	-100	1600	neutral	NA	NA	NA	NA	NA	NA	NA	NA	NA	NA	NA	NA	NA	NA	NA	NA	NA	NA	NA	NA	NA	NA	TrialProc	TrialList	1	7	361931	17	0	16	359682	0	1	{RIGHTARROW}	-999999	0	361465	0	{RIGHTARROW}	459	361924	NA	NA	right	ooroo.bmp	354	0	NA	0	0	0	0	NA	0	0	0	NA	0	0	0	0	NA	0	0	6	1	61
Arrow Flanker 2014	12000	1	"<?xml version=""1.0""?>\n<Clock xmlns:dt=""urn:schemas-microsoft-com:datatypes""><Description dt:dt=""string"">E-Prime Primary Realtime Clock</Description><StartTime><Timestamp dt:dt=""int"">0</Timestamp><DateUtc dt:dt=""string"">2015-02-18T18:05:32Z</DateUtc></StartTime><FrequencyChanges><FrequencyChange><Frequency dt:dt=""r8"">2825693</Frequency><Timestamp dt:dt=""r8"">1563970297613</Timestamp><Current dt:dt=""r8"">0</Current><DateUtc dt:dt=""string"">2015-02-18T18:05:32Z</DateUtc></FrequencyChange></FrequencyChanges></Clock>\n"	Arrow Flanker 2014-12000-1	60.019	1.0.0.86	1	602762138	Professional	2.0.10.353	2.0.10.353	02-18-2015	2/18/2015 6:05:32 PM	13:05:32	2.0.10.248	3	1	1	1	NA	NA	NA	NA	NA	NA	NA	NA	NA	NA	NA	NA	NA	NA	NA	NA	NA	NA	NA	NA	NA	NA	NA	NA	BlockProc	BlockList	NA	62	{LEFTARROW}	NA	-100	1419	congruent	NA	NA	NA	NA	NA	NA	NA	NA	NA	NA	NA	NA	NA	NA	NA	NA	NA	NA	NA	NA	NA	NA	TrialProc	TrialList	0	6	364498	16	0	16	362464	0	1	{LEFTARROW}	-999999	0	364064	0	{LEFTARROW}	428	364492	NA	NA	left	lllll.bmp	354	0	NA	0	0	0	0	NA	0	0	0	NA	0	0	0	0	NA	0	0	1	1	62
Arrow Flanker 2014	12000	1	"<?xml version=""1.0""?>\n<Clock xmlns:dt=""urn:schemas-microsoft-com:datatypes""><Description dt:dt=""string"">E-Prime Primary Realtime Clock</Description><StartTime><Timestamp dt:dt=""int"">0</Timestamp><DateUtc dt:dt=""string"">2015-02-18T18:05:32Z</DateUtc></StartTime><FrequencyChanges><FrequencyChange><Frequency dt:dt=""r8"">2825693</Frequency><Timestamp dt:dt=""r8"">1563970297613</Timestamp><Current dt:dt=""r8"">0</Current><DateUtc dt:dt=""string"">2015-02-18T18:05:32Z</DateUtc></FrequencyChange></FrequencyChanges></Clock>\n"	Arrow Flanker 2014-12000-1	60.019	1.0.0.86	1	602762138	Professional	2.0.10.353	2.0.10.353	02-18-2015	2/18/2015 6:05:32 PM	13:05:32	2.0.10.248	3	1	1	1	NA	NA	NA	NA	NA	NA	NA	NA	NA	NA	NA	NA	NA	NA	NA	NA	NA	NA	NA	NA	NA	NA	NA	NA	BlockProc	BlockList	NA	63	{RIGHTARROW}	NA	-100	1046	incongruent	NA	NA	NA	NA	NA	NA	NA	NA	NA	NA	NA	NA	NA	NA	NA	NA	NA	NA	NA	NA	NA	NA	TrialProc	TrialList	0	10	367030	16	0	16	365030	0	1	{RIGHTARROW}	-999999	0	366430	0	{RIGHTARROW}	590	367020	NA	NA	right	llrll.bmp	354	0	NA	0	0	0	0	NA	0	0	0	NA	0	0	0	0	NA	0	0	4	1	63
Arrow Flanker 2014	12000	1	"<?xml version=""1.0""?>\n<Clock xmlns:dt=""urn:schemas-microsoft-com:datatypes""><Description dt:dt=""string"">E-Prime Primary Realtime Clock</Description><StartTime><Timestamp dt:dt=""int"">0</Timestamp><DateUtc dt:dt=""string"">2015-02-18T18:05:32Z</DateUtc></StartTime><FrequencyChanges><FrequencyChange><Frequency dt:dt=""r8"">2825693</Frequency><Timestamp dt:dt=""r8"">1563970297613</Timestamp><Current dt:dt=""r8"">0</Current><DateUtc dt:dt=""string"">2015-02-18T18:05:32Z</DateUtc></FrequencyChange></FrequencyChanges></Clock>\n"	Arrow Flanker 2014-12000-1	60.019	1.0.0.86	1	602762138	Professional	2.0.10.353	2.0.10.353	02-18-2015	2/18/2015 6:05:32 PM	13:05:32	2.0.10.248	3	1	1	1	NA	NA	NA	NA	NA	NA	NA	NA	NA	NA	NA	NA	NA	NA	NA	NA	NA	NA	NA	NA	NA	NA	NA	NA	BlockProc	BlockList	NA	64	{LEFTARROW}	NA	-100	1048	congruent	NA	NA	NA	NA	NA	NA	NA	NA	NA	NA	NA	NA	NA	NA	NA	NA	NA	NA	NA	NA	NA	NA	TrialProc	TrialList	0	7	369379	17	0	17	367563	0	1	{LEFTARROW}	-999999	0	368879	0	{LEFTARROW}	493	369372	NA	NA	left	lllll.bmp	354	0	NA	0	0	0	0	NA	0	0	0	NA	0	0	0	0	NA	0	0	1	1	64
Arrow Flanker 2014	12000	1	"<?xml version=""1.0""?>\n<Clock xmlns:dt=""urn:schemas-microsoft-com:datatypes""><Description dt:dt=""string"">E-Prime Primary Realtime Clock</Description><StartTime><Timestamp dt:dt=""int"">0</Timestamp><DateUtc dt:dt=""string"">2015-02-18T18:05:32Z</DateUtc></StartTime><FrequencyChanges><FrequencyChange><Frequency dt:dt=""r8"">2825693</Frequency><Timestamp dt:dt=""r8"">1563970297613</Timestamp><Current dt:dt=""r8"">0</Current><DateUtc dt:dt=""string"">2015-02-18T18:05:32Z</DateUtc></FrequencyChange></FrequencyChanges></Clock>\n"	Arrow Flanker 2014-12000-1	60.019	1.0.0.86	1	602762138	Professional	2.0.10.353	2.0.10.353	02-18-2015	2/18/2015 6:05:32 PM	13:05:32	2.0.10.248	3	1	1	1	NA	NA	NA	NA	NA	NA	NA	NA	NA	NA	NA	NA	NA	NA	NA	NA	NA	NA	NA	NA	NA	NA	NA	NA	BlockProc	BlockList	NA	65	{LEFTARROW}	NA	-100	2171	congruent	NA	NA	NA	NA	NA	NA	NA	NA	NA	NA	NA	NA	NA	NA	NA	NA	NA	NA	NA	NA	NA	NA	TrialProc	TrialList	0	9	371845	17	0	16	369912	0	1	{LEFTARROW}	-999999	0	371412	0	{LEFTARROW}	424	371836	NA	NA	left	lllll.bmp	354	0	NA	0	0	0	0	NA	0	0	0	NA	0	0	0	0	NA	0	0	1	1	65
Arrow Flanker 2014	12000	1	"<?xml version=""1.0""?>\n<Clock xmlns:dt=""urn:schemas-microsoft-com:datatypes""><Description dt:dt=""string"">E-Prime Primary Realtime Clock</Description><StartTime><Timestamp dt:dt=""int"">0</Timestamp><DateUtc dt:dt=""string"">2015-02-18T18:05:32Z</DateUtc></StartTime><FrequencyChanges><FrequencyChange><Frequency dt:dt=""r8"">2825693</Frequency><Timestamp dt:dt=""r8"">1563970297613</Timestamp><Current dt:dt=""r8"">0</Current><DateUtc dt:dt=""string"">2015-02-18T18:05:32Z</DateUtc></FrequencyChange></FrequencyChanges></Clock>\n"	Arrow Flanker 2014-12000-1	60.019	1.0.0.86	1	602762138	Professional	2.0.10.353	2.0.10.353	02-18-2015	2/18/2015 6:05:32 PM	13:05:32	2.0.10.248	3	1	1	1	NA	NA	NA	NA	NA	NA	NA	NA	NA	NA	NA	NA	NA	NA	NA	NA	NA	NA	NA	NA	NA	NA	NA	NA	BlockProc	BlockList	NA	66	{LEFTARROW}	NA	-100	2270	incongruent	NA	NA	NA	NA	NA	NA	NA	NA	NA	NA	NA	NA	NA	NA	NA	NA	NA	NA	NA	NA	NA	NA	TrialProc	TrialList	0	20	374744	17	0	16	372378	0	1	{LEFTARROW}	-999999	0	374228	0	{LEFTARROW}	495	374723	NA	NA	left	rrlrr.bmp	354	0	NA	0	0	0	0	NA	0	0	0	NA	0	0	0	0	NA	0	0	3	1	66
Arrow Flanker 2014	12000	1	"<?xml version=""1.0""?>\n<Clock xmlns:dt=""urn:schemas-microsoft-com:datatypes""><Description dt:dt=""string"">E-Prime Primary Realtime Clock</Description><StartTime><Timestamp dt:dt=""int"">0</Timestamp><DateUtc dt:dt=""string"">2015-02-18T18:05:32Z</DateUtc></StartTime><FrequencyChanges><FrequencyChange><Frequency dt:dt=""r8"">2825693</Frequency><Timestamp dt:dt=""r8"">1563970297613</Timestamp><Current dt:dt=""r8"">0</Current><DateUtc dt:dt=""string"">2015-02-18T18:05:32Z</DateUtc></FrequencyChange></FrequencyChanges></Clock>\n"	Arrow Flanker 2014-12000-1	60.019	1.0.0.86	1	602762138	Professional	2.0.10.353	2.0.10.353	02-18-2015	2/18/2015 6:05:32 PM	13:05:32	2.0.10.248	3	1	1	1	NA	NA	NA	NA	NA	NA	NA	NA	NA	NA	NA	NA	NA	NA	NA	NA	NA	NA	NA	NA	NA	NA	NA	NA	BlockProc	BlockList	NA	67	{RIGHTARROW}	NA	-100	2727	congruent	NA	NA	NA	NA	NA	NA	NA	NA	NA	NA	NA	NA	NA	NA	NA	NA	NA	NA	NA	NA	NA	NA	TrialProc	TrialList	1	13	377776	17	0	16	375277	0	1	{RIGHTARROW}	-999999	0	377360	0	{RIGHTARROW}	403	377763	NA	NA	right	rrrrr.bmp	354	0	NA	0	0	0	0	NA	0	0	0	NA	0	0	0	0	NA	0	0	2	1	67
Arrow Flanker 2014	12000	1	"<?xml version=""1.0""?>\n<Clock xmlns:dt=""urn:schemas-microsoft-com:datatypes""><Description dt:dt=""string"">E-Prime Primary Realtime Clock</Description><StartTime><Timestamp dt:dt=""int"">0</Timestamp><DateUtc dt:dt=""string"">2015-02-18T18:05:32Z</DateUtc></StartTime><FrequencyChanges><FrequencyChange><Frequency dt:dt=""r8"">2825693</Frequency><Timestamp dt:dt=""r8"">1563970297613</Timestamp><Current dt:dt=""r8"">0</Current><DateUtc dt:dt=""string"">2015-02-18T18:05:32Z</DateUtc></FrequencyChange></FrequencyChanges></Clock>\n"	Arrow Flanker 2014-12000-1	60.019	1.0.0.86	1	602762138	Professional	2.0.10.353	2.0.10.353	02-18-2015	2/18/2015 6:05:32 PM	13:05:32	2.0.10.248	3	1	1	1	NA	NA	NA	NA	NA	NA	NA	NA	NA	NA	NA	NA	NA	NA	NA	NA	NA	NA	NA	NA	NA	NA	NA	NA	BlockProc	BlockList	NA	68	{LEFTARROW}	NA	-100	1468	neutral	NA	NA	NA	NA	NA	NA	NA	NA	NA	NA	NA	NA	NA	NA	NA	NA	NA	NA	NA	NA	NA	NA	TrialProc	TrialList	0	6	380393	16	0	17	378310	0	1	{LEFTARROW}	-999999	0	379626	0	{LEFTARROW}	761	380387	NA	NA	left	ooloo.bmp	354	0	NA	0	0	0	0	NA	0	0	0	NA	0	0	0	0	NA	0	0	5	1	68
Arrow Flanker 2014	12000	1	"<?xml version=""1.0""?>\n<Clock xmlns:dt=""urn:schemas-microsoft-com:datatypes""><Description dt:dt=""string"">E-Prime Primary Realtime Clock</Description><StartTime><Timestamp dt:dt=""int"">0</Timestamp><DateUtc dt:dt=""string"">2015-02-18T18:05:32Z</DateUtc></StartTime><FrequencyChanges><FrequencyChange><Frequency dt:dt=""r8"">2825693</Frequency><Timestamp dt:dt=""r8"">1563970297613</Timestamp><Current dt:dt=""r8"">0</Current><DateUtc dt:dt=""string"">2015-02-18T18:05:32Z</DateUtc></FrequencyChange></FrequencyChanges></Clock>\n"	Arrow Flanker 2014-12000-1	60.019	1.0.0.86	1	602762138	Professional	2.0.10.353	2.0.10.353	02-18-2015	2/18/2015 6:05:32 PM	13:05:32	2.0.10.248	3	1	1	1	NA	NA	NA	NA	NA	NA	NA	NA	NA	NA	NA	NA	NA	NA	NA	NA	NA	NA	NA	NA	NA	NA	NA	NA	BlockProc	BlockList	NA	69	{LEFTARROW}	NA	-100	2514	neutral	NA	NA	NA	NA	NA	NA	NA	NA	NA	NA	NA	NA	NA	NA	NA	NA	NA	NA	NA	NA	NA	NA	TrialProc	TrialList	1	12	383391	17	0	16	380925	0	1	{LEFTARROW}	-999999	0	382975	0	{LEFTARROW}	404	383379	NA	NA	left	ooloo.bmp	354	0	NA	0	0	0	0	NA	0	0	0	NA	0	0	0	0	NA	0	0	5	1	69
Arrow Flanker 2014	12000	1	"<?xml version=""1.0""?>\n<Clock xmlns:dt=""urn:schemas-microsoft-com:datatypes""><Description dt:dt=""string"">E-Prime Primary Realtime Clock</Description><StartTime><Timestamp dt:dt=""int"">0</Timestamp><DateUtc dt:dt=""string"">2015-02-18T18:05:32Z</DateUtc></StartTime><FrequencyChanges><FrequencyChange><Frequency dt:dt=""r8"">2825693</Frequency><Timestamp dt:dt=""r8"">1563970297613</Timestamp><Current dt:dt=""r8"">0</Current><DateUtc dt:dt=""string"">2015-02-18T18:05:32Z</DateUtc></FrequencyChange></FrequencyChanges></Clock>\n"	Arrow Flanker 2014-12000-1	60.019	1.0.0.86	1	602762138	Professional	2.0.10.353	2.0.10.353	02-18-2015	2/18/2015 6:05:32 PM	13:05:32	2.0.10.248	3	1	1	1	NA	NA	NA	NA	NA	NA	NA	NA	NA	NA	NA	NA	NA	NA	NA	NA	NA	NA	NA	NA	NA	NA	NA	NA	BlockProc	BlockList	NA	70	{RIGHTARROW}	NA	-100	2094	neutral	NA	NA	NA	NA	NA	NA	NA	NA	NA	NA	NA	NA	NA	NA	NA	NA	NA	NA	NA	NA	1	NA	TrialProc	TrialList	0	10	385941	16	0	16	383924	0	1	{RIGHTARROW}	-999999	0	385524	0	{RIGHTARROW}	407	385931	NA	NA	right	ooroo.bmp	354	0	NA	-999999	17	386474	0	1	3749	390223	0	NA	0	0	0	0	NA	0	0	6	1	70
Arrow Flanker 2014	12000	1	"<?xml version=""1.0""?>\n<Clock xmlns:dt=""urn:schemas-microsoft-com:datatypes""><Description dt:dt=""string"">E-Prime Primary Realtime Clock</Description><StartTime><Timestamp dt:dt=""int"">0</Timestamp><DateUtc dt:dt=""string"">2015-02-18T18:05:32Z</DateUtc></StartTime><FrequencyChanges><FrequencyChange><Frequency dt:dt=""r8"">2825693</Frequency><Timestamp dt:dt=""r8"">1563970297613</Timestamp><Current dt:dt=""r8"">0</Current><DateUtc dt:dt=""string"">2015-02-18T18:05:32Z</DateUtc></FrequencyChange></FrequencyChanges></Clock>\n"	Arrow Flanker 2014-12000-1	60.019	1.0.0.86	1	602762138	Professional	2.0.10.353	2.0.10.353	02-18-2015	2/18/2015 6:05:32 PM	13:05:32	2.0.10.248	3	1	1	1	NA	NA	NA	NA	NA	NA	NA	NA	NA	NA	NA	NA	NA	NA	NA	NA	NA	NA	NA	NA	NA	NA	NA	NA	BlockProc	BlockList	NA	71	{RIGHTARROW}	NA	-100	1879	incongruent	NA	NA	NA	NA	NA	NA	NA	NA	NA	NA	NA	NA	NA	NA	NA	NA	NA	NA	NA	NA	NA	NA	TrialProc	TrialList	1	20	393438	17	0	24	391306	0	1	{RIGHTARROW}	-999999	0	392572	0	{RIGHTARROW}	846	393418	NA	NA	right	llrll.bmp	354	0	NA	0	0	0	0	NA	0	0	0	NA	0	0	0	0	NA	0	0	4	1	71
Arrow Flanker 2014	12000	1	"<?xml version=""1.0""?>\n<Clock xmlns:dt=""urn:schemas-microsoft-com:datatypes""><Description dt:dt=""string"">E-Prime Primary Realtime Clock</Description><StartTime><Timestamp dt:dt=""int"">0</Timestamp><DateUtc dt:dt=""string"">2015-02-18T18:05:32Z</DateUtc></StartTime><FrequencyChanges><FrequencyChange><Frequency dt:dt=""r8"">2825693</Frequency><Timestamp dt:dt=""r8"">1563970297613</Timestamp><Current dt:dt=""r8"">0</Current><DateUtc dt:dt=""string"">2015-02-18T18:05:32Z</DateUtc></FrequencyChange></FrequencyChanges></Clock>\n"	Arrow Flanker 2014-12000-1	60.019	1.0.0.86	1	602762138	Professional	2.0.10.353	2.0.10.353	02-18-2015	2/18/2015 6:05:32 PM	13:05:32	2.0.10.248	3	1	1	1	NA	NA	NA	NA	NA	NA	NA	NA	NA	NA	NA	NA	NA	NA	NA	NA	NA	NA	NA	NA	NA	NA	NA	NA	BlockProc	BlockList	NA	72	{RIGHTARROW}	NA	-100	1329	incongruent	NA	NA	NA	NA	NA	NA	NA	NA	NA	NA	NA	NA	NA	NA	NA	NA	NA	NA	NA	NA	NA	NA	TrialProc	TrialList	0	7	395921	17	0	16	393971	0	1	{RIGHTARROW}	-999999	0	395371	0	{RIGHTARROW}	543	395914	NA	NA	right	llrll.bmp	354	0	NA	0	0	0	0	NA	0	0	0	NA	0	0	0	0	NA	0	0	4	1	72
Arrow Flanker 2014	12000	1	"<?xml version=""1.0""?>\n<Clock xmlns:dt=""urn:schemas-microsoft-com:datatypes""><Description dt:dt=""string"">E-Prime Primary Realtime Clock</Description><StartTime><Timestamp dt:dt=""int"">0</Timestamp><DateUtc dt:dt=""string"">2015-02-18T18:05:32Z</DateUtc></StartTime><FrequencyChanges><FrequencyChange><Frequency dt:dt=""r8"">2825693</Frequency><Timestamp dt:dt=""r8"">1563970297613</Timestamp><Current dt:dt=""r8"">0</Current><DateUtc dt:dt=""string"">2015-02-18T18:05:32Z</DateUtc></FrequencyChange></FrequencyChanges></Clock>\n"	Arrow Flanker 2014-12000-1	60.019	1.0.0.86	1	602762138	Professional	2.0.10.353	2.0.10.353	02-18-2015	2/18/2015 6:05:32 PM	13:05:32	2.0.10.248	3	1	1	1	NA	NA	NA	NA	NA	NA	NA	NA	NA	NA	NA	NA	NA	NA	NA	NA	NA	NA	NA	NA	NA	NA	NA	NA	BlockProc	BlockList	NA	73	{LEFTARROW}	NA	-100	1052	neutral	NA	NA	NA	NA	NA	NA	NA	NA	NA	NA	NA	NA	NA	NA	NA	NA	NA	NA	NA	NA	NA	NA	TrialProc	TrialList	1	11	398253	17	0	16	396454	0	1	{LEFTARROW}	-999999	0	397804	0	{LEFTARROW}	438	398242	NA	NA	left	ooloo.bmp	354	0	NA	0	0	0	0	NA	0	0	0	NA	0	0	0	0	NA	0	0	5	1	73
