ExperimentName	Subject	Session	Clock.Information	DataFile.Basename	Display.RefreshRate	ExperimentVersion	Group	RandomSeed	RuntimeCapabilities	RuntimeVersion	RuntimeVersionExpected	SessionDate	SessionStartDateTimeUtc	SessionTime	StudioVersion	Block	BlockList	BlockList.Cycle	BlockList.Sample	Both	CompletelyMW	CongMeanRT	CongTotal	Fragmented	GoodByeList	GoodByeList.Cycle	GoodByeList.Sample	IncongMeanRT	IncongTotal	MapBlockList	MapBlockList.Cycle	MapBlockList.Sample	Mindwandering	MostlyMW	MostlyOT	NeutralMeanRT	NeutralTotal	NumberProbes1	NumberProbes2	OnTask	PracBlockList	PracBlockList.Cycle	PracBlockList.Sample	Procedure[Block]	Running[Block]	Sequential	Trial	CorrectAnswer	CuePositionY	CuePositionY2	DurationOfFixation	FlankerType	MapTrialList	MapTrialList.Cycle	MapTrialList.Sample	PracSlideFixationStart.DurationError	PracSlideFixationStart.OnsetDelay	PracSlideFixationStart.OnsetTime	PracSlideFixationStart.OnsetToOnsetTime	PracSlideTarget.ACC	PracSlideTarget.CRESP	PracSlideTarget.DurationError	PracSlideTarget.OnsetDelay	PracSlideTarget.OnsetTime	PracSlideTarget.OnsetToOnsetTime	PracSlideTarget.RESP	PracSlideTarget.RT	PracSlideTarget.RTTime	PracSlideTarget.Tag	PracTrialList	PracTrialList.Cycle	PracTrialList.Sample	Probe1Resp	Probe2Resp	Procedure[Trial]	Running[Trial]	SlideFixationEnd.DurationError	SlideFixationEnd.OnsetDelay	SlideFixationEnd.OnsetTime	SlideFixationEnd.OnsetToOnsetTime	SlideFixationStart.DurationError	SlideFixationStart.OnsetDelay	SlideFixationStart.OnsetTime	SlideFixationStart.OnsetToOnsetTime	SlideTarget.ACC	SlideTarget.CRESP	SlideTarget.DurationError	SlideTarget.OnsetDelay	SlideTarget.OnsetTime	SlideTarget.OnsetToOnsetTime	SlideTarget.RESP	SlideTarget.RT	SlideTarget.RTTime	SlideTarget.Tag	TargerDirection	TargetDirection	TargetImage	TargetPosition	ThoughtProbe1.ACC	ThoughtProbe1.CRESP	ThoughtProbe1.DurationError	ThoughtProbe1.OnsetDelay	ThoughtProbe1.OnsetTime	ThoughtProbe1.OnsetToOnsetTime	ThoughtProbe1.RESP	ThoughtProbe1.RT	ThoughtProbe1.RTTime	ThoughtProbe2.ACC	ThoughtProbe2.CRESP	ThoughtProbe2.DurationError	ThoughtProbe2.OnsetDelay	ThoughtProbe2.OnsetTime	ThoughtProbe2.OnsetToOnsetTime	ThoughtProbe2.RESP	ThoughtProbe2.RT	ThoughtProbe2.RTTime	TrialList	TrialList.Cycle	TrialList.Sample
Arrow Flanker 2014	12049	1	"<?xml version=""1.0""?>\n<Clock xmlns:dt=""urn:schemas-microsoft-com:datatypes""><Description dt:dt=""string"">E-Prime Primary Realtime Clock</Description><StartTime><Timestamp dt:dt=""int"">0</Timestamp><DateUtc dt:dt=""string"">2015-03-03T15:10:36Z</DateUtc></StartTime><FrequencyChanges><FrequencyChange><Frequency dt:dt=""r8"">2825654</Frequency><Timestamp dt:dt=""r8"">2064957387</Timestamp><Current dt:dt=""r8"">0</Current><DateUtc dt:dt=""string"">2015-03-03T15:10:36Z</DateUtc></FrequencyChange></FrequencyChanges></Clock>\n"	Arrow Flanker 2014-12049-1	60.018	1.0.0.91	1	2065501684	Professional	2.0.10.353	2.0.10.353	03-03-2015	3/3/2015 3:10:36 PM	10:10:36	2.0.10.248	1	NA	NA	NA	NA	NA	NA	NA	NA	NA	NA	NA	NA	NA	1	1	1	NA	NA	NA	NA	NA	NA	NA	NA	NA	NA	NA	MapBlockProc	MapBlockList	NA	1	{LEFTARROW}	-100	NA	1440	NA	1	1	1	0	22	82771	1450	1	{LEFTARROW}	-999999	0	84721	0	{LEFTARROW}	892	85613	NA	NA	NA	NA	NA	NA	MapTrialProc	MapTrialList	NA	NA	NA	NA	NA	NA	NA	NA	NA	NA	NA	NA	NA	NA	NA	NA	NA	NA	left	NA	L.bmp	354	NA	NA	NA	NA	NA	NA	NA	NA	NA	NA	NA	NA	NA	NA	NA	NA	NA	NA	NA	NA	NA
Arrow Flanker 2014	12049	1	"<?xml version=""1.0""?>\n<Clock xmlns:dt=""urn:schemas-microsoft-com:datatypes""><Description dt:dt=""string"">E-Prime Primary Realtime Clock</Description><StartTime><Timestamp dt:dt=""int"">0</Timestamp><DateUtc dt:dt=""string"">2015-03-03T15:10:36Z</DateUtc></StartTime><FrequencyChanges><FrequencyChange><Frequency dt:dt=""r8"">2825654</Frequency><Timestamp dt:dt=""r8"">2064957387</Timestamp><Current dt:dt=""r8"">0</Current><DateUtc dt:dt=""string"">2015-03-03T15:10:36Z</DateUtc></FrequencyChange></FrequencyChanges></Clock>\n"	Arrow Flanker 2014-12049-1	60.018	1.0.0.91	1	2065501684	Professional	2.0.10.353	2.0.10.353	03-03-2015	3/3/2015 3:10:36 PM	10:10:36	2.0.10.248	1	NA	NA	NA	NA	NA	NA	NA	NA	NA	NA	NA	NA	NA	1	1	1	NA	NA	NA	NA	NA	NA	NA	NA	NA	NA	NA	MapBlockProc	MapBlockList	NA	2	{RIGHTARROW}	-100	NA	1485	NA	2	1	2	0	16	87153	1500	1	{RIGHTARROW}	-999999	0	89153	0	{RIGHTARROW}	587	89740	NA	NA	NA	NA	NA	NA	MapTrialProc	MapTrialList	NA	NA	NA	NA	NA	NA	NA	NA	NA	NA	NA	NA	NA	NA	NA	NA	NA	NA	right	NA	R.bmp	354	NA	NA	NA	NA	NA	NA	NA	NA	NA	NA	NA	NA	NA	NA	NA	NA	NA	NA	NA	NA	NA
Arrow Flanker 2014	12049	1	"<?xml version=""1.0""?>\n<Clock xmlns:dt=""urn:schemas-microsoft-com:datatypes""><Description dt:dt=""string"">E-Prime Primary Realtime Clock</Description><StartTime><Timestamp dt:dt=""int"">0</Timestamp><DateUtc dt:dt=""string"">2015-03-03T15:10:36Z</DateUtc></StartTime><FrequencyChanges><FrequencyChange><Frequency dt:dt=""r8"">2825654</Frequency><Timestamp dt:dt=""r8"">2064957387</Timestamp><Current dt:dt=""r8"">0</Current><DateUtc dt:dt=""string"">2015-03-03T15:10:36Z</DateUtc></FrequencyChange></FrequencyChanges></Clock>\n"	Arrow Flanker 2014-12049-1	60.018	1.0.0.91	1	2065501684	Professional	2.0.10.353	2.0.10.353	03-03-2015	3/3/2015 3:10:36 PM	10:10:36	2.0.10.248	1	NA	NA	NA	NA	NA	NA	NA	NA	NA	NA	NA	NA	NA	1	1	1	NA	NA	NA	NA	NA	NA	NA	NA	NA	NA	NA	MapBlockProc	MapBlockList	NA	3	{LEFTARROW}	-100	NA	943	NA	1	1	3	0	17	91269	949	1	{LEFTARROW}	-999999	0	92718	0	{LEFTARROW}	334	93052	NA	NA	NA	NA	NA	NA	MapTrialProc	MapTrialList	NA	NA	NA	NA	NA	NA	NA	NA	NA	NA	NA	NA	NA	NA	NA	NA	NA	NA	left	NA	L.bmp	354	NA	NA	NA	NA	NA	NA	NA	NA	NA	NA	NA	NA	NA	NA	NA	NA	NA	NA	NA	NA	NA
Arrow Flanker 2014	12049	1	"<?xml version=""1.0""?>\n<Clock xmlns:dt=""urn:schemas-microsoft-com:datatypes""><Description dt:dt=""string"">E-Prime Primary Realtime Clock</Description><StartTime><Timestamp dt:dt=""int"">0</Timestamp><DateUtc dt:dt=""string"">2015-03-03T15:10:36Z</DateUtc></StartTime><FrequencyChanges><FrequencyChange><Frequency dt:dt=""r8"">2825654</Frequency><Timestamp dt:dt=""r8"">2064957387</Timestamp><Current dt:dt=""r8"">0</Current><DateUtc dt:dt=""string"">2015-03-03T15:10:36Z</DateUtc></FrequencyChange></FrequencyChanges></Clock>\n"	Arrow Flanker 2014-12049-1	60.018	1.0.0.91	1	2065501684	Professional	2.0.10.353	2.0.10.353	03-03-2015	3/3/2015 3:10:36 PM	10:10:36	2.0.10.248	1	NA	NA	NA	NA	NA	NA	NA	NA	NA	NA	NA	NA	NA	1	1	1	NA	NA	NA	NA	NA	NA	NA	NA	NA	NA	NA	MapBlockProc	MapBlockList	NA	4	{LEFTARROW}	-100	NA	460	NA	1	1	4	0	16	94584	467	1	{LEFTARROW}	-999999	0	95551	0	{LEFTARROW}	541	96092	NA	NA	NA	NA	NA	NA	MapTrialProc	MapTrialList	NA	NA	NA	NA	NA	NA	NA	NA	NA	NA	NA	NA	NA	NA	NA	NA	NA	NA	left	NA	L.bmp	354	NA	NA	NA	NA	NA	NA	NA	NA	NA	NA	NA	NA	NA	NA	NA	NA	NA	NA	NA	NA	NA
Arrow Flanker 2014	12049	1	"<?xml version=""1.0""?>\n<Clock xmlns:dt=""urn:schemas-microsoft-com:datatypes""><Description dt:dt=""string"">E-Prime Primary Realtime Clock</Description><StartTime><Timestamp dt:dt=""int"">0</Timestamp><DateUtc dt:dt=""string"">2015-03-03T15:10:36Z</DateUtc></StartTime><FrequencyChanges><FrequencyChange><Frequency dt:dt=""r8"">2825654</Frequency><Timestamp dt:dt=""r8"">2064957387</Timestamp><Current dt:dt=""r8"">0</Current><DateUtc dt:dt=""string"">2015-03-03T15:10:36Z</DateUtc></FrequencyChange></FrequencyChanges></Clock>\n"	Arrow Flanker 2014-12049-1	60.018	1.0.0.91	1	2065501684	Professional	2.0.10.353	2.0.10.353	03-03-2015	3/3/2015 3:10:36 PM	10:10:36	2.0.10.248	1	NA	NA	NA	NA	NA	NA	NA	NA	NA	NA	NA	NA	NA	1	1	1	NA	NA	NA	NA	NA	NA	NA	NA	NA	NA	NA	MapBlockProc	MapBlockList	NA	5	{RIGHTARROW}	-100	NA	516	NA	2	1	5	0	16	97633	517	1	{RIGHTARROW}	-999999	0	98650	0	{RIGHTARROW}	498	99148	NA	NA	NA	NA	NA	NA	MapTrialProc	MapTrialList	NA	NA	NA	NA	NA	NA	NA	NA	NA	NA	NA	NA	NA	NA	NA	NA	NA	NA	right	NA	R.bmp	354	NA	NA	NA	NA	NA	NA	NA	NA	NA	NA	NA	NA	NA	NA	NA	NA	NA	NA	NA	NA	NA
Arrow Flanker 2014	12049	1	"<?xml version=""1.0""?>\n<Clock xmlns:dt=""urn:schemas-microsoft-com:datatypes""><Description dt:dt=""string"">E-Prime Primary Realtime Clock</Description><StartTime><Timestamp dt:dt=""int"">0</Timestamp><DateUtc dt:dt=""string"">2015-03-03T15:10:36Z</DateUtc></StartTime><FrequencyChanges><FrequencyChange><Frequency dt:dt=""r8"">2825654</Frequency><Timestamp dt:dt=""r8"">2064957387</Timestamp><Current dt:dt=""r8"">0</Current><DateUtc dt:dt=""string"">2015-03-03T15:10:36Z</DateUtc></FrequencyChange></FrequencyChanges></Clock>\n"	Arrow Flanker 2014-12049-1	60.018	1.0.0.91	1	2065501684	Professional	2.0.10.353	2.0.10.353	03-03-2015	3/3/2015 3:10:36 PM	10:10:36	2.0.10.248	1	NA	NA	NA	NA	NA	NA	NA	NA	NA	NA	NA	NA	NA	1	1	1	NA	NA	NA	NA	NA	NA	NA	NA	NA	NA	NA	MapBlockProc	MapBlockList	NA	6	{RIGHTARROW}	-100	NA	1100	NA	2	1	6	0	17	100683	1116	1	{RIGHTARROW}	-999999	0	102299	0	{RIGHTARROW}	705	103004	NA	NA	NA	NA	NA	NA	MapTrialProc	MapTrialList	NA	NA	NA	NA	NA	NA	NA	NA	NA	NA	NA	NA	NA	NA	NA	NA	NA	NA	right	NA	R.bmp	354	NA	NA	NA	NA	NA	NA	NA	NA	NA	NA	NA	NA	NA	NA	NA	NA	NA	NA	NA	NA	NA
Arrow Flanker 2014	12049	1	"<?xml version=""1.0""?>\n<Clock xmlns:dt=""urn:schemas-microsoft-com:datatypes""><Description dt:dt=""string"">E-Prime Primary Realtime Clock</Description><StartTime><Timestamp dt:dt=""int"">0</Timestamp><DateUtc dt:dt=""string"">2015-03-03T15:10:36Z</DateUtc></StartTime><FrequencyChanges><FrequencyChange><Frequency dt:dt=""r8"">2825654</Frequency><Timestamp dt:dt=""r8"">2064957387</Timestamp><Current dt:dt=""r8"">0</Current><DateUtc dt:dt=""string"">2015-03-03T15:10:36Z</DateUtc></FrequencyChange></FrequencyChanges></Clock>\n"	Arrow Flanker 2014-12049-1	60.018	1.0.0.91	1	2065501684	Professional	2.0.10.353	2.0.10.353	03-03-2015	3/3/2015 3:10:36 PM	10:10:36	2.0.10.248	1	NA	NA	NA	NA	NA	NA	NA	NA	NA	NA	NA	NA	NA	1	1	1	NA	NA	NA	NA	NA	NA	NA	NA	NA	NA	NA	MapBlockProc	MapBlockList	NA	7	{LEFTARROW}	-100	NA	1123	NA	1	1	7	0	16	104531	1133	1	{LEFTARROW}	-999999	0	106164	0	{LEFTARROW}	391	106555	NA	NA	NA	NA	NA	NA	MapTrialProc	MapTrialList	NA	NA	NA	NA	NA	NA	NA	NA	NA	NA	NA	NA	NA	NA	NA	NA	NA	NA	left	NA	L.bmp	354	NA	NA	NA	NA	NA	NA	NA	NA	NA	NA	NA	NA	NA	NA	NA	NA	NA	NA	NA	NA	NA
Arrow Flanker 2014	12049	1	"<?xml version=""1.0""?>\n<Clock xmlns:dt=""urn:schemas-microsoft-com:datatypes""><Description dt:dt=""string"">E-Prime Primary Realtime Clock</Description><StartTime><Timestamp dt:dt=""int"">0</Timestamp><DateUtc dt:dt=""string"">2015-03-03T15:10:36Z</DateUtc></StartTime><FrequencyChanges><FrequencyChange><Frequency dt:dt=""r8"">2825654</Frequency><Timestamp dt:dt=""r8"">2064957387</Timestamp><Current dt:dt=""r8"">0</Current><DateUtc dt:dt=""string"">2015-03-03T15:10:36Z</DateUtc></FrequencyChange></FrequencyChanges></Clock>\n"	Arrow Flanker 2014-12049-1	60.018	1.0.0.91	1	2065501684	Professional	2.0.10.353	2.0.10.353	03-03-2015	3/3/2015 3:10:36 PM	10:10:36	2.0.10.248	1	NA	NA	NA	NA	NA	NA	NA	NA	NA	NA	NA	NA	NA	1	1	1	NA	NA	NA	NA	NA	NA	NA	NA	NA	NA	NA	MapBlockProc	MapBlockList	NA	8	{RIGHTARROW}	-100	NA	1229	NA	2	1	8	0	16	108097	1233	1	{RIGHTARROW}	-999999	0	109830	0	{RIGHTARROW}	293	110123	NA	NA	NA	NA	NA	NA	MapTrialProc	MapTrialList	NA	NA	NA	NA	NA	NA	NA	NA	NA	NA	NA	NA	NA	NA	NA	NA	NA	NA	right	NA	R.bmp	354	NA	NA	NA	NA	NA	NA	NA	NA	NA	NA	NA	NA	NA	NA	NA	NA	NA	NA	NA	NA	NA
Arrow Flanker 2014	12049	1	"<?xml version=""1.0""?>\n<Clock xmlns:dt=""urn:schemas-microsoft-com:datatypes""><Description dt:dt=""string"">E-Prime Primary Realtime Clock</Description><StartTime><Timestamp dt:dt=""int"">0</Timestamp><DateUtc dt:dt=""string"">2015-03-03T15:10:36Z</DateUtc></StartTime><FrequencyChanges><FrequencyChange><Frequency dt:dt=""r8"">2825654</Frequency><Timestamp dt:dt=""r8"">2064957387</Timestamp><Current dt:dt=""r8"">0</Current><DateUtc dt:dt=""string"">2015-03-03T15:10:36Z</DateUtc></FrequencyChange></FrequencyChanges></Clock>\n"	Arrow Flanker 2014-12049-1	60.018	1.0.0.91	1	2065501684	Professional	2.0.10.353	2.0.10.353	03-03-2015	3/3/2015 3:10:36 PM	10:10:36	2.0.10.248	1	NA	NA	NA	NA	NA	NA	NA	NA	NA	NA	NA	NA	NA	1	1	1	NA	NA	NA	NA	NA	NA	NA	NA	NA	NA	NA	MapBlockProc	MapBlockList	NA	9	{RIGHTARROW}	-100	NA	1096	NA	2	1	9	0	16	111663	1099	1	{RIGHTARROW}	-999999	0	113262	0	{RIGHTARROW}	589	113851	NA	NA	NA	NA	NA	NA	MapTrialProc	MapTrialList	NA	NA	NA	NA	NA	NA	NA	NA	NA	NA	NA	NA	NA	NA	NA	NA	NA	NA	right	NA	R.bmp	354	NA	NA	NA	NA	NA	NA	NA	NA	NA	NA	NA	NA	NA	NA	NA	NA	NA	NA	NA	NA	NA
Arrow Flanker 2014	12049	1	"<?xml version=""1.0""?>\n<Clock xmlns:dt=""urn:schemas-microsoft-com:datatypes""><Description dt:dt=""string"">E-Prime Primary Realtime Clock</Description><StartTime><Timestamp dt:dt=""int"">0</Timestamp><DateUtc dt:dt=""string"">2015-03-03T15:10:36Z</DateUtc></StartTime><FrequencyChanges><FrequencyChange><Frequency dt:dt=""r8"">2825654</Frequency><Timestamp dt:dt=""r8"">2064957387</Timestamp><Current dt:dt=""r8"">0</Current><DateUtc dt:dt=""string"">2015-03-03T15:10:36Z</DateUtc></FrequencyChange></FrequencyChanges></Clock>\n"	Arrow Flanker 2014-12049-1	60.018	1.0.0.91	1	2065501684	Professional	2.0.10.353	2.0.10.353	03-03-2015	3/3/2015 3:10:36 PM	10:10:36	2.0.10.248	1	NA	NA	NA	NA	NA	NA	NA	NA	NA	NA	NA	NA	NA	1	1	1	NA	NA	NA	NA	NA	NA	NA	NA	NA	NA	NA	MapBlockProc	MapBlockList	NA	10	{LEFTARROW}	-100	NA	470	NA	1	1	10	0	16	115378	483	1	{LEFTARROW}	-999999	0	116361	0	{LEFTARROW}	466	116827	NA	NA	NA	NA	NA	NA	MapTrialProc	MapTrialList	NA	NA	NA	NA	NA	NA	NA	NA	NA	NA	NA	NA	NA	NA	NA	NA	NA	NA	left	NA	L.bmp	354	NA	NA	NA	NA	NA	NA	NA	NA	NA	NA	NA	NA	NA	NA	NA	NA	NA	NA	NA	NA	NA
Arrow Flanker 2014	12049	1	"<?xml version=""1.0""?>\n<Clock xmlns:dt=""urn:schemas-microsoft-com:datatypes""><Description dt:dt=""string"">E-Prime Primary Realtime Clock</Description><StartTime><Timestamp dt:dt=""int"">0</Timestamp><DateUtc dt:dt=""string"">2015-03-03T15:10:36Z</DateUtc></StartTime><FrequencyChanges><FrequencyChange><Frequency dt:dt=""r8"">2825654</Frequency><Timestamp dt:dt=""r8"">2064957387</Timestamp><Current dt:dt=""r8"">0</Current><DateUtc dt:dt=""string"">2015-03-03T15:10:36Z</DateUtc></FrequencyChange></FrequencyChanges></Clock>\n"	Arrow Flanker 2014-12049-1	60.018	1.0.0.91	1	2065501684	Professional	2.0.10.353	2.0.10.353	03-03-2015	3/3/2015 3:10:36 PM	10:10:36	2.0.10.248	2	NA	NA	NA	NA	NA	NA	NA	NA	NA	NA	NA	NA	NA	NA	NA	NA	NA	NA	NA	NA	NA	NA	NA	NA	1	1	1	PracBlockProc	PracBlockList	NA	1	{RIGHTARROW}	-100	NA	1266	congruent	NA	NA	NA	0	20	135822	1266	1	{RIGHTARROW}	-999999	0	137588	0	{RIGHTARROW}	662	138250	NA	4	1	1	NA	NA	PracTrialProc	PracTrialList	NA	NA	NA	NA	NA	NA	NA	NA	NA	NA	NA	NA	NA	NA	NA	NA	NA	NA	right	NA	rrrrr.bmp	354	NA	NA	NA	NA	NA	NA	NA	NA	NA	NA	NA	NA	NA	NA	NA	NA	NA	NA	NA	NA	NA
Arrow Flanker 2014	12049	1	"<?xml version=""1.0""?>\n<Clock xmlns:dt=""urn:schemas-microsoft-com:datatypes""><Description dt:dt=""string"">E-Prime Primary Realtime Clock</Description><StartTime><Timestamp dt:dt=""int"">0</Timestamp><DateUtc dt:dt=""string"">2015-03-03T15:10:36Z</DateUtc></StartTime><FrequencyChanges><FrequencyChange><Frequency dt:dt=""r8"">2825654</Frequency><Timestamp dt:dt=""r8"">2064957387</Timestamp><Current dt:dt=""r8"">0</Current><DateUtc dt:dt=""string"">2015-03-03T15:10:36Z</DateUtc></FrequencyChange></FrequencyChanges></Clock>\n"	Arrow Flanker 2014-12049-1	60.018	1.0.0.91	1	2065501684	Professional	2.0.10.353	2.0.10.353	03-03-2015	3/3/2015 3:10:36 PM	10:10:36	2.0.10.248	2	NA	NA	NA	NA	NA	NA	NA	NA	NA	NA	NA	NA	NA	NA	NA	NA	NA	NA	NA	NA	NA	NA	NA	NA	1	1	1	PracBlockProc	PracBlockList	NA	2	{LEFTARROW}	-100	NA	717	congruent	NA	NA	NA	0	17	139788	733	1	{LEFTARROW}	-999999	0	141021	0	{LEFTARROW}	588	141609	NA	1	1	2	NA	NA	PracTrialProc	PracTrialList	NA	NA	NA	NA	NA	NA	NA	NA	NA	NA	NA	NA	NA	NA	NA	NA	NA	NA	left	NA	lllll.bmp	354	NA	NA	NA	NA	NA	NA	NA	NA	NA	NA	NA	NA	NA	NA	NA	NA	NA	NA	NA	NA	NA
Arrow Flanker 2014	12049	1	"<?xml version=""1.0""?>\n<Clock xmlns:dt=""urn:schemas-microsoft-com:datatypes""><Description dt:dt=""string"">E-Prime Primary Realtime Clock</Description><StartTime><Timestamp dt:dt=""int"">0</Timestamp><DateUtc dt:dt=""string"">2015-03-03T15:10:36Z</DateUtc></StartTime><FrequencyChanges><FrequencyChange><Frequency dt:dt=""r8"">2825654</Frequency><Timestamp dt:dt=""r8"">2064957387</Timestamp><Current dt:dt=""r8"">0</Current><DateUtc dt:dt=""string"">2015-03-03T15:10:36Z</DateUtc></FrequencyChange></FrequencyChanges></Clock>\n"	Arrow Flanker 2014-12049-1	60.018	1.0.0.91	1	2065501684	Professional	2.0.10.353	2.0.10.353	03-03-2015	3/3/2015 3:10:36 PM	10:10:36	2.0.10.248	2	NA	NA	NA	NA	NA	NA	NA	NA	NA	NA	NA	NA	NA	NA	NA	NA	NA	NA	NA	NA	NA	NA	NA	NA	1	1	1	PracBlockProc	PracBlockList	NA	3	{RIGHTARROW}	-100	NA	574	incongruent	NA	NA	NA	0	16	143137	583	1	{RIGHTARROW}	-999999	0	144220	0	{RIGHTARROW}	557	144777	NA	5	1	3	NA	NA	PracTrialProc	PracTrialList	NA	NA	NA	NA	NA	NA	NA	NA	NA	NA	NA	NA	NA	NA	NA	NA	NA	NA	right	NA	llrll.bmp	354	NA	NA	NA	NA	NA	NA	NA	NA	NA	NA	NA	NA	NA	NA	NA	NA	NA	NA	NA	NA	NA
Arrow Flanker 2014	12049	1	"<?xml version=""1.0""?>\n<Clock xmlns:dt=""urn:schemas-microsoft-com:datatypes""><Description dt:dt=""string"">E-Prime Primary Realtime Clock</Description><StartTime><Timestamp dt:dt=""int"">0</Timestamp><DateUtc dt:dt=""string"">2015-03-03T15:10:36Z</DateUtc></StartTime><FrequencyChanges><FrequencyChange><Frequency dt:dt=""r8"">2825654</Frequency><Timestamp dt:dt=""r8"">2064957387</Timestamp><Current dt:dt=""r8"">0</Current><DateUtc dt:dt=""string"">2015-03-03T15:10:36Z</DateUtc></FrequencyChange></FrequencyChanges></Clock>\n"	Arrow Flanker 2014-12049-1	60.018	1.0.0.91	1	2065501684	Professional	2.0.10.353	2.0.10.353	03-03-2015	3/3/2015 3:10:36 PM	10:10:36	2.0.10.248	2	NA	NA	NA	NA	NA	NA	NA	NA	NA	NA	NA	NA	NA	NA	NA	NA	NA	NA	NA	NA	NA	NA	NA	NA	1	1	1	PracBlockProc	PracBlockList	NA	4	{LEFTARROW}	-100	NA	1320	neutral	NA	NA	NA	0	16	146319	1333	1	{LEFTARROW}	-999999	0	148152	0	{LEFTARROW}	513	148665	NA	3	1	4	NA	NA	PracTrialProc	PracTrialList	NA	NA	NA	NA	NA	NA	NA	NA	NA	NA	NA	NA	NA	NA	NA	NA	NA	NA	left	NA	ooloo.bmp	354	NA	NA	NA	NA	NA	NA	NA	NA	NA	NA	NA	NA	NA	NA	NA	NA	NA	NA	NA	NA	NA
Arrow Flanker 2014	12049	1	"<?xml version=""1.0""?>\n<Clock xmlns:dt=""urn:schemas-microsoft-com:datatypes""><Description dt:dt=""string"">E-Prime Primary Realtime Clock</Description><StartTime><Timestamp dt:dt=""int"">0</Timestamp><DateUtc dt:dt=""string"">2015-03-03T15:10:36Z</DateUtc></StartTime><FrequencyChanges><FrequencyChange><Frequency dt:dt=""r8"">2825654</Frequency><Timestamp dt:dt=""r8"">2064957387</Timestamp><Current dt:dt=""r8"">0</Current><DateUtc dt:dt=""string"">2015-03-03T15:10:36Z</DateUtc></FrequencyChange></FrequencyChanges></Clock>\n"	Arrow Flanker 2014-12049-1	60.018	1.0.0.91	1	2065501684	Professional	2.0.10.353	2.0.10.353	03-03-2015	3/3/2015 3:10:36 PM	10:10:36	2.0.10.248	2	NA	NA	NA	NA	NA	NA	NA	NA	NA	NA	NA	NA	NA	NA	NA	NA	NA	NA	NA	NA	NA	NA	NA	NA	1	1	1	PracBlockProc	PracBlockList	NA	5	{LEFTARROW}	-100	NA	884	incongruent	NA	NA	NA	0	16	150201	900	1	{LEFTARROW}	-999999	0	151601	0	{LEFTARROW}	568	152169	NA	2	1	5	NA	NA	PracTrialProc	PracTrialList	NA	NA	NA	NA	NA	NA	NA	NA	NA	NA	NA	NA	NA	NA	NA	NA	NA	NA	left	NA	rrlrr.bmp	354	NA	NA	NA	NA	NA	NA	NA	NA	NA	NA	NA	NA	NA	NA	NA	NA	NA	NA	NA	NA	NA
Arrow Flanker 2014	12049	1	"<?xml version=""1.0""?>\n<Clock xmlns:dt=""urn:schemas-microsoft-com:datatypes""><Description dt:dt=""string"">E-Prime Primary Realtime Clock</Description><StartTime><Timestamp dt:dt=""int"">0</Timestamp><DateUtc dt:dt=""string"">2015-03-03T15:10:36Z</DateUtc></StartTime><FrequencyChanges><FrequencyChange><Frequency dt:dt=""r8"">2825654</Frequency><Timestamp dt:dt=""r8"">2064957387</Timestamp><Current dt:dt=""r8"">0</Current><DateUtc dt:dt=""string"">2015-03-03T15:10:36Z</DateUtc></FrequencyChange></FrequencyChanges></Clock>\n"	Arrow Flanker 2014-12049-1	60.018	1.0.0.91	1	2065501684	Professional	2.0.10.353	2.0.10.353	03-03-2015	3/3/2015 3:10:36 PM	10:10:36	2.0.10.248	2	NA	NA	NA	NA	NA	NA	NA	NA	NA	NA	NA	NA	NA	NA	NA	NA	NA	NA	NA	NA	NA	NA	NA	NA	1	1	1	PracBlockProc	PracBlockList	NA	6	{RIGHTARROW}	-100	NA	707	neutral	NA	NA	NA	0	16	153700	717	1	{RIGHTARROW}	-999999	0	154917	0	{RIGHTARROW}	388	155305	NA	6	1	6	NA	NA	PracTrialProc	PracTrialList	NA	NA	NA	NA	NA	NA	NA	NA	NA	NA	NA	NA	NA	NA	NA	NA	NA	NA	right	NA	ooroo.bmp	354	NA	NA	NA	NA	NA	NA	NA	NA	NA	NA	NA	NA	NA	NA	NA	NA	NA	NA	NA	NA	NA
Arrow Flanker 2014	12049	1	"<?xml version=""1.0""?>\n<Clock xmlns:dt=""urn:schemas-microsoft-com:datatypes""><Description dt:dt=""string"">E-Prime Primary Realtime Clock</Description><StartTime><Timestamp dt:dt=""int"">0</Timestamp><DateUtc dt:dt=""string"">2015-03-03T15:10:36Z</DateUtc></StartTime><FrequencyChanges><FrequencyChange><Frequency dt:dt=""r8"">2825654</Frequency><Timestamp dt:dt=""r8"">2064957387</Timestamp><Current dt:dt=""r8"">0</Current><DateUtc dt:dt=""string"">2015-03-03T15:10:36Z</DateUtc></FrequencyChange></FrequencyChanges></Clock>\n"	Arrow Flanker 2014-12049-1	60.018	1.0.0.91	1	2065501684	Professional	2.0.10.353	2.0.10.353	03-03-2015	3/3/2015 3:10:36 PM	10:10:36	2.0.10.248	3	1	1	1	NA	NA	NA	NA	NA	NA	NA	NA	NA	NA	NA	NA	NA	NA	NA	NA	NA	NA	NA	NA	NA	NA	NA	NA	BlockProc	BlockList	NA	1	{RIGHTARROW}	NA	-100	841	incongruent	NA	NA	NA	NA	NA	NA	NA	NA	NA	NA	NA	NA	NA	NA	NA	NA	NA	NA	NA	NA	NA	NA	TrialProc	TrialList	0	10	186641	16	0	16	184974	450	1	{RIGHTARROW}	-999999	0	185924	0	{RIGHTARROW}	707	186631	NA	NA	right	llrll.bmp	354	0	NA	0	0	0	0	NA	0	0	0	NA	0	0	0	0	NA	0	0	4	1	1
Arrow Flanker 2014	12049	1	"<?xml version=""1.0""?>\n<Clock xmlns:dt=""urn:schemas-microsoft-com:datatypes""><Description dt:dt=""string"">E-Prime Primary Realtime Clock</Description><StartTime><Timestamp dt:dt=""int"">0</Timestamp><DateUtc dt:dt=""string"">2015-03-03T15:10:36Z</DateUtc></StartTime><FrequencyChanges><FrequencyChange><Frequency dt:dt=""r8"">2825654</Frequency><Timestamp dt:dt=""r8"">2064957387</Timestamp><Current dt:dt=""r8"">0</Current><DateUtc dt:dt=""string"">2015-03-03T15:10:36Z</DateUtc></FrequencyChange></FrequencyChanges></Clock>\n"	Arrow Flanker 2014-12049-1	60.018	1.0.0.91	1	2065501684	Professional	2.0.10.353	2.0.10.353	03-03-2015	3/3/2015 3:10:36 PM	10:10:36	2.0.10.248	3	1	1	1	NA	NA	NA	NA	NA	NA	NA	NA	NA	NA	NA	NA	NA	NA	NA	NA	NA	NA	NA	NA	NA	NA	NA	NA	BlockProc	BlockList	NA	2	{LEFTARROW}	NA	-100	1514	congruent	NA	NA	NA	NA	NA	NA	NA	NA	NA	NA	NA	NA	NA	NA	NA	NA	NA	NA	NA	NA	NA	NA	TrialProc	TrialList	0	9	189040	17	0	17	187174	933	1	{LEFTARROW}	-999999	0	188607	0	{LEFTARROW}	424	189031	NA	NA	left	lllll.bmp	354	0	NA	0	0	0	0	NA	0	0	0	NA	0	0	0	0	NA	0	0	1	1	2
Arrow Flanker 2014	12049	1	"<?xml version=""1.0""?>\n<Clock xmlns:dt=""urn:schemas-microsoft-com:datatypes""><Description dt:dt=""string"">E-Prime Primary Realtime Clock</Description><StartTime><Timestamp dt:dt=""int"">0</Timestamp><DateUtc dt:dt=""string"">2015-03-03T15:10:36Z</DateUtc></StartTime><FrequencyChanges><FrequencyChange><Frequency dt:dt=""r8"">2825654</Frequency><Timestamp dt:dt=""r8"">2064957387</Timestamp><Current dt:dt=""r8"">0</Current><DateUtc dt:dt=""string"">2015-03-03T15:10:36Z</DateUtc></FrequencyChange></FrequencyChanges></Clock>\n"	Arrow Flanker 2014-12049-1	60.018	1.0.0.91	1	2065501684	Professional	2.0.10.353	2.0.10.353	03-03-2015	3/3/2015 3:10:36 PM	10:10:36	2.0.10.248	3	1	1	1	NA	NA	NA	NA	NA	NA	NA	NA	NA	NA	NA	NA	NA	NA	NA	NA	NA	NA	NA	NA	NA	NA	NA	NA	BlockProc	BlockList	NA	3	{RIGHTARROW}	NA	-100	2587	neutral	NA	NA	NA	NA	NA	NA	NA	NA	NA	NA	NA	NA	NA	NA	NA	NA	NA	NA	NA	NA	NA	NA	TrialProc	TrialList	0	15	192006	16	0	16	189573	1550	1	{RIGHTARROW}	-999999	0	191622	0	{RIGHTARROW}	369	191991	NA	NA	right	ooroo.bmp	354	0	NA	0	0	0	0	NA	0	0	0	NA	0	0	0	0	NA	0	0	6	1	3
Arrow Flanker 2014	12049	1	"<?xml version=""1.0""?>\n<Clock xmlns:dt=""urn:schemas-microsoft-com:datatypes""><Description dt:dt=""string"">E-Prime Primary Realtime Clock</Description><StartTime><Timestamp dt:dt=""int"">0</Timestamp><DateUtc dt:dt=""string"">2015-03-03T15:10:36Z</DateUtc></StartTime><FrequencyChanges><FrequencyChange><Frequency dt:dt=""r8"">2825654</Frequency><Timestamp dt:dt=""r8"">2064957387</Timestamp><Current dt:dt=""r8"">0</Current><DateUtc dt:dt=""string"">2015-03-03T15:10:36Z</DateUtc></FrequencyChange></FrequencyChanges></Clock>\n"	Arrow Flanker 2014-12049-1	60.018	1.0.0.91	1	2065501684	Professional	2.0.10.353	2.0.10.353	03-03-2015	3/3/2015 3:10:36 PM	10:10:36	2.0.10.248	3	1	1	1	NA	NA	NA	NA	NA	NA	NA	NA	NA	NA	NA	NA	NA	NA	NA	NA	NA	NA	NA	NA	NA	NA	NA	NA	BlockProc	BlockList	NA	4	{RIGHTARROW}	NA	-100	1690	neutral	NA	NA	NA	NA	NA	NA	NA	NA	NA	NA	NA	NA	NA	NA	NA	NA	NA	NA	NA	NA	NA	NA	TrialProc	TrialList	0	20	194938	17	0	17	192539	1483	1	{RIGHTARROW}	-999999	-1	194521	0	{RIGHTARROW}	397	194918	NA	NA	right	ooroo.bmp	354	0	NA	0	0	0	0	NA	0	0	0	NA	0	0	0	0	NA	0	0	6	1	4
Arrow Flanker 2014	12049	1	"<?xml version=""1.0""?>\n<Clock xmlns:dt=""urn:schemas-microsoft-com:datatypes""><Description dt:dt=""string"">E-Prime Primary Realtime Clock</Description><StartTime><Timestamp dt:dt=""int"">0</Timestamp><DateUtc dt:dt=""string"">2015-03-03T15:10:36Z</DateUtc></StartTime><FrequencyChanges><FrequencyChange><Frequency dt:dt=""r8"">2825654</Frequency><Timestamp dt:dt=""r8"">2064957387</Timestamp><Current dt:dt=""r8"">0</Current><DateUtc dt:dt=""string"">2015-03-03T15:10:36Z</DateUtc></FrequencyChange></FrequencyChanges></Clock>\n"	Arrow Flanker 2014-12049-1	60.018	1.0.0.91	1	2065501684	Professional	2.0.10.353	2.0.10.353	03-03-2015	3/3/2015 3:10:36 PM	10:10:36	2.0.10.248	3	1	1	1	NA	NA	NA	NA	NA	NA	NA	NA	NA	NA	NA	NA	NA	NA	NA	NA	NA	NA	NA	NA	NA	NA	NA	NA	BlockProc	BlockList	NA	5	{RIGHTARROW}	NA	-100	1820	congruent	NA	NA	NA	NA	NA	NA	NA	NA	NA	NA	NA	NA	NA	NA	NA	NA	NA	NA	NA	NA	NA	NA	TrialProc	TrialList	0	16	197254	17	0	16	195471	800	1	{RIGHTARROW}	-999999	0	196771	0	{RIGHTARROW}	467	197238	NA	NA	right	rrrrr.bmp	354	0	NA	0	0	0	0	NA	0	0	0	NA	0	0	0	0	NA	0	0	2	1	5
Arrow Flanker 2014	12049	1	"<?xml version=""1.0""?>\n<Clock xmlns:dt=""urn:schemas-microsoft-com:datatypes""><Description dt:dt=""string"">E-Prime Primary Realtime Clock</Description><StartTime><Timestamp dt:dt=""int"">0</Timestamp><DateUtc dt:dt=""string"">2015-03-03T15:10:36Z</DateUtc></StartTime><FrequencyChanges><FrequencyChange><Frequency dt:dt=""r8"">2825654</Frequency><Timestamp dt:dt=""r8"">2064957387</Timestamp><Current dt:dt=""r8"">0</Current><DateUtc dt:dt=""string"">2015-03-03T15:10:36Z</DateUtc></FrequencyChange></FrequencyChanges></Clock>\n"	Arrow Flanker 2014-12049-1	60.018	1.0.0.91	1	2065501684	Professional	2.0.10.353	2.0.10.353	03-03-2015	3/3/2015 3:10:36 PM	10:10:36	2.0.10.248	3	1	1	1	NA	NA	NA	NA	NA	NA	NA	NA	NA	NA	NA	NA	NA	NA	NA	NA	NA	NA	NA	NA	NA	NA	NA	NA	BlockProc	BlockList	NA	6	{LEFTARROW}	NA	-100	1896	congruent	NA	NA	NA	NA	NA	NA	NA	NA	NA	NA	NA	NA	NA	NA	NA	NA	NA	NA	NA	NA	NA	NA	TrialProc	TrialList	0	19	199737	16	0	16	197787	1033	1	{LEFTARROW}	-999999	0	199320	0	{LEFTARROW}	398	199718	NA	NA	left	lllll.bmp	354	0	NA	0	0	0	0	NA	0	0	0	NA	0	0	0	0	NA	0	0	1	1	6
Arrow Flanker 2014	12049	1	"<?xml version=""1.0""?>\n<Clock xmlns:dt=""urn:schemas-microsoft-com:datatypes""><Description dt:dt=""string"">E-Prime Primary Realtime Clock</Description><StartTime><Timestamp dt:dt=""int"">0</Timestamp><DateUtc dt:dt=""string"">2015-03-03T15:10:36Z</DateUtc></StartTime><FrequencyChanges><FrequencyChange><Frequency dt:dt=""r8"">2825654</Frequency><Timestamp dt:dt=""r8"">2064957387</Timestamp><Current dt:dt=""r8"">0</Current><DateUtc dt:dt=""string"">2015-03-03T15:10:36Z</DateUtc></FrequencyChange></FrequencyChanges></Clock>\n"	Arrow Flanker 2014-12049-1	60.018	1.0.0.91	1	2065501684	Professional	2.0.10.353	2.0.10.353	03-03-2015	3/3/2015 3:10:36 PM	10:10:36	2.0.10.248	3	1	1	1	NA	NA	NA	NA	NA	NA	NA	NA	NA	NA	NA	NA	NA	NA	NA	NA	NA	NA	NA	NA	NA	NA	NA	NA	BlockProc	BlockList	NA	7	{RIGHTARROW}	NA	-100	2273	neutral	NA	NA	NA	NA	NA	NA	NA	NA	NA	NA	NA	NA	NA	NA	NA	NA	NA	NA	NA	NA	NA	NA	TrialProc	TrialList	1	15	202469	17	0	17	200270	1249	1	{RIGHTARROW}	-999999	0	202019	0	{RIGHTARROW}	435	202454	NA	NA	right	ooroo.bmp	354	0	NA	0	0	0	0	NA	0	0	0	NA	0	0	0	0	NA	0	0	6	1	7
Arrow Flanker 2014	12049	1	"<?xml version=""1.0""?>\n<Clock xmlns:dt=""urn:schemas-microsoft-com:datatypes""><Description dt:dt=""string"">E-Prime Primary Realtime Clock</Description><StartTime><Timestamp dt:dt=""int"">0</Timestamp><DateUtc dt:dt=""string"">2015-03-03T15:10:36Z</DateUtc></StartTime><FrequencyChanges><FrequencyChange><Frequency dt:dt=""r8"">2825654</Frequency><Timestamp dt:dt=""r8"">2064957387</Timestamp><Current dt:dt=""r8"">0</Current><DateUtc dt:dt=""string"">2015-03-03T15:10:36Z</DateUtc></FrequencyChange></FrequencyChanges></Clock>\n"	Arrow Flanker 2014-12049-1	60.018	1.0.0.91	1	2065501684	Professional	2.0.10.353	2.0.10.353	03-03-2015	3/3/2015 3:10:36 PM	10:10:36	2.0.10.248	3	1	1	1	NA	NA	NA	NA	NA	NA	NA	NA	NA	NA	NA	NA	NA	NA	NA	NA	NA	NA	NA	NA	NA	NA	NA	NA	BlockProc	BlockList	NA	8	{LEFTARROW}	NA	-100	2280	incongruent	NA	NA	NA	NA	NA	NA	NA	NA	NA	NA	NA	NA	NA	NA	NA	NA	NA	NA	NA	NA	NA	NA	TrialProc	TrialList	0	19	205385	17	0	16	203002	1417	1	{LEFTARROW}	-999999	-1	204918	0	{LEFTARROW}	448	205366	NA	NA	left	rrlrr.bmp	354	0	NA	0	0	0	0	NA	0	0	0	NA	0	0	0	0	NA	0	0	3	1	8
Arrow Flanker 2014	12049	1	"<?xml version=""1.0""?>\n<Clock xmlns:dt=""urn:schemas-microsoft-com:datatypes""><Description dt:dt=""string"">E-Prime Primary Realtime Clock</Description><StartTime><Timestamp dt:dt=""int"">0</Timestamp><DateUtc dt:dt=""string"">2015-03-03T15:10:36Z</DateUtc></StartTime><FrequencyChanges><FrequencyChange><Frequency dt:dt=""r8"">2825654</Frequency><Timestamp dt:dt=""r8"">2064957387</Timestamp><Current dt:dt=""r8"">0</Current><DateUtc dt:dt=""string"">2015-03-03T15:10:36Z</DateUtc></FrequencyChange></FrequencyChanges></Clock>\n"	Arrow Flanker 2014-12049-1	60.018	1.0.0.91	1	2065501684	Professional	2.0.10.353	2.0.10.353	03-03-2015	3/3/2015 3:10:36 PM	10:10:36	2.0.10.248	3	1	1	1	NA	NA	NA	NA	NA	NA	NA	NA	NA	NA	NA	NA	NA	NA	NA	NA	NA	NA	NA	NA	NA	NA	NA	NA	BlockProc	BlockList	NA	9	{LEFTARROW}	NA	-100	2400	incongruent	NA	NA	NA	NA	NA	NA	NA	NA	NA	NA	NA	NA	NA	NA	NA	NA	NA	NA	NA	NA	NA	NA	TrialProc	TrialList	0	5	208235	16	0	16	205918	1300	1	{LEFTARROW}	-999999	0	207718	0	{LEFTARROW}	512	208230	NA	NA	left	rrlrr.bmp	354	0	NA	0	0	0	0	NA	0	0	0	NA	0	0	0	0	NA	0	0	3	1	9
Arrow Flanker 2014	12049	1	"<?xml version=""1.0""?>\n<Clock xmlns:dt=""urn:schemas-microsoft-com:datatypes""><Description dt:dt=""string"">E-Prime Primary Realtime Clock</Description><StartTime><Timestamp dt:dt=""int"">0</Timestamp><DateUtc dt:dt=""string"">2015-03-03T15:10:36Z</DateUtc></StartTime><FrequencyChanges><FrequencyChange><Frequency dt:dt=""r8"">2825654</Frequency><Timestamp dt:dt=""r8"">2064957387</Timestamp><Current dt:dt=""r8"">0</Current><DateUtc dt:dt=""string"">2015-03-03T15:10:36Z</DateUtc></FrequencyChange></FrequencyChanges></Clock>\n"	Arrow Flanker 2014-12049-1	60.018	1.0.0.91	1	2065501684	Professional	2.0.10.353	2.0.10.353	03-03-2015	3/3/2015 3:10:36 PM	10:10:36	2.0.10.248	3	1	1	1	NA	NA	NA	NA	NA	NA	NA	NA	NA	NA	NA	NA	NA	NA	NA	NA	NA	NA	NA	NA	NA	NA	NA	NA	BlockProc	BlockList	NA	10	{RIGHTARROW}	NA	-100	1504	incongruent	NA	NA	NA	NA	NA	NA	NA	NA	NA	NA	NA	NA	NA	NA	NA	NA	NA	NA	NA	NA	NA	NA	TrialProc	TrialList	0	8	211150	17	0	16	208767	1350	1	{RIGHTARROW}	-999999	0	210617	0	{RIGHTARROW}	524	211141	NA	NA	right	llrll.bmp	354	0	NA	0	0	0	0	NA	0	0	0	NA	0	0	0	0	NA	0	0	4	1	10
Arrow Flanker 2014	12049	1	"<?xml version=""1.0""?>\n<Clock xmlns:dt=""urn:schemas-microsoft-com:datatypes""><Description dt:dt=""string"">E-Prime Primary Realtime Clock</Description><StartTime><Timestamp dt:dt=""int"">0</Timestamp><DateUtc dt:dt=""string"">2015-03-03T15:10:36Z</DateUtc></StartTime><FrequencyChanges><FrequencyChange><Frequency dt:dt=""r8"">2825654</Frequency><Timestamp dt:dt=""r8"">2064957387</Timestamp><Current dt:dt=""r8"">0</Current><DateUtc dt:dt=""string"">2015-03-03T15:10:36Z</DateUtc></FrequencyChange></FrequencyChanges></Clock>\n"	Arrow Flanker 2014-12049-1	60.018	1.0.0.91	1	2065501684	Professional	2.0.10.353	2.0.10.353	03-03-2015	3/3/2015 3:10:36 PM	10:10:36	2.0.10.248	3	1	1	1	NA	NA	NA	NA	NA	NA	NA	NA	NA	NA	NA	NA	NA	NA	NA	NA	NA	NA	NA	NA	NA	NA	NA	NA	BlockProc	BlockList	NA	11	{RIGHTARROW}	NA	-100	2499	congruent	NA	NA	NA	NA	NA	NA	NA	NA	NA	NA	NA	NA	NA	NA	NA	NA	NA	NA	NA	NA	NA	NA	TrialProc	TrialList	1	19	214232	17	0	16	211683	1583	1	{RIGHTARROW}	-999999	0	213766	0	{RIGHTARROW}	447	214213	NA	NA	right	rrrrr.bmp	354	0	NA	0	0	0	0	NA	0	0	0	NA	0	0	0	0	NA	0	0	2	1	11
Arrow Flanker 2014	12049	1	"<?xml version=""1.0""?>\n<Clock xmlns:dt=""urn:schemas-microsoft-com:datatypes""><Description dt:dt=""string"">E-Prime Primary Realtime Clock</Description><StartTime><Timestamp dt:dt=""int"">0</Timestamp><DateUtc dt:dt=""string"">2015-03-03T15:10:36Z</DateUtc></StartTime><FrequencyChanges><FrequencyChange><Frequency dt:dt=""r8"">2825654</Frequency><Timestamp dt:dt=""r8"">2064957387</Timestamp><Current dt:dt=""r8"">0</Current><DateUtc dt:dt=""string"">2015-03-03T15:10:36Z</DateUtc></FrequencyChange></FrequencyChanges></Clock>\n"	Arrow Flanker 2014-12049-1	60.018	1.0.0.91	1	2065501684	Professional	2.0.10.353	2.0.10.353	03-03-2015	3/3/2015 3:10:36 PM	10:10:36	2.0.10.248	3	1	1	1	NA	NA	NA	NA	NA	NA	NA	NA	NA	NA	NA	NA	NA	NA	NA	NA	NA	NA	NA	NA	NA	NA	NA	NA	BlockProc	BlockList	NA	12	{LEFTARROW}	NA	-100	1628	incongruent	NA	NA	NA	NA	NA	NA	NA	NA	NA	NA	NA	NA	NA	NA	NA	NA	NA	NA	NA	NA	NA	NA	TrialProc	TrialList	1	9	216798	17	0	17	214766	1033	1	{LEFTARROW}	-999999	-1	216298	0	{LEFTARROW}	491	216789	NA	NA	left	rrlrr.bmp	354	0	NA	0	0	0	0	NA	0	0	0	NA	0	0	0	0	NA	0	0	3	1	12
Arrow Flanker 2014	12049	1	"<?xml version=""1.0""?>\n<Clock xmlns:dt=""urn:schemas-microsoft-com:datatypes""><Description dt:dt=""string"">E-Prime Primary Realtime Clock</Description><StartTime><Timestamp dt:dt=""int"">0</Timestamp><DateUtc dt:dt=""string"">2015-03-03T15:10:36Z</DateUtc></StartTime><FrequencyChanges><FrequencyChange><Frequency dt:dt=""r8"">2825654</Frequency><Timestamp dt:dt=""r8"">2064957387</Timestamp><Current dt:dt=""r8"">0</Current><DateUtc dt:dt=""string"">2015-03-03T15:10:36Z</DateUtc></FrequencyChange></FrequencyChanges></Clock>\n"	Arrow Flanker 2014-12049-1	60.018	1.0.0.91	1	2065501684	Professional	2.0.10.353	2.0.10.353	03-03-2015	3/3/2015 3:10:36 PM	10:10:36	2.0.10.248	3	1	1	1	NA	NA	NA	NA	NA	NA	NA	NA	NA	NA	NA	NA	NA	NA	NA	NA	NA	NA	NA	NA	NA	NA	NA	NA	BlockProc	BlockList	NA	13	{LEFTARROW}	NA	-100	1620	incongruent	NA	NA	NA	NA	NA	NA	NA	NA	NA	NA	NA	NA	NA	NA	NA	NA	NA	NA	NA	NA	NA	NA	TrialProc	TrialList	1	17	219414	17	0	17	217332	1116	1	{LEFTARROW}	-999999	0	218948	0	{LEFTARROW}	449	219397	NA	NA	left	rrlrr.bmp	354	0	NA	0	0	0	0	NA	0	0	0	NA	0	0	0	0	NA	0	0	3	1	13
Arrow Flanker 2014	12049	1	"<?xml version=""1.0""?>\n<Clock xmlns:dt=""urn:schemas-microsoft-com:datatypes""><Description dt:dt=""string"">E-Prime Primary Realtime Clock</Description><StartTime><Timestamp dt:dt=""int"">0</Timestamp><DateUtc dt:dt=""string"">2015-03-03T15:10:36Z</DateUtc></StartTime><FrequencyChanges><FrequencyChange><Frequency dt:dt=""r8"">2825654</Frequency><Timestamp dt:dt=""r8"">2064957387</Timestamp><Current dt:dt=""r8"">0</Current><DateUtc dt:dt=""string"">2015-03-03T15:10:36Z</DateUtc></FrequencyChange></FrequencyChanges></Clock>\n"	Arrow Flanker 2014-12049-1	60.018	1.0.0.91	1	2065501684	Professional	2.0.10.353	2.0.10.353	03-03-2015	3/3/2015 3:10:36 PM	10:10:36	2.0.10.248	3	1	1	1	NA	NA	NA	NA	NA	NA	NA	NA	NA	NA	NA	NA	NA	NA	NA	NA	NA	NA	NA	NA	NA	NA	NA	NA	BlockProc	BlockList	NA	14	{LEFTARROW}	NA	-100	710	congruent	NA	NA	NA	NA	NA	NA	NA	NA	NA	NA	NA	NA	NA	NA	NA	NA	NA	NA	NA	NA	NA	NA	TrialProc	TrialList	1	13	221330	17	0	16	219947	434	1	{LEFTARROW}	-999999	16	220897	0	{LEFTARROW}	420	221317	NA	NA	left	lllll.bmp	354	0	NA	0	0	0	0	NA	0	0	0	NA	0	0	0	0	NA	0	0	1	1	14
Arrow Flanker 2014	12049	1	"<?xml version=""1.0""?>\n<Clock xmlns:dt=""urn:schemas-microsoft-com:datatypes""><Description dt:dt=""string"">E-Prime Primary Realtime Clock</Description><StartTime><Timestamp dt:dt=""int"">0</Timestamp><DateUtc dt:dt=""string"">2015-03-03T15:10:36Z</DateUtc></StartTime><FrequencyChanges><FrequencyChange><Frequency dt:dt=""r8"">2825654</Frequency><Timestamp dt:dt=""r8"">2064957387</Timestamp><Current dt:dt=""r8"">0</Current><DateUtc dt:dt=""string"">2015-03-03T15:10:36Z</DateUtc></FrequencyChange></FrequencyChanges></Clock>\n"	Arrow Flanker 2014-12049-1	60.018	1.0.0.91	1	2065501684	Professional	2.0.10.353	2.0.10.353	03-03-2015	3/3/2015 3:10:36 PM	10:10:36	2.0.10.248	3	1	1	1	NA	NA	NA	NA	NA	NA	NA	NA	NA	NA	NA	NA	NA	NA	NA	NA	NA	NA	NA	NA	NA	NA	NA	NA	BlockProc	BlockList	NA	15	{RIGHTARROW}	NA	-100	1499	congruent	NA	NA	NA	NA	NA	NA	NA	NA	NA	NA	NA	NA	NA	NA	NA	NA	NA	NA	NA	NA	NA	NA	TrialProc	TrialList	0	13	223730	16	0	17	221864	966	1	{RIGHTARROW}	-999999	0	223330	0	{RIGHTARROW}	387	223717	NA	NA	right	rrrrr.bmp	354	0	NA	0	0	0	0	NA	0	0	0	NA	0	0	0	0	NA	0	0	2	1	15
Arrow Flanker 2014	12049	1	"<?xml version=""1.0""?>\n<Clock xmlns:dt=""urn:schemas-microsoft-com:datatypes""><Description dt:dt=""string"">E-Prime Primary Realtime Clock</Description><StartTime><Timestamp dt:dt=""int"">0</Timestamp><DateUtc dt:dt=""string"">2015-03-03T15:10:36Z</DateUtc></StartTime><FrequencyChanges><FrequencyChange><Frequency dt:dt=""r8"">2825654</Frequency><Timestamp dt:dt=""r8"">2064957387</Timestamp><Current dt:dt=""r8"">0</Current><DateUtc dt:dt=""string"">2015-03-03T15:10:36Z</DateUtc></FrequencyChange></FrequencyChanges></Clock>\n"	Arrow Flanker 2014-12049-1	60.018	1.0.0.91	1	2065501684	Professional	2.0.10.353	2.0.10.353	03-03-2015	3/3/2015 3:10:36 PM	10:10:36	2.0.10.248	3	1	1	1	NA	NA	NA	NA	NA	NA	NA	NA	NA	NA	NA	NA	NA	NA	NA	NA	NA	NA	NA	NA	NA	NA	NA	NA	BlockProc	BlockList	NA	16	{RIGHTARROW}	NA	-100	1994	neutral	NA	NA	NA	NA	NA	NA	NA	NA	NA	NA	NA	NA	NA	NA	NA	NA	NA	NA	NA	NA	NA	NA	TrialProc	TrialList	1	17	226262	17	0	17	224263	1083	1	{RIGHTARROW}	-999999	0	225846	0	{RIGHTARROW}	398	226244	NA	NA	right	ooroo.bmp	354	0	NA	0	0	0	0	NA	0	0	0	NA	0	0	0	0	NA	0	0	6	1	16
Arrow Flanker 2014	12049	1	"<?xml version=""1.0""?>\n<Clock xmlns:dt=""urn:schemas-microsoft-com:datatypes""><Description dt:dt=""string"">E-Prime Primary Realtime Clock</Description><StartTime><Timestamp dt:dt=""int"">0</Timestamp><DateUtc dt:dt=""string"">2015-03-03T15:10:36Z</DateUtc></StartTime><FrequencyChanges><FrequencyChange><Frequency dt:dt=""r8"">2825654</Frequency><Timestamp dt:dt=""r8"">2064957387</Timestamp><Current dt:dt=""r8"">0</Current><DateUtc dt:dt=""string"">2015-03-03T15:10:36Z</DateUtc></FrequencyChange></FrequencyChanges></Clock>\n"	Arrow Flanker 2014-12049-1	60.018	1.0.0.91	1	2065501684	Professional	2.0.10.353	2.0.10.353	03-03-2015	3/3/2015 3:10:36 PM	10:10:36	2.0.10.248	3	1	1	1	NA	NA	NA	NA	NA	NA	NA	NA	NA	NA	NA	NA	NA	NA	NA	NA	NA	NA	NA	NA	NA	NA	NA	NA	BlockProc	BlockList	NA	17	{RIGHTARROW}	NA	-100	1700	neutral	NA	NA	NA	NA	NA	NA	NA	NA	NA	NA	NA	NA	NA	NA	NA	NA	NA	NA	NA	NA	NA	NA	TrialProc	TrialList	1	9	229261	17	0	16	226795	1583	1	{RIGHTARROW}	-999999	0	228878	0	{RIGHTARROW}	374	229252	NA	NA	right	ooroo.bmp	354	0	NA	0	0	0	0	NA	0	0	0	NA	0	0	0	0	NA	0	0	6	1	17
Arrow Flanker 2014	12049	1	"<?xml version=""1.0""?>\n<Clock xmlns:dt=""urn:schemas-microsoft-com:datatypes""><Description dt:dt=""string"">E-Prime Primary Realtime Clock</Description><StartTime><Timestamp dt:dt=""int"">0</Timestamp><DateUtc dt:dt=""string"">2015-03-03T15:10:36Z</DateUtc></StartTime><FrequencyChanges><FrequencyChange><Frequency dt:dt=""r8"">2825654</Frequency><Timestamp dt:dt=""r8"">2064957387</Timestamp><Current dt:dt=""r8"">0</Current><DateUtc dt:dt=""string"">2015-03-03T15:10:36Z</DateUtc></FrequencyChange></FrequencyChanges></Clock>\n"	Arrow Flanker 2014-12049-1	60.018	1.0.0.91	1	2065501684	Professional	2.0.10.353	2.0.10.353	03-03-2015	3/3/2015 3:10:36 PM	10:10:36	2.0.10.248	3	1	1	1	NA	NA	NA	NA	NA	NA	NA	NA	NA	NA	NA	NA	NA	NA	NA	NA	NA	NA	NA	NA	NA	NA	NA	NA	BlockProc	BlockList	NA	18	{LEFTARROW}	NA	-100	2694	congruent	NA	NA	NA	NA	NA	NA	NA	NA	NA	NA	NA	NA	NA	NA	NA	NA	NA	NA	NA	NA	NA	NA	TrialProc	TrialList	1	18	232310	17	0	16	229794	1550	1	{LEFTARROW}	-999999	0	231844	0	{LEFTARROW}	448	232292	NA	NA	left	lllll.bmp	354	0	NA	0	0	0	0	NA	0	0	0	NA	0	0	0	0	NA	0	0	1	1	18
Arrow Flanker 2014	12049	1	"<?xml version=""1.0""?>\n<Clock xmlns:dt=""urn:schemas-microsoft-com:datatypes""><Description dt:dt=""string"">E-Prime Primary Realtime Clock</Description><StartTime><Timestamp dt:dt=""int"">0</Timestamp><DateUtc dt:dt=""string"">2015-03-03T15:10:36Z</DateUtc></StartTime><FrequencyChanges><FrequencyChange><Frequency dt:dt=""r8"">2825654</Frequency><Timestamp dt:dt=""r8"">2064957387</Timestamp><Current dt:dt=""r8"">0</Current><DateUtc dt:dt=""string"">2015-03-03T15:10:36Z</DateUtc></FrequencyChange></FrequencyChanges></Clock>\n"	Arrow Flanker 2014-12049-1	60.018	1.0.0.91	1	2065501684	Professional	2.0.10.353	2.0.10.353	03-03-2015	3/3/2015 3:10:36 PM	10:10:36	2.0.10.248	3	1	1	1	NA	NA	NA	NA	NA	NA	NA	NA	NA	NA	NA	NA	NA	NA	NA	NA	NA	NA	NA	NA	NA	NA	NA	NA	BlockProc	BlockList	NA	19	{RIGHTARROW}	NA	-100	2215	neutral	NA	NA	NA	NA	NA	NA	NA	NA	NA	NA	NA	NA	NA	NA	NA	NA	NA	NA	NA	NA	NA	NA	TrialProc	TrialList	0	9	234893	17	0	17	232844	1049	1	{RIGHTARROW}	-999999	0	234393	0	{RIGHTARROW}	491	234884	NA	NA	right	ooroo.bmp	354	0	NA	0	0	0	0	NA	0	0	0	NA	0	0	0	0	NA	0	0	6	1	19
Arrow Flanker 2014	12049	1	"<?xml version=""1.0""?>\n<Clock xmlns:dt=""urn:schemas-microsoft-com:datatypes""><Description dt:dt=""string"">E-Prime Primary Realtime Clock</Description><StartTime><Timestamp dt:dt=""int"">0</Timestamp><DateUtc dt:dt=""string"">2015-03-03T15:10:36Z</DateUtc></StartTime><FrequencyChanges><FrequencyChange><Frequency dt:dt=""r8"">2825654</Frequency><Timestamp dt:dt=""r8"">2064957387</Timestamp><Current dt:dt=""r8"">0</Current><DateUtc dt:dt=""string"">2015-03-03T15:10:36Z</DateUtc></FrequencyChange></FrequencyChanges></Clock>\n"	Arrow Flanker 2014-12049-1	60.018	1.0.0.91	1	2065501684	Professional	2.0.10.353	2.0.10.353	03-03-2015	3/3/2015 3:10:36 PM	10:10:36	2.0.10.248	3	1	1	1	NA	NA	NA	NA	NA	NA	NA	NA	NA	NA	NA	NA	NA	NA	NA	NA	NA	NA	NA	NA	NA	NA	NA	NA	BlockProc	BlockList	NA	20	{RIGHTARROW}	NA	-100	758	congruent	NA	NA	NA	NA	NA	NA	NA	NA	NA	NA	NA	NA	NA	NA	NA	NA	NA	NA	NA	NA	NA	NA	TrialProc	TrialList	0	14	237026	16	0	16	235426	567	1	{RIGHTARROW}	-999999	16	236509	0	{RIGHTARROW}	503	237012	NA	NA	right	rrrrr.bmp	354	0	NA	0	0	0	0	NA	0	0	0	NA	0	0	0	0	NA	0	0	2	1	20
Arrow Flanker 2014	12049	1	"<?xml version=""1.0""?>\n<Clock xmlns:dt=""urn:schemas-microsoft-com:datatypes""><Description dt:dt=""string"">E-Prime Primary Realtime Clock</Description><StartTime><Timestamp dt:dt=""int"">0</Timestamp><DateUtc dt:dt=""string"">2015-03-03T15:10:36Z</DateUtc></StartTime><FrequencyChanges><FrequencyChange><Frequency dt:dt=""r8"">2825654</Frequency><Timestamp dt:dt=""r8"">2064957387</Timestamp><Current dt:dt=""r8"">0</Current><DateUtc dt:dt=""string"">2015-03-03T15:10:36Z</DateUtc></FrequencyChange></FrequencyChanges></Clock>\n"	Arrow Flanker 2014-12049-1	60.018	1.0.0.91	1	2065501684	Professional	2.0.10.353	2.0.10.353	03-03-2015	3/3/2015 3:10:36 PM	10:10:36	2.0.10.248	3	1	1	1	NA	NA	NA	NA	NA	NA	NA	NA	NA	NA	NA	NA	NA	NA	NA	NA	NA	NA	NA	NA	NA	NA	NA	NA	BlockProc	BlockList	NA	21	{LEFTARROW}	NA	-100	2294	incongruent	NA	NA	NA	NA	NA	NA	NA	NA	NA	NA	NA	NA	NA	NA	NA	NA	NA	NA	NA	NA	NA	NA	TrialProc	TrialList	0	20	240008	17	0	17	237559	1333	1	{LEFTARROW}	-999999	0	239392	0	{LEFTARROW}	596	239988	NA	NA	left	rrlrr.bmp	354	0	NA	0	0	0	0	NA	0	0	0	NA	0	0	0	0	NA	0	0	3	1	21
Arrow Flanker 2014	12049	1	"<?xml version=""1.0""?>\n<Clock xmlns:dt=""urn:schemas-microsoft-com:datatypes""><Description dt:dt=""string"">E-Prime Primary Realtime Clock</Description><StartTime><Timestamp dt:dt=""int"">0</Timestamp><DateUtc dt:dt=""string"">2015-03-03T15:10:36Z</DateUtc></StartTime><FrequencyChanges><FrequencyChange><Frequency dt:dt=""r8"">2825654</Frequency><Timestamp dt:dt=""r8"">2064957387</Timestamp><Current dt:dt=""r8"">0</Current><DateUtc dt:dt=""string"">2015-03-03T15:10:36Z</DateUtc></FrequencyChange></FrequencyChanges></Clock>\n"	Arrow Flanker 2014-12049-1	60.018	1.0.0.91	1	2065501684	Professional	2.0.10.353	2.0.10.353	03-03-2015	3/3/2015 3:10:36 PM	10:10:36	2.0.10.248	3	1	1	1	NA	NA	NA	NA	NA	NA	NA	NA	NA	NA	NA	NA	NA	NA	NA	NA	NA	NA	NA	NA	NA	NA	NA	NA	BlockProc	BlockList	NA	22	{RIGHTARROW}	NA	-100	1447	incongruent	NA	NA	NA	NA	NA	NA	NA	NA	NA	NA	NA	NA	NA	NA	NA	NA	NA	NA	NA	NA	3	1	TrialProc	TrialList	0	15	242691	16	0	16	240541	1117	1	{RIGHTARROW}	-999999	16	242174	0	{RIGHTARROW}	502	242676	NA	NA	right	llrll.bmp	354	0	NA	-999999	17	243224	0	1	6051	249275	0	NA	-999999	14	249289	0	1	7210	256499	4	1	22
Arrow Flanker 2014	12049	1	"<?xml version=""1.0""?>\n<Clock xmlns:dt=""urn:schemas-microsoft-com:datatypes""><Description dt:dt=""string"">E-Prime Primary Realtime Clock</Description><StartTime><Timestamp dt:dt=""int"">0</Timestamp><DateUtc dt:dt=""string"">2015-03-03T15:10:36Z</DateUtc></StartTime><FrequencyChanges><FrequencyChange><Frequency dt:dt=""r8"">2825654</Frequency><Timestamp dt:dt=""r8"">2064957387</Timestamp><Current dt:dt=""r8"">0</Current><DateUtc dt:dt=""string"">2015-03-03T15:10:36Z</DateUtc></FrequencyChange></FrequencyChanges></Clock>\n"	Arrow Flanker 2014-12049-1	60.018	1.0.0.91	1	2065501684	Professional	2.0.10.353	2.0.10.353	03-03-2015	3/3/2015 3:10:36 PM	10:10:36	2.0.10.248	3	1	1	1	NA	NA	NA	NA	NA	NA	NA	NA	NA	NA	NA	NA	NA	NA	NA	NA	NA	NA	NA	NA	NA	NA	NA	NA	BlockProc	BlockList	NA	23	{LEFTARROW}	NA	-100	1570	neutral	NA	NA	NA	NA	NA	NA	NA	NA	NA	NA	NA	NA	NA	NA	NA	NA	NA	NA	NA	NA	NA	NA	TrialProc	TrialList	1	6	260585	17	0	16	258003	1516	1	{LEFTARROW}	-999999	0	260019	0	{LEFTARROW}	559	260578	NA	NA	left	ooloo.bmp	354	0	NA	0	0	0	0	NA	0	0	0	NA	0	0	0	0	NA	0	0	5	1	23
Arrow Flanker 2014	12049	1	"<?xml version=""1.0""?>\n<Clock xmlns:dt=""urn:schemas-microsoft-com:datatypes""><Description dt:dt=""string"">E-Prime Primary Realtime Clock</Description><StartTime><Timestamp dt:dt=""int"">0</Timestamp><DateUtc dt:dt=""string"">2015-03-03T15:10:36Z</DateUtc></StartTime><FrequencyChanges><FrequencyChange><Frequency dt:dt=""r8"">2825654</Frequency><Timestamp dt:dt=""r8"">2064957387</Timestamp><Current dt:dt=""r8"">0</Current><DateUtc dt:dt=""string"">2015-03-03T15:10:36Z</DateUtc></FrequencyChange></FrequencyChanges></Clock>\n"	Arrow Flanker 2014-12049-1	60.018	1.0.0.91	1	2065501684	Professional	2.0.10.353	2.0.10.353	03-03-2015	3/3/2015 3:10:36 PM	10:10:36	2.0.10.248	3	1	1	1	NA	NA	NA	NA	NA	NA	NA	NA	NA	NA	NA	NA	NA	NA	NA	NA	NA	NA	NA	NA	NA	NA	NA	NA	BlockProc	BlockList	NA	24	{LEFTARROW}	NA	-100	1069	congruent	NA	NA	NA	NA	NA	NA	NA	NA	NA	NA	NA	NA	NA	NA	NA	NA	NA	NA	NA	NA	NA	NA	TrialProc	TrialList	1	7	263001	17	0	17	261119	916	1	{LEFTARROW}	-999999	0	262535	0	{LEFTARROW}	459	262994	NA	NA	left	lllll.bmp	354	0	NA	0	0	0	0	NA	0	0	0	NA	0	0	0	0	NA	0	0	1	1	24
Arrow Flanker 2014	12049	1	"<?xml version=""1.0""?>\n<Clock xmlns:dt=""urn:schemas-microsoft-com:datatypes""><Description dt:dt=""string"">E-Prime Primary Realtime Clock</Description><StartTime><Timestamp dt:dt=""int"">0</Timestamp><DateUtc dt:dt=""string"">2015-03-03T15:10:36Z</DateUtc></StartTime><FrequencyChanges><FrequencyChange><Frequency dt:dt=""r8"">2825654</Frequency><Timestamp dt:dt=""r8"">2064957387</Timestamp><Current dt:dt=""r8"">0</Current><DateUtc dt:dt=""string"">2015-03-03T15:10:36Z</DateUtc></FrequencyChange></FrequencyChanges></Clock>\n"	Arrow Flanker 2014-12049-1	60.018	1.0.0.91	1	2065501684	Professional	2.0.10.353	2.0.10.353	03-03-2015	3/3/2015 3:10:36 PM	10:10:36	2.0.10.248	3	1	1	1	NA	NA	NA	NA	NA	NA	NA	NA	NA	NA	NA	NA	NA	NA	NA	NA	NA	NA	NA	NA	NA	NA	NA	NA	BlockProc	BlockList	NA	25	{RIGHTARROW}	NA	-100	562	neutral	NA	NA	NA	NA	NA	NA	NA	NA	NA	NA	NA	NA	NA	NA	NA	NA	NA	NA	NA	NA	NA	NA	TrialProc	TrialList	0	12	265134	17	0	17	263535	549	1	{RIGHTARROW}	-999999	0	264584	0	{RIGHTARROW}	538	265122	NA	NA	right	ooroo.bmp	354	0	NA	0	0	0	0	NA	0	0	0	NA	0	0	0	0	NA	0	0	6	1	25
Arrow Flanker 2014	12049	1	"<?xml version=""1.0""?>\n<Clock xmlns:dt=""urn:schemas-microsoft-com:datatypes""><Description dt:dt=""string"">E-Prime Primary Realtime Clock</Description><StartTime><Timestamp dt:dt=""int"">0</Timestamp><DateUtc dt:dt=""string"">2015-03-03T15:10:36Z</DateUtc></StartTime><FrequencyChanges><FrequencyChange><Frequency dt:dt=""r8"">2825654</Frequency><Timestamp dt:dt=""r8"">2064957387</Timestamp><Current dt:dt=""r8"">0</Current><DateUtc dt:dt=""string"">2015-03-03T15:10:36Z</DateUtc></FrequencyChange></FrequencyChanges></Clock>\n"	Arrow Flanker 2014-12049-1	60.018	1.0.0.91	1	2065501684	Professional	2.0.10.353	2.0.10.353	03-03-2015	3/3/2015 3:10:36 PM	10:10:36	2.0.10.248	3	1	1	1	NA	NA	NA	NA	NA	NA	NA	NA	NA	NA	NA	NA	NA	NA	NA	NA	NA	NA	NA	NA	NA	NA	NA	NA	BlockProc	BlockList	NA	26	{LEFTARROW}	NA	-100	571	incongruent	NA	NA	NA	NA	NA	NA	NA	NA	NA	NA	NA	NA	NA	NA	NA	NA	NA	NA	NA	NA	NA	NA	TrialProc	TrialList	0	14	267200	17	0	16	265667	0	1	{LEFTARROW}	-999999	0	266734	0	{LEFTARROW}	452	267186	NA	NA	left	rrlrr.bmp	354	0	NA	0	0	0	0	NA	0	0	0	NA	0	0	0	0	NA	0	0	3	1	26
Arrow Flanker 2014	12049	1	"<?xml version=""1.0""?>\n<Clock xmlns:dt=""urn:schemas-microsoft-com:datatypes""><Description dt:dt=""string"">E-Prime Primary Realtime Clock</Description><StartTime><Timestamp dt:dt=""int"">0</Timestamp><DateUtc dt:dt=""string"">2015-03-03T15:10:36Z</DateUtc></StartTime><FrequencyChanges><FrequencyChange><Frequency dt:dt=""r8"">2825654</Frequency><Timestamp dt:dt=""r8"">2064957387</Timestamp><Current dt:dt=""r8"">0</Current><DateUtc dt:dt=""string"">2015-03-03T15:10:36Z</DateUtc></FrequencyChange></FrequencyChanges></Clock>\n"	Arrow Flanker 2014-12049-1	60.018	1.0.0.91	1	2065501684	Professional	2.0.10.353	2.0.10.353	03-03-2015	3/3/2015 3:10:36 PM	10:10:36	2.0.10.248	3	1	1	1	NA	NA	NA	NA	NA	NA	NA	NA	NA	NA	NA	NA	NA	NA	NA	NA	NA	NA	NA	NA	NA	NA	NA	NA	BlockProc	BlockList	NA	27	{LEFTARROW}	NA	-100	1310	congruent	NA	NA	NA	NA	NA	NA	NA	NA	NA	NA	NA	NA	NA	NA	NA	NA	NA	NA	NA	NA	NA	NA	TrialProc	TrialList	1	13	269199	17	0	16	267733	0	1	{LEFTARROW}	-999999	0	268683	0	{LEFTARROW}	503	269186	NA	NA	left	lllll.bmp	354	0	NA	0	0	0	0	NA	0	0	0	NA	0	0	0	0	NA	0	0	1	1	27
Arrow Flanker 2014	12049	1	"<?xml version=""1.0""?>\n<Clock xmlns:dt=""urn:schemas-microsoft-com:datatypes""><Description dt:dt=""string"">E-Prime Primary Realtime Clock</Description><StartTime><Timestamp dt:dt=""int"">0</Timestamp><DateUtc dt:dt=""string"">2015-03-03T15:10:36Z</DateUtc></StartTime><FrequencyChanges><FrequencyChange><Frequency dt:dt=""r8"">2825654</Frequency><Timestamp dt:dt=""r8"">2064957387</Timestamp><Current dt:dt=""r8"">0</Current><DateUtc dt:dt=""string"">2015-03-03T15:10:36Z</DateUtc></FrequencyChange></FrequencyChanges></Clock>\n"	Arrow Flanker 2014-12049-1	60.018	1.0.0.91	1	2065501684	Professional	2.0.10.353	2.0.10.353	03-03-2015	3/3/2015 3:10:36 PM	10:10:36	2.0.10.248	3	1	1	1	NA	NA	NA	NA	NA	NA	NA	NA	NA	NA	NA	NA	NA	NA	NA	NA	NA	NA	NA	NA	NA	NA	NA	NA	BlockProc	BlockList	NA	28	{RIGHTARROW}	NA	-100	1820	incongruent	NA	NA	NA	NA	NA	NA	NA	NA	NA	NA	NA	NA	NA	NA	NA	NA	NA	NA	NA	NA	NA	NA	TrialProc	TrialList	1	19	271365	17	0	17	269733	0	1	{RIGHTARROW}	-999999	0	270866	0	{RIGHTARROW}	480	271346	NA	NA	right	llrll.bmp	354	0	NA	0	0	0	0	NA	0	0	0	NA	0	0	0	0	NA	0	0	4	1	28
Arrow Flanker 2014	12049	1	"<?xml version=""1.0""?>\n<Clock xmlns:dt=""urn:schemas-microsoft-com:datatypes""><Description dt:dt=""string"">E-Prime Primary Realtime Clock</Description><StartTime><Timestamp dt:dt=""int"">0</Timestamp><DateUtc dt:dt=""string"">2015-03-03T15:10:36Z</DateUtc></StartTime><FrequencyChanges><FrequencyChange><Frequency dt:dt=""r8"">2825654</Frequency><Timestamp dt:dt=""r8"">2064957387</Timestamp><Current dt:dt=""r8"">0</Current><DateUtc dt:dt=""string"">2015-03-03T15:10:36Z</DateUtc></FrequencyChange></FrequencyChanges></Clock>\n"	Arrow Flanker 2014-12049-1	60.018	1.0.0.91	1	2065501684	Professional	2.0.10.353	2.0.10.353	03-03-2015	3/3/2015 3:10:36 PM	10:10:36	2.0.10.248	3	1	1	1	NA	NA	NA	NA	NA	NA	NA	NA	NA	NA	NA	NA	NA	NA	NA	NA	NA	NA	NA	NA	NA	NA	NA	NA	BlockProc	BlockList	NA	29	{LEFTARROW}	NA	-100	1382	neutral	NA	NA	NA	NA	NA	NA	NA	NA	NA	NA	NA	NA	NA	NA	NA	NA	NA	NA	NA	NA	NA	NA	TrialProc	TrialList	0	18	273748	17	0	17	271899	0	1	{LEFTARROW}	-999999	0	273265	0	{LEFTARROW}	465	273730	NA	NA	left	ooloo.bmp	354	0	NA	0	0	0	0	NA	0	0	0	NA	0	0	0	0	NA	0	0	5	1	29
Arrow Flanker 2014	12049	1	"<?xml version=""1.0""?>\n<Clock xmlns:dt=""urn:schemas-microsoft-com:datatypes""><Description dt:dt=""string"">E-Prime Primary Realtime Clock</Description><StartTime><Timestamp dt:dt=""int"">0</Timestamp><DateUtc dt:dt=""string"">2015-03-03T15:10:36Z</DateUtc></StartTime><FrequencyChanges><FrequencyChange><Frequency dt:dt=""r8"">2825654</Frequency><Timestamp dt:dt=""r8"">2064957387</Timestamp><Current dt:dt=""r8"">0</Current><DateUtc dt:dt=""string"">2015-03-03T15:10:36Z</DateUtc></FrequencyChange></FrequencyChanges></Clock>\n"	Arrow Flanker 2014-12049-1	60.018	1.0.0.91	1	2065501684	Professional	2.0.10.353	2.0.10.353	03-03-2015	3/3/2015 3:10:36 PM	10:10:36	2.0.10.248	3	1	1	1	NA	NA	NA	NA	NA	NA	NA	NA	NA	NA	NA	NA	NA	NA	NA	NA	NA	NA	NA	NA	NA	NA	NA	NA	BlockProc	BlockList	NA	30	{LEFTARROW}	NA	-100	2082	incongruent	NA	NA	NA	NA	NA	NA	NA	NA	NA	NA	NA	NA	NA	NA	NA	NA	NA	NA	NA	NA	NA	NA	TrialProc	TrialList	0	17	276531	16	0	16	274281	0	1	{LEFTARROW}	-999999	0	276014	0	{LEFTARROW}	500	276514	NA	NA	left	rrlrr.bmp	354	0	NA	0	0	0	0	NA	0	0	0	NA	0	0	0	0	NA	0	0	3	1	30
Arrow Flanker 2014	12049	1	"<?xml version=""1.0""?>\n<Clock xmlns:dt=""urn:schemas-microsoft-com:datatypes""><Description dt:dt=""string"">E-Prime Primary Realtime Clock</Description><StartTime><Timestamp dt:dt=""int"">0</Timestamp><DateUtc dt:dt=""string"">2015-03-03T15:10:36Z</DateUtc></StartTime><FrequencyChanges><FrequencyChange><Frequency dt:dt=""r8"">2825654</Frequency><Timestamp dt:dt=""r8"">2064957387</Timestamp><Current dt:dt=""r8"">0</Current><DateUtc dt:dt=""string"">2015-03-03T15:10:36Z</DateUtc></FrequencyChange></FrequencyChanges></Clock>\n"	Arrow Flanker 2014-12049-1	60.018	1.0.0.91	1	2065501684	Professional	2.0.10.353	2.0.10.353	03-03-2015	3/3/2015 3:10:36 PM	10:10:36	2.0.10.248	3	1	1	1	NA	NA	NA	NA	NA	NA	NA	NA	NA	NA	NA	NA	NA	NA	NA	NA	NA	NA	NA	NA	NA	NA	NA	NA	BlockProc	BlockList	NA	31	{LEFTARROW}	NA	-100	1354	neutral	NA	NA	NA	NA	NA	NA	NA	NA	NA	NA	NA	NA	NA	NA	NA	NA	NA	NA	NA	NA	NA	NA	TrialProc	TrialList	0	7	278697	16	0	17	277064	0	1	{LEFTARROW}	-999999	0	278230	0	{LEFTARROW}	459	278689	NA	NA	left	ooloo.bmp	354	0	NA	0	0	0	0	NA	0	0	0	NA	0	0	0	0	NA	0	0	5	1	31
Arrow Flanker 2014	12049	1	"<?xml version=""1.0""?>\n<Clock xmlns:dt=""urn:schemas-microsoft-com:datatypes""><Description dt:dt=""string"">E-Prime Primary Realtime Clock</Description><StartTime><Timestamp dt:dt=""int"">0</Timestamp><DateUtc dt:dt=""string"">2015-03-03T15:10:36Z</DateUtc></StartTime><FrequencyChanges><FrequencyChange><Frequency dt:dt=""r8"">2825654</Frequency><Timestamp dt:dt=""r8"">2064957387</Timestamp><Current dt:dt=""r8"">0</Current><DateUtc dt:dt=""string"">2015-03-03T15:10:36Z</DateUtc></FrequencyChange></FrequencyChanges></Clock>\n"	Arrow Flanker 2014-12049-1	60.018	1.0.0.91	1	2065501684	Professional	2.0.10.353	2.0.10.353	03-03-2015	3/3/2015 3:10:36 PM	10:10:36	2.0.10.248	3	1	1	1	NA	NA	NA	NA	NA	NA	NA	NA	NA	NA	NA	NA	NA	NA	NA	NA	NA	NA	NA	NA	NA	NA	NA	NA	BlockProc	BlockList	NA	32	{RIGHTARROW}	NA	-100	625	neutral	NA	NA	NA	NA	NA	NA	NA	NA	NA	NA	NA	NA	NA	NA	NA	NA	NA	NA	NA	NA	NA	NA	TrialProc	TrialList	1	9	280779	17	0	17	279230	0	1	{RIGHTARROW}	-999999	0	280330	0	{RIGHTARROW}	439	280769	NA	NA	right	ooroo.bmp	354	0	NA	0	0	0	0	NA	0	0	0	NA	0	0	0	0	NA	0	0	6	1	32
Arrow Flanker 2014	12049	1	"<?xml version=""1.0""?>\n<Clock xmlns:dt=""urn:schemas-microsoft-com:datatypes""><Description dt:dt=""string"">E-Prime Primary Realtime Clock</Description><StartTime><Timestamp dt:dt=""int"">0</Timestamp><DateUtc dt:dt=""string"">2015-03-03T15:10:36Z</DateUtc></StartTime><FrequencyChanges><FrequencyChange><Frequency dt:dt=""r8"">2825654</Frequency><Timestamp dt:dt=""r8"">2064957387</Timestamp><Current dt:dt=""r8"">0</Current><DateUtc dt:dt=""string"">2015-03-03T15:10:36Z</DateUtc></FrequencyChange></FrequencyChanges></Clock>\n"	Arrow Flanker 2014-12049-1	60.018	1.0.0.91	1	2065501684	Professional	2.0.10.353	2.0.10.353	03-03-2015	3/3/2015 3:10:36 PM	10:10:36	2.0.10.248	3	1	1	1	NA	NA	NA	NA	NA	NA	NA	NA	NA	NA	NA	NA	NA	NA	NA	NA	NA	NA	NA	NA	NA	NA	NA	NA	BlockProc	BlockList	NA	33	{RIGHTARROW}	NA	-100	2041	congruent	NA	NA	NA	NA	NA	NA	NA	NA	NA	NA	NA	NA	NA	NA	NA	NA	NA	NA	NA	NA	NA	NA	TrialProc	TrialList	0	11	283612	17	0	17	281313	0	1	{RIGHTARROW}	-999999	0	283179	0	{RIGHTARROW}	422	283601	NA	NA	right	rrrrr.bmp	354	0	NA	0	0	0	0	NA	0	0	0	NA	0	0	0	0	NA	0	0	2	1	33
Arrow Flanker 2014	12049	1	"<?xml version=""1.0""?>\n<Clock xmlns:dt=""urn:schemas-microsoft-com:datatypes""><Description dt:dt=""string"">E-Prime Primary Realtime Clock</Description><StartTime><Timestamp dt:dt=""int"">0</Timestamp><DateUtc dt:dt=""string"">2015-03-03T15:10:36Z</DateUtc></StartTime><FrequencyChanges><FrequencyChange><Frequency dt:dt=""r8"">2825654</Frequency><Timestamp dt:dt=""r8"">2064957387</Timestamp><Current dt:dt=""r8"">0</Current><DateUtc dt:dt=""string"">2015-03-03T15:10:36Z</DateUtc></FrequencyChange></FrequencyChanges></Clock>\n"	Arrow Flanker 2014-12049-1	60.018	1.0.0.91	1	2065501684	Professional	2.0.10.353	2.0.10.353	03-03-2015	3/3/2015 3:10:36 PM	10:10:36	2.0.10.248	3	1	1	1	NA	NA	NA	NA	NA	NA	NA	NA	NA	NA	NA	NA	NA	NA	NA	NA	NA	NA	NA	NA	NA	NA	NA	NA	BlockProc	BlockList	NA	34	{LEFTARROW}	NA	-100	2041	incongruent	NA	NA	NA	NA	NA	NA	NA	NA	NA	NA	NA	NA	NA	NA	NA	NA	NA	NA	NA	NA	NA	NA	TrialProc	TrialList	0	17	286178	17	0	16	284145	0	1	{LEFTARROW}	-999999	0	285745	0	{LEFTARROW}	416	286161	NA	NA	left	rrlrr.bmp	354	0	NA	0	0	0	0	NA	0	0	0	NA	0	0	0	0	NA	0	0	3	1	34
Arrow Flanker 2014	12049	1	"<?xml version=""1.0""?>\n<Clock xmlns:dt=""urn:schemas-microsoft-com:datatypes""><Description dt:dt=""string"">E-Prime Primary Realtime Clock</Description><StartTime><Timestamp dt:dt=""int"">0</Timestamp><DateUtc dt:dt=""string"">2015-03-03T15:10:36Z</DateUtc></StartTime><FrequencyChanges><FrequencyChange><Frequency dt:dt=""r8"">2825654</Frequency><Timestamp dt:dt=""r8"">2064957387</Timestamp><Current dt:dt=""r8"">0</Current><DateUtc dt:dt=""string"">2015-03-03T15:10:36Z</DateUtc></FrequencyChange></FrequencyChanges></Clock>\n"	Arrow Flanker 2014-12049-1	60.018	1.0.0.91	1	2065501684	Professional	2.0.10.353	2.0.10.353	03-03-2015	3/3/2015 3:10:36 PM	10:10:36	2.0.10.248	3	1	1	1	NA	NA	NA	NA	NA	NA	NA	NA	NA	NA	NA	NA	NA	NA	NA	NA	NA	NA	NA	NA	NA	NA	NA	NA	BlockProc	BlockList	NA	35	{LEFTARROW}	NA	-100	1325	congruent	NA	NA	NA	NA	NA	NA	NA	NA	NA	NA	NA	NA	NA	NA	NA	NA	NA	NA	NA	NA	NA	NA	TrialProc	TrialList	1	17	289010	17	0	16	286711	0	1	{LEFTARROW}	-999999	0	288494	0	{LEFTARROW}	499	288993	NA	NA	left	lllll.bmp	354	0	NA	0	0	0	0	NA	0	0	0	NA	0	0	0	0	NA	0	0	1	1	35
Arrow Flanker 2014	12049	1	"<?xml version=""1.0""?>\n<Clock xmlns:dt=""urn:schemas-microsoft-com:datatypes""><Description dt:dt=""string"">E-Prime Primary Realtime Clock</Description><StartTime><Timestamp dt:dt=""int"">0</Timestamp><DateUtc dt:dt=""string"">2015-03-03T15:10:36Z</DateUtc></StartTime><FrequencyChanges><FrequencyChange><Frequency dt:dt=""r8"">2825654</Frequency><Timestamp dt:dt=""r8"">2064957387</Timestamp><Current dt:dt=""r8"">0</Current><DateUtc dt:dt=""string"">2015-03-03T15:10:36Z</DateUtc></FrequencyChange></FrequencyChanges></Clock>\n"	Arrow Flanker 2014-12049-1	60.018	1.0.0.91	1	2065501684	Professional	2.0.10.353	2.0.10.353	03-03-2015	3/3/2015 3:10:36 PM	10:10:36	2.0.10.248	3	1	1	1	NA	NA	NA	NA	NA	NA	NA	NA	NA	NA	NA	NA	NA	NA	NA	NA	NA	NA	NA	NA	NA	NA	NA	NA	BlockProc	BlockList	NA	36	{LEFTARROW}	NA	-100	2110	incongruent	NA	NA	NA	NA	NA	NA	NA	NA	NA	NA	NA	NA	NA	NA	NA	NA	NA	NA	NA	NA	NA	NA	TrialProc	TrialList	1	18	291859	17	0	16	289543	0	1	{LEFTARROW}	-999999	0	291393	0	{LEFTARROW}	448	291841	NA	NA	left	rrlrr.bmp	354	0	NA	0	0	0	0	NA	0	0	0	NA	0	0	0	0	NA	0	0	3	1	36
Arrow Flanker 2014	12049	1	"<?xml version=""1.0""?>\n<Clock xmlns:dt=""urn:schemas-microsoft-com:datatypes""><Description dt:dt=""string"">E-Prime Primary Realtime Clock</Description><StartTime><Timestamp dt:dt=""int"">0</Timestamp><DateUtc dt:dt=""string"">2015-03-03T15:10:36Z</DateUtc></StartTime><FrequencyChanges><FrequencyChange><Frequency dt:dt=""r8"">2825654</Frequency><Timestamp dt:dt=""r8"">2064957387</Timestamp><Current dt:dt=""r8"">0</Current><DateUtc dt:dt=""string"">2015-03-03T15:10:36Z</DateUtc></FrequencyChange></FrequencyChanges></Clock>\n"	Arrow Flanker 2014-12049-1	60.018	1.0.0.91	1	2065501684	Professional	2.0.10.353	2.0.10.353	03-03-2015	3/3/2015 3:10:36 PM	10:10:36	2.0.10.248	3	1	1	1	NA	NA	NA	NA	NA	NA	NA	NA	NA	NA	NA	NA	NA	NA	NA	NA	NA	NA	NA	NA	NA	NA	NA	NA	BlockProc	BlockList	NA	37	{RIGHTARROW}	NA	-100	2254	congruent	NA	NA	NA	NA	NA	NA	NA	NA	NA	NA	NA	NA	NA	NA	NA	NA	NA	NA	NA	NA	3	1	TrialProc	TrialList	1	16	294625	17	0	17	292393	0	1	{RIGHTARROW}	-999999	0	294009	0	{RIGHTARROW}	599	294608	NA	NA	right	rrrrr.bmp	354	0	NA	-999999	17	295159	0	1	3833	298992	0	NA	-999999	15	299007	0	1	1346	300353	2	1	37
Arrow Flanker 2014	12049	1	"<?xml version=""1.0""?>\n<Clock xmlns:dt=""urn:schemas-microsoft-com:datatypes""><Description dt:dt=""string"">E-Prime Primary Realtime Clock</Description><StartTime><Timestamp dt:dt=""int"">0</Timestamp><DateUtc dt:dt=""string"">2015-03-03T15:10:36Z</DateUtc></StartTime><FrequencyChanges><FrequencyChange><Frequency dt:dt=""r8"">2825654</Frequency><Timestamp dt:dt=""r8"">2064957387</Timestamp><Current dt:dt=""r8"">0</Current><DateUtc dt:dt=""string"">2015-03-03T15:10:36Z</DateUtc></FrequencyChange></FrequencyChanges></Clock>\n"	Arrow Flanker 2014-12049-1	60.018	1.0.0.91	1	2065501684	Professional	2.0.10.353	2.0.10.353	03-03-2015	3/3/2015 3:10:36 PM	10:10:36	2.0.10.248	3	1	1	1	NA	NA	NA	NA	NA	NA	NA	NA	NA	NA	NA	NA	NA	NA	NA	NA	NA	NA	NA	NA	NA	NA	NA	NA	BlockProc	BlockList	NA	38	{LEFTARROW}	NA	-100	2679	congruent	NA	NA	NA	NA	NA	NA	NA	NA	NA	NA	NA	NA	NA	NA	NA	NA	NA	NA	NA	NA	NA	NA	TrialProc	TrialList	0	17	304289	17	0	17	301857	0	1	{LEFTARROW}	-999999	0	303856	0	{LEFTARROW}	416	304272	NA	NA	left	lllll.bmp	354	0	NA	0	0	0	0	NA	0	0	0	NA	0	0	0	0	NA	0	0	1	1	38
Arrow Flanker 2014	12049	1	"<?xml version=""1.0""?>\n<Clock xmlns:dt=""urn:schemas-microsoft-com:datatypes""><Description dt:dt=""string"">E-Prime Primary Realtime Clock</Description><StartTime><Timestamp dt:dt=""int"">0</Timestamp><DateUtc dt:dt=""string"">2015-03-03T15:10:36Z</DateUtc></StartTime><FrequencyChanges><FrequencyChange><Frequency dt:dt=""r8"">2825654</Frequency><Timestamp dt:dt=""r8"">2064957387</Timestamp><Current dt:dt=""r8"">0</Current><DateUtc dt:dt=""string"">2015-03-03T15:10:36Z</DateUtc></FrequencyChange></FrequencyChanges></Clock>\n"	Arrow Flanker 2014-12049-1	60.018	1.0.0.91	1	2065501684	Professional	2.0.10.353	2.0.10.353	03-03-2015	3/3/2015 3:10:36 PM	10:10:36	2.0.10.248	3	1	1	1	NA	NA	NA	NA	NA	NA	NA	NA	NA	NA	NA	NA	NA	NA	NA	NA	NA	NA	NA	NA	NA	NA	NA	NA	BlockProc	BlockList	NA	39	{LEFTARROW}	NA	-100	2273	incongruent	NA	NA	NA	NA	NA	NA	NA	NA	NA	NA	NA	NA	NA	NA	NA	NA	NA	NA	NA	NA	NA	NA	TrialProc	TrialList	0	17	307105	17	0	16	304822	0	1	{LEFTARROW}	-999999	16	306605	0	{LEFTARROW}	483	307088	NA	NA	left	rrlrr.bmp	354	0	NA	0	0	0	0	NA	0	0	0	NA	0	0	0	0	NA	0	0	3	1	39
Arrow Flanker 2014	12049	1	"<?xml version=""1.0""?>\n<Clock xmlns:dt=""urn:schemas-microsoft-com:datatypes""><Description dt:dt=""string"">E-Prime Primary Realtime Clock</Description><StartTime><Timestamp dt:dt=""int"">0</Timestamp><DateUtc dt:dt=""string"">2015-03-03T15:10:36Z</DateUtc></StartTime><FrequencyChanges><FrequencyChange><Frequency dt:dt=""r8"">2825654</Frequency><Timestamp dt:dt=""r8"">2064957387</Timestamp><Current dt:dt=""r8"">0</Current><DateUtc dt:dt=""string"">2015-03-03T15:10:36Z</DateUtc></FrequencyChange></FrequencyChanges></Clock>\n"	Arrow Flanker 2014-12049-1	60.018	1.0.0.91	1	2065501684	Professional	2.0.10.353	2.0.10.353	03-03-2015	3/3/2015 3:10:36 PM	10:10:36	2.0.10.248	3	1	1	1	NA	NA	NA	NA	NA	NA	NA	NA	NA	NA	NA	NA	NA	NA	NA	NA	NA	NA	NA	NA	NA	NA	NA	NA	BlockProc	BlockList	NA	40	{RIGHTARROW}	NA	-100	1545	incongruent	NA	NA	NA	NA	NA	NA	NA	NA	NA	NA	NA	NA	NA	NA	NA	NA	NA	NA	NA	NA	NA	NA	TrialProc	TrialList	1	18	309154	17	0	16	307638	0	1	{RIGHTARROW}	-999999	0	308688	0	{RIGHTARROW}	448	309136	NA	NA	right	llrll.bmp	354	0	NA	0	0	0	0	NA	0	0	0	NA	0	0	0	0	NA	0	0	4	1	40
Arrow Flanker 2014	12049	1	"<?xml version=""1.0""?>\n<Clock xmlns:dt=""urn:schemas-microsoft-com:datatypes""><Description dt:dt=""string"">E-Prime Primary Realtime Clock</Description><StartTime><Timestamp dt:dt=""int"">0</Timestamp><DateUtc dt:dt=""string"">2015-03-03T15:10:36Z</DateUtc></StartTime><FrequencyChanges><FrequencyChange><Frequency dt:dt=""r8"">2825654</Frequency><Timestamp dt:dt=""r8"">2064957387</Timestamp><Current dt:dt=""r8"">0</Current><DateUtc dt:dt=""string"">2015-03-03T15:10:36Z</DateUtc></FrequencyChange></FrequencyChanges></Clock>\n"	Arrow Flanker 2014-12049-1	60.018	1.0.0.91	1	2065501684	Professional	2.0.10.353	2.0.10.353	03-03-2015	3/3/2015 3:10:36 PM	10:10:36	2.0.10.248	3	1	1	1	NA	NA	NA	NA	NA	NA	NA	NA	NA	NA	NA	NA	NA	NA	NA	NA	NA	NA	NA	NA	NA	NA	NA	NA	BlockProc	BlockList	NA	41	{RIGHTARROW}	NA	-100	2377	incongruent	NA	NA	NA	NA	NA	NA	NA	NA	NA	NA	NA	NA	NA	NA	NA	NA	NA	NA	NA	NA	NA	NA	TrialProc	TrialList	0	15	312287	16	0	17	309688	0	1	{RIGHTARROW}	-999999	0	311787	0	{RIGHTARROW}	484	312271	NA	NA	right	llrll.bmp	354	0	NA	0	0	0	0	NA	0	0	0	NA	0	0	0	0	NA	0	0	4	1	41
Arrow Flanker 2014	12049	1	"<?xml version=""1.0""?>\n<Clock xmlns:dt=""urn:schemas-microsoft-com:datatypes""><Description dt:dt=""string"">E-Prime Primary Realtime Clock</Description><StartTime><Timestamp dt:dt=""int"">0</Timestamp><DateUtc dt:dt=""string"">2015-03-03T15:10:36Z</DateUtc></StartTime><FrequencyChanges><FrequencyChange><Frequency dt:dt=""r8"">2825654</Frequency><Timestamp dt:dt=""r8"">2064957387</Timestamp><Current dt:dt=""r8"">0</Current><DateUtc dt:dt=""string"">2015-03-03T15:10:36Z</DateUtc></FrequencyChange></FrequencyChanges></Clock>\n"	Arrow Flanker 2014-12049-1	60.018	1.0.0.91	1	2065501684	Professional	2.0.10.353	2.0.10.353	03-03-2015	3/3/2015 3:10:36 PM	10:10:36	2.0.10.248	3	1	1	1	NA	NA	NA	NA	NA	NA	NA	NA	NA	NA	NA	NA	NA	NA	NA	NA	NA	NA	NA	NA	NA	NA	NA	NA	BlockProc	BlockList	NA	42	{RIGHTARROW}	NA	-100	1256	neutral	NA	NA	NA	NA	NA	NA	NA	NA	NA	NA	NA	NA	NA	NA	NA	NA	NA	NA	NA	NA	NA	NA	TrialProc	TrialList	0	9	314953	16	0	17	312820	0	1	{RIGHTARROW}	-999999	0	314453	0	{RIGHTARROW}	490	314943	NA	NA	right	ooroo.bmp	354	0	NA	0	0	0	0	NA	0	0	0	NA	0	0	0	0	NA	0	0	6	1	42
Arrow Flanker 2014	12049	1	"<?xml version=""1.0""?>\n<Clock xmlns:dt=""urn:schemas-microsoft-com:datatypes""><Description dt:dt=""string"">E-Prime Primary Realtime Clock</Description><StartTime><Timestamp dt:dt=""int"">0</Timestamp><DateUtc dt:dt=""string"">2015-03-03T15:10:36Z</DateUtc></StartTime><FrequencyChanges><FrequencyChange><Frequency dt:dt=""r8"">2825654</Frequency><Timestamp dt:dt=""r8"">2064957387</Timestamp><Current dt:dt=""r8"">0</Current><DateUtc dt:dt=""string"">2015-03-03T15:10:36Z</DateUtc></FrequencyChange></FrequencyChanges></Clock>\n"	Arrow Flanker 2014-12049-1	60.018	1.0.0.91	1	2065501684	Professional	2.0.10.353	2.0.10.353	03-03-2015	3/3/2015 3:10:36 PM	10:10:36	2.0.10.248	3	1	1	1	NA	NA	NA	NA	NA	NA	NA	NA	NA	NA	NA	NA	NA	NA	NA	NA	NA	NA	NA	NA	NA	NA	NA	NA	BlockProc	BlockList	NA	43	{LEFTARROW}	NA	-100	2250	incongruent	NA	NA	NA	NA	NA	NA	NA	NA	NA	NA	NA	NA	NA	NA	NA	NA	NA	NA	NA	NA	NA	NA	TrialProc	TrialList	0	13	317852	16	0	17	315486	0	1	{LEFTARROW}	-999999	0	317235	0	{LEFTARROW}	604	317839	NA	NA	left	rrlrr.bmp	354	0	NA	0	0	0	0	NA	0	0	0	NA	0	0	0	0	NA	0	0	3	1	43
Arrow Flanker 2014	12049	1	"<?xml version=""1.0""?>\n<Clock xmlns:dt=""urn:schemas-microsoft-com:datatypes""><Description dt:dt=""string"">E-Prime Primary Realtime Clock</Description><StartTime><Timestamp dt:dt=""int"">0</Timestamp><DateUtc dt:dt=""string"">2015-03-03T15:10:36Z</DateUtc></StartTime><FrequencyChanges><FrequencyChange><Frequency dt:dt=""r8"">2825654</Frequency><Timestamp dt:dt=""r8"">2064957387</Timestamp><Current dt:dt=""r8"">0</Current><DateUtc dt:dt=""string"">2015-03-03T15:10:36Z</DateUtc></FrequencyChange></FrequencyChanges></Clock>\n"	Arrow Flanker 2014-12049-1	60.018	1.0.0.91	1	2065501684	Professional	2.0.10.353	2.0.10.353	03-03-2015	3/3/2015 3:10:36 PM	10:10:36	2.0.10.248	3	1	1	1	NA	NA	NA	NA	NA	NA	NA	NA	NA	NA	NA	NA	NA	NA	NA	NA	NA	NA	NA	NA	NA	NA	NA	NA	BlockProc	BlockList	NA	44	{RIGHTARROW}	NA	-100	2517	incongruent	NA	NA	NA	NA	NA	NA	NA	NA	NA	NA	NA	NA	NA	NA	NA	NA	NA	NA	NA	NA	NA	NA	TrialProc	TrialList	1	10	321417	17	0	17	318385	0	1	{RIGHTARROW}	-999999	0	320501	0	{RIGHTARROW}	906	321407	NA	NA	right	llrll.bmp	354	0	NA	0	0	0	0	NA	0	0	0	NA	0	0	0	0	NA	0	0	4	1	44
Arrow Flanker 2014	12049	1	"<?xml version=""1.0""?>\n<Clock xmlns:dt=""urn:schemas-microsoft-com:datatypes""><Description dt:dt=""string"">E-Prime Primary Realtime Clock</Description><StartTime><Timestamp dt:dt=""int"">0</Timestamp><DateUtc dt:dt=""string"">2015-03-03T15:10:36Z</DateUtc></StartTime><FrequencyChanges><FrequencyChange><Frequency dt:dt=""r8"">2825654</Frequency><Timestamp dt:dt=""r8"">2064957387</Timestamp><Current dt:dt=""r8"">0</Current><DateUtc dt:dt=""string"">2015-03-03T15:10:36Z</DateUtc></FrequencyChange></FrequencyChanges></Clock>\n"	Arrow Flanker 2014-12049-1	60.018	1.0.0.91	1	2065501684	Professional	2.0.10.353	2.0.10.353	03-03-2015	3/3/2015 3:10:36 PM	10:10:36	2.0.10.248	3	1	1	1	NA	NA	NA	NA	NA	NA	NA	NA	NA	NA	NA	NA	NA	NA	NA	NA	NA	NA	NA	NA	NA	NA	NA	NA	BlockProc	BlockList	NA	45	{RIGHTARROW}	NA	-100	1762	congruent	NA	NA	NA	NA	NA	NA	NA	NA	NA	NA	NA	NA	NA	NA	NA	NA	NA	NA	NA	NA	NA	NA	TrialProc	TrialList	0	13	323900	17	0	17	321951	0	1	{RIGHTARROW}	-999999	0	323200	0	{RIGHTARROW}	687	323887	NA	NA	right	rrrrr.bmp	354	0	NA	0	0	0	0	NA	0	0	0	NA	0	0	0	0	NA	0	0	2	1	45
Arrow Flanker 2014	12049	1	"<?xml version=""1.0""?>\n<Clock xmlns:dt=""urn:schemas-microsoft-com:datatypes""><Description dt:dt=""string"">E-Prime Primary Realtime Clock</Description><StartTime><Timestamp dt:dt=""int"">0</Timestamp><DateUtc dt:dt=""string"">2015-03-03T15:10:36Z</DateUtc></StartTime><FrequencyChanges><FrequencyChange><Frequency dt:dt=""r8"">2825654</Frequency><Timestamp dt:dt=""r8"">2064957387</Timestamp><Current dt:dt=""r8"">0</Current><DateUtc dt:dt=""string"">2015-03-03T15:10:36Z</DateUtc></FrequencyChange></FrequencyChanges></Clock>\n"	Arrow Flanker 2014-12049-1	60.018	1.0.0.91	1	2065501684	Professional	2.0.10.353	2.0.10.353	03-03-2015	3/3/2015 3:10:36 PM	10:10:36	2.0.10.248	3	1	1	1	NA	NA	NA	NA	NA	NA	NA	NA	NA	NA	NA	NA	NA	NA	NA	NA	NA	NA	NA	NA	NA	NA	NA	NA	BlockProc	BlockList	NA	46	{RIGHTARROW}	NA	-100	1749	neutral	NA	NA	NA	NA	NA	NA	NA	NA	NA	NA	NA	NA	NA	NA	NA	NA	NA	NA	NA	NA	NA	NA	TrialProc	TrialList	0	8	326583	16	0	16	324433	0	1	{RIGHTARROW}	-999999	0	325616	0	{RIGHTARROW}	959	326575	NA	NA	right	ooroo.bmp	354	0	NA	0	0	0	0	NA	0	0	0	NA	0	0	0	0	NA	0	0	6	1	46
Arrow Flanker 2014	12049	1	"<?xml version=""1.0""?>\n<Clock xmlns:dt=""urn:schemas-microsoft-com:datatypes""><Description dt:dt=""string"">E-Prime Primary Realtime Clock</Description><StartTime><Timestamp dt:dt=""int"">0</Timestamp><DateUtc dt:dt=""string"">2015-03-03T15:10:36Z</DateUtc></StartTime><FrequencyChanges><FrequencyChange><Frequency dt:dt=""r8"">2825654</Frequency><Timestamp dt:dt=""r8"">2064957387</Timestamp><Current dt:dt=""r8"">0</Current><DateUtc dt:dt=""string"">2015-03-03T15:10:36Z</DateUtc></FrequencyChange></FrequencyChanges></Clock>\n"	Arrow Flanker 2014-12049-1	60.018	1.0.0.91	1	2065501684	Professional	2.0.10.353	2.0.10.353	03-03-2015	3/3/2015 3:10:36 PM	10:10:36	2.0.10.248	3	1	1	1	NA	NA	NA	NA	NA	NA	NA	NA	NA	NA	NA	NA	NA	NA	NA	NA	NA	NA	NA	NA	NA	NA	NA	NA	BlockProc	BlockList	NA	47	{LEFTARROW}	NA	-100	1047	neutral	NA	NA	NA	NA	NA	NA	NA	NA	NA	NA	NA	NA	NA	NA	NA	NA	NA	NA	NA	NA	NA	NA	TrialProc	TrialList	0	10	329065	17	0	17	327116	0	1	{LEFTARROW}	-999999	0	328282	0	{LEFTARROW}	773	329055	NA	NA	left	ooloo.bmp	354	0	NA	0	0	0	0	NA	0	0	0	NA	0	0	0	0	NA	0	0	5	1	47
Arrow Flanker 2014	12049	1	"<?xml version=""1.0""?>\n<Clock xmlns:dt=""urn:schemas-microsoft-com:datatypes""><Description dt:dt=""string"">E-Prime Primary Realtime Clock</Description><StartTime><Timestamp dt:dt=""int"">0</Timestamp><DateUtc dt:dt=""string"">2015-03-03T15:10:36Z</DateUtc></StartTime><FrequencyChanges><FrequencyChange><Frequency dt:dt=""r8"">2825654</Frequency><Timestamp dt:dt=""r8"">2064957387</Timestamp><Current dt:dt=""r8"">0</Current><DateUtc dt:dt=""string"">2015-03-03T15:10:36Z</DateUtc></FrequencyChange></FrequencyChanges></Clock>\n"	Arrow Flanker 2014-12049-1	60.018	1.0.0.91	1	2065501684	Professional	2.0.10.353	2.0.10.353	03-03-2015	3/3/2015 3:10:36 PM	10:10:36	2.0.10.248	3	1	1	1	NA	NA	NA	NA	NA	NA	NA	NA	NA	NA	NA	NA	NA	NA	NA	NA	NA	NA	NA	NA	NA	NA	NA	NA	BlockProc	BlockList	NA	48	{LEFTARROW}	NA	-100	989	congruent	NA	NA	NA	NA	NA	NA	NA	NA	NA	NA	NA	NA	NA	NA	NA	NA	NA	NA	NA	NA	NA	NA	TrialProc	TrialList	1	13	331564	17	0	16	329598	0	1	{LEFTARROW}	-999999	0	330865	0	{LEFTARROW}	685	331550	NA	NA	left	lllll.bmp	354	0	NA	0	0	0	0	NA	0	0	0	NA	0	0	0	0	NA	0	0	1	1	48
Arrow Flanker 2014	12049	1	"<?xml version=""1.0""?>\n<Clock xmlns:dt=""urn:schemas-microsoft-com:datatypes""><Description dt:dt=""string"">E-Prime Primary Realtime Clock</Description><StartTime><Timestamp dt:dt=""int"">0</Timestamp><DateUtc dt:dt=""string"">2015-03-03T15:10:36Z</DateUtc></StartTime><FrequencyChanges><FrequencyChange><Frequency dt:dt=""r8"">2825654</Frequency><Timestamp dt:dt=""r8"">2064957387</Timestamp><Current dt:dt=""r8"">0</Current><DateUtc dt:dt=""string"">2015-03-03T15:10:36Z</DateUtc></FrequencyChange></FrequencyChanges></Clock>\n"	Arrow Flanker 2014-12049-1	60.018	1.0.0.91	1	2065501684	Professional	2.0.10.353	2.0.10.353	03-03-2015	3/3/2015 3:10:36 PM	10:10:36	2.0.10.248	3	1	1	1	NA	NA	NA	NA	NA	NA	NA	NA	NA	NA	NA	NA	NA	NA	NA	NA	NA	NA	NA	NA	NA	NA	NA	NA	BlockProc	BlockList	NA	49	{LEFTARROW}	NA	-100	2022	neutral	NA	NA	NA	NA	NA	NA	NA	NA	NA	NA	NA	NA	NA	NA	NA	NA	NA	NA	NA	NA	NA	NA	TrialProc	TrialList	1	7	334613	17	0	17	332098	0	1	{LEFTARROW}	-999999	0	334080	0	{LEFTARROW}	526	334606	NA	NA	left	ooloo.bmp	354	0	NA	0	0	0	0	NA	0	0	0	NA	0	0	0	0	NA	0	0	5	1	49
Arrow Flanker 2014	12049	1	"<?xml version=""1.0""?>\n<Clock xmlns:dt=""urn:schemas-microsoft-com:datatypes""><Description dt:dt=""string"">E-Prime Primary Realtime Clock</Description><StartTime><Timestamp dt:dt=""int"">0</Timestamp><DateUtc dt:dt=""string"">2015-03-03T15:10:36Z</DateUtc></StartTime><FrequencyChanges><FrequencyChange><Frequency dt:dt=""r8"">2825654</Frequency><Timestamp dt:dt=""r8"">2064957387</Timestamp><Current dt:dt=""r8"">0</Current><DateUtc dt:dt=""string"">2015-03-03T15:10:36Z</DateUtc></FrequencyChange></FrequencyChanges></Clock>\n"	Arrow Flanker 2014-12049-1	60.018	1.0.0.91	1	2065501684	Professional	2.0.10.353	2.0.10.353	03-03-2015	3/3/2015 3:10:36 PM	10:10:36	2.0.10.248	3	1	1	1	NA	NA	NA	NA	NA	NA	NA	NA	NA	NA	NA	NA	NA	NA	NA	NA	NA	NA	NA	NA	NA	NA	NA	NA	BlockProc	BlockList	NA	50	{RIGHTARROW}	NA	-100	1031	incongruent	NA	NA	NA	NA	NA	NA	NA	NA	NA	NA	NA	NA	NA	NA	NA	NA	NA	NA	NA	NA	NA	NA	TrialProc	TrialList	0	11	337113	16	0	17	335147	0	1	{RIGHTARROW}	-999999	0	336280	0	{RIGHTARROW}	822	337102	NA	NA	right	llrll.bmp	354	0	NA	0	0	0	0	NA	0	0	0	NA	0	0	0	0	NA	0	0	4	1	50
Arrow Flanker 2014	12049	1	"<?xml version=""1.0""?>\n<Clock xmlns:dt=""urn:schemas-microsoft-com:datatypes""><Description dt:dt=""string"">E-Prime Primary Realtime Clock</Description><StartTime><Timestamp dt:dt=""int"">0</Timestamp><DateUtc dt:dt=""string"">2015-03-03T15:10:36Z</DateUtc></StartTime><FrequencyChanges><FrequencyChange><Frequency dt:dt=""r8"">2825654</Frequency><Timestamp dt:dt=""r8"">2064957387</Timestamp><Current dt:dt=""r8"">0</Current><DateUtc dt:dt=""string"">2015-03-03T15:10:36Z</DateUtc></FrequencyChange></FrequencyChanges></Clock>\n"	Arrow Flanker 2014-12049-1	60.018	1.0.0.91	1	2065501684	Professional	2.0.10.353	2.0.10.353	03-03-2015	3/3/2015 3:10:36 PM	10:10:36	2.0.10.248	3	1	1	1	NA	NA	NA	NA	NA	NA	NA	NA	NA	NA	NA	NA	NA	NA	NA	NA	NA	NA	NA	NA	NA	NA	NA	NA	BlockProc	BlockList	NA	51	{LEFTARROW}	NA	-100	1168	congruent	NA	NA	NA	NA	NA	NA	NA	NA	NA	NA	NA	NA	NA	NA	NA	NA	NA	NA	NA	NA	NA	NA	TrialProc	TrialList	0	11	339129	17	0	17	337646	0	1	{LEFTARROW}	-999999	0	338596	0	{LEFTARROW}	522	339118	NA	NA	left	lllll.bmp	354	0	NA	0	0	0	0	NA	0	0	0	NA	0	0	0	0	NA	0	0	1	1	51
Arrow Flanker 2014	12049	1	"<?xml version=""1.0""?>\n<Clock xmlns:dt=""urn:schemas-microsoft-com:datatypes""><Description dt:dt=""string"">E-Prime Primary Realtime Clock</Description><StartTime><Timestamp dt:dt=""int"">0</Timestamp><DateUtc dt:dt=""string"">2015-03-03T15:10:36Z</DateUtc></StartTime><FrequencyChanges><FrequencyChange><Frequency dt:dt=""r8"">2825654</Frequency><Timestamp dt:dt=""r8"">2064957387</Timestamp><Current dt:dt=""r8"">0</Current><DateUtc dt:dt=""string"">2015-03-03T15:10:36Z</DateUtc></FrequencyChange></FrequencyChanges></Clock>\n"	Arrow Flanker 2014-12049-1	60.018	1.0.0.91	1	2065501684	Professional	2.0.10.353	2.0.10.353	03-03-2015	3/3/2015 3:10:36 PM	10:10:36	2.0.10.248	3	1	1	1	NA	NA	NA	NA	NA	NA	NA	NA	NA	NA	NA	NA	NA	NA	NA	NA	NA	NA	NA	NA	NA	NA	NA	NA	BlockProc	BlockList	NA	52	{LEFTARROW}	NA	-100	920	incongruent	NA	NA	NA	NA	NA	NA	NA	NA	NA	NA	NA	NA	NA	NA	NA	NA	NA	NA	NA	NA	NA	NA	TrialProc	TrialList	0	13	341195	17	0	16	339662	0	0	{LEFTARROW}	-999999	0	340778	0	{RIGHTARROW}	404	341182	NA	NA	left	rrlrr.bmp	354	0	NA	0	0	0	0	NA	0	0	0	NA	0	0	0	0	NA	0	0	3	1	52
Arrow Flanker 2014	12049	1	"<?xml version=""1.0""?>\n<Clock xmlns:dt=""urn:schemas-microsoft-com:datatypes""><Description dt:dt=""string"">E-Prime Primary Realtime Clock</Description><StartTime><Timestamp dt:dt=""int"">0</Timestamp><DateUtc dt:dt=""string"">2015-03-03T15:10:36Z</DateUtc></StartTime><FrequencyChanges><FrequencyChange><Frequency dt:dt=""r8"">2825654</Frequency><Timestamp dt:dt=""r8"">2064957387</Timestamp><Current dt:dt=""r8"">0</Current><DateUtc dt:dt=""string"">2015-03-03T15:10:36Z</DateUtc></FrequencyChange></FrequencyChanges></Clock>\n"	Arrow Flanker 2014-12049-1	60.018	1.0.0.91	1	2065501684	Professional	2.0.10.353	2.0.10.353	03-03-2015	3/3/2015 3:10:36 PM	10:10:36	2.0.10.248	3	1	1	1	NA	NA	NA	NA	NA	NA	NA	NA	NA	NA	NA	NA	NA	NA	NA	NA	NA	NA	NA	NA	NA	NA	NA	NA	BlockProc	BlockList	NA	53	{LEFTARROW}	NA	-100	1786	neutral	NA	NA	NA	NA	NA	NA	NA	NA	NA	NA	NA	NA	NA	NA	NA	NA	NA	NA	NA	NA	NA	NA	TrialProc	TrialList	1	9	344327	17	0	16	341728	0	1	{LEFTARROW}	-999999	0	343794	0	{LEFTARROW}	524	344318	NA	NA	left	ooloo.bmp	354	0	NA	0	0	0	0	NA	0	0	0	NA	0	0	0	0	NA	0	0	5	1	53
Arrow Flanker 2014	12049	1	"<?xml version=""1.0""?>\n<Clock xmlns:dt=""urn:schemas-microsoft-com:datatypes""><Description dt:dt=""string"">E-Prime Primary Realtime Clock</Description><StartTime><Timestamp dt:dt=""int"">0</Timestamp><DateUtc dt:dt=""string"">2015-03-03T15:10:36Z</DateUtc></StartTime><FrequencyChanges><FrequencyChange><Frequency dt:dt=""r8"">2825654</Frequency><Timestamp dt:dt=""r8"">2064957387</Timestamp><Current dt:dt=""r8"">0</Current><DateUtc dt:dt=""string"">2015-03-03T15:10:36Z</DateUtc></FrequencyChange></FrequencyChanges></Clock>\n"	Arrow Flanker 2014-12049-1	60.018	1.0.0.91	1	2065501684	Professional	2.0.10.353	2.0.10.353	03-03-2015	3/3/2015 3:10:36 PM	10:10:36	2.0.10.248	3	1	1	1	NA	NA	NA	NA	NA	NA	NA	NA	NA	NA	NA	NA	NA	NA	NA	NA	NA	NA	NA	NA	NA	NA	NA	NA	BlockProc	BlockList	NA	54	{RIGHTARROW}	NA	-100	1200	incongruent	NA	NA	NA	NA	NA	NA	NA	NA	NA	NA	NA	NA	NA	NA	NA	NA	NA	NA	NA	NA	4	2	TrialProc	TrialList	1	18	346543	17	0	16	344860	0	1	{RIGHTARROW}	-999999	0	346010	0	{RIGHTARROW}	515	346525	NA	NA	right	llrll.bmp	354	0	NA	-999999	16	347076	0	1	2073	349149	0	NA	-999999	10	349159	0	1	1654	350813	4	1	54
Arrow Flanker 2014	12049	1	"<?xml version=""1.0""?>\n<Clock xmlns:dt=""urn:schemas-microsoft-com:datatypes""><Description dt:dt=""string"">E-Prime Primary Realtime Clock</Description><StartTime><Timestamp dt:dt=""int"">0</Timestamp><DateUtc dt:dt=""string"">2015-03-03T15:10:36Z</DateUtc></StartTime><FrequencyChanges><FrequencyChange><Frequency dt:dt=""r8"">2825654</Frequency><Timestamp dt:dt=""r8"">2064957387</Timestamp><Current dt:dt=""r8"">0</Current><DateUtc dt:dt=""string"">2015-03-03T15:10:36Z</DateUtc></FrequencyChange></FrequencyChanges></Clock>\n"	Arrow Flanker 2014-12049-1	60.018	1.0.0.91	1	2065501684	Professional	2.0.10.353	2.0.10.353	03-03-2015	3/3/2015 3:10:36 PM	10:10:36	2.0.10.248	3	1	1	1	NA	NA	NA	NA	NA	NA	NA	NA	NA	NA	NA	NA	NA	NA	NA	NA	NA	NA	NA	NA	NA	NA	NA	NA	BlockProc	BlockList	NA	55	{RIGHTARROW}	NA	-100	2158	incongruent	NA	NA	NA	NA	NA	NA	NA	NA	NA	NA	NA	NA	NA	NA	NA	NA	NA	NA	NA	NA	NA	NA	TrialProc	TrialList	0	6	354691	16	0	11	351992	0	1	{RIGHTARROW}	-999999	0	353941	0	{RIGHTARROW}	744	354685	NA	NA	right	llrll.bmp	354	0	NA	0	0	0	0	NA	0	0	0	NA	0	0	0	0	NA	0	0	4	1	55
Arrow Flanker 2014	12049	1	"<?xml version=""1.0""?>\n<Clock xmlns:dt=""urn:schemas-microsoft-com:datatypes""><Description dt:dt=""string"">E-Prime Primary Realtime Clock</Description><StartTime><Timestamp dt:dt=""int"">0</Timestamp><DateUtc dt:dt=""string"">2015-03-03T15:10:36Z</DateUtc></StartTime><FrequencyChanges><FrequencyChange><Frequency dt:dt=""r8"">2825654</Frequency><Timestamp dt:dt=""r8"">2064957387</Timestamp><Current dt:dt=""r8"">0</Current><DateUtc dt:dt=""string"">2015-03-03T15:10:36Z</DateUtc></FrequencyChange></FrequencyChanges></Clock>\n"	Arrow Flanker 2014-12049-1	60.018	1.0.0.91	1	2065501684	Professional	2.0.10.353	2.0.10.353	03-03-2015	3/3/2015 3:10:36 PM	10:10:36	2.0.10.248	3	1	1	1	NA	NA	NA	NA	NA	NA	NA	NA	NA	NA	NA	NA	NA	NA	NA	NA	NA	NA	NA	NA	NA	NA	NA	NA	BlockProc	BlockList	NA	56	{LEFTARROW}	NA	-100	1629	neutral	NA	NA	NA	NA	NA	NA	NA	NA	NA	NA	NA	NA	NA	NA	NA	NA	NA	NA	NA	NA	NA	NA	TrialProc	TrialList	0	10	357207	16	0	17	355224	0	1	{LEFTARROW}	-999999	0	356724	0	{LEFTARROW}	473	357197	NA	NA	left	ooloo.bmp	354	0	NA	0	0	0	0	NA	0	0	0	NA	0	0	0	0	NA	0	0	5	1	56
Arrow Flanker 2014	12049	1	"<?xml version=""1.0""?>\n<Clock xmlns:dt=""urn:schemas-microsoft-com:datatypes""><Description dt:dt=""string"">E-Prime Primary Realtime Clock</Description><StartTime><Timestamp dt:dt=""int"">0</Timestamp><DateUtc dt:dt=""string"">2015-03-03T15:10:36Z</DateUtc></StartTime><FrequencyChanges><FrequencyChange><Frequency dt:dt=""r8"">2825654</Frequency><Timestamp dt:dt=""r8"">2064957387</Timestamp><Current dt:dt=""r8"">0</Current><DateUtc dt:dt=""string"">2015-03-03T15:10:36Z</DateUtc></FrequencyChange></FrequencyChanges></Clock>\n"	Arrow Flanker 2014-12049-1	60.018	1.0.0.91	1	2065501684	Professional	2.0.10.353	2.0.10.353	03-03-2015	3/3/2015 3:10:36 PM	10:10:36	2.0.10.248	3	1	1	1	NA	NA	NA	NA	NA	NA	NA	NA	NA	NA	NA	NA	NA	NA	NA	NA	NA	NA	NA	NA	NA	NA	NA	NA	BlockProc	BlockList	NA	57	{LEFTARROW}	NA	-100	746	neutral	NA	NA	NA	NA	NA	NA	NA	NA	NA	NA	NA	NA	NA	NA	NA	NA	NA	NA	NA	NA	NA	NA	TrialProc	TrialList	0	15	359356	17	0	17	357740	0	1	{LEFTARROW}	-999999	0	358873	0	{LEFTARROW}	468	359341	NA	NA	left	ooloo.bmp	354	0	NA	0	0	0	0	NA	0	0	0	NA	0	0	0	0	NA	0	0	5	1	57
Arrow Flanker 2014	12049	1	"<?xml version=""1.0""?>\n<Clock xmlns:dt=""urn:schemas-microsoft-com:datatypes""><Description dt:dt=""string"">E-Prime Primary Realtime Clock</Description><StartTime><Timestamp dt:dt=""int"">0</Timestamp><DateUtc dt:dt=""string"">2015-03-03T15:10:36Z</DateUtc></StartTime><FrequencyChanges><FrequencyChange><Frequency dt:dt=""r8"">2825654</Frequency><Timestamp dt:dt=""r8"">2064957387</Timestamp><Current dt:dt=""r8"">0</Current><DateUtc dt:dt=""string"">2015-03-03T15:10:36Z</DateUtc></FrequencyChange></FrequencyChanges></Clock>\n"	Arrow Flanker 2014-12049-1	60.018	1.0.0.91	1	2065501684	Professional	2.0.10.353	2.0.10.353	03-03-2015	3/3/2015 3:10:36 PM	10:10:36	2.0.10.248	3	1	1	1	NA	NA	NA	NA	NA	NA	NA	NA	NA	NA	NA	NA	NA	NA	NA	NA	NA	NA	NA	NA	NA	NA	NA	NA	BlockProc	BlockList	NA	58	{RIGHTARROW}	NA	-100	2439	incongruent	NA	NA	NA	NA	NA	NA	NA	NA	NA	NA	NA	NA	NA	NA	NA	NA	NA	NA	NA	NA	NA	NA	TrialProc	TrialList	1	4	362305	17	0	16	359889	0	1	{RIGHTARROW}	-999999	16	361822	0	{RIGHTARROW}	479	362301	NA	NA	right	llrll.bmp	354	0	NA	0	0	0	0	NA	0	0	0	NA	0	0	0	0	NA	0	0	4	1	58
Arrow Flanker 2014	12049	1	"<?xml version=""1.0""?>\n<Clock xmlns:dt=""urn:schemas-microsoft-com:datatypes""><Description dt:dt=""string"">E-Prime Primary Realtime Clock</Description><StartTime><Timestamp dt:dt=""int"">0</Timestamp><DateUtc dt:dt=""string"">2015-03-03T15:10:36Z</DateUtc></StartTime><FrequencyChanges><FrequencyChange><Frequency dt:dt=""r8"">2825654</Frequency><Timestamp dt:dt=""r8"">2064957387</Timestamp><Current dt:dt=""r8"">0</Current><DateUtc dt:dt=""string"">2015-03-03T15:10:36Z</DateUtc></FrequencyChange></FrequencyChanges></Clock>\n"	Arrow Flanker 2014-12049-1	60.018	1.0.0.91	1	2065501684	Professional	2.0.10.353	2.0.10.353	03-03-2015	3/3/2015 3:10:36 PM	10:10:36	2.0.10.248	3	1	1	1	NA	NA	NA	NA	NA	NA	NA	NA	NA	NA	NA	NA	NA	NA	NA	NA	NA	NA	NA	NA	NA	NA	NA	NA	BlockProc	BlockList	NA	59	{LEFTARROW}	NA	-100	1578	neutral	NA	NA	NA	NA	NA	NA	NA	NA	NA	NA	NA	NA	NA	NA	NA	NA	NA	NA	NA	NA	NA	NA	TrialProc	TrialList	1	10	365254	17	0	16	362838	0	1	{LEFTARROW}	-999999	0	364838	0	{LEFTARROW}	406	365244	NA	NA	left	ooloo.bmp	354	0	NA	0	0	0	0	NA	0	0	0	NA	0	0	0	0	NA	0	0	5	1	59
Arrow Flanker 2014	12049	1	"<?xml version=""1.0""?>\n<Clock xmlns:dt=""urn:schemas-microsoft-com:datatypes""><Description dt:dt=""string"">E-Prime Primary Realtime Clock</Description><StartTime><Timestamp dt:dt=""int"">0</Timestamp><DateUtc dt:dt=""string"">2015-03-03T15:10:36Z</DateUtc></StartTime><FrequencyChanges><FrequencyChange><Frequency dt:dt=""r8"">2825654</Frequency><Timestamp dt:dt=""r8"">2064957387</Timestamp><Current dt:dt=""r8"">0</Current><DateUtc dt:dt=""string"">2015-03-03T15:10:36Z</DateUtc></FrequencyChange></FrequencyChanges></Clock>\n"	Arrow Flanker 2014-12049-1	60.018	1.0.0.91	1	2065501684	Professional	2.0.10.353	2.0.10.353	03-03-2015	3/3/2015 3:10:36 PM	10:10:36	2.0.10.248	3	1	1	1	NA	NA	NA	NA	NA	NA	NA	NA	NA	NA	NA	NA	NA	NA	NA	NA	NA	NA	NA	NA	NA	NA	NA	NA	BlockProc	BlockList	NA	60	{RIGHTARROW}	NA	-100	1137	incongruent	NA	NA	NA	NA	NA	NA	NA	NA	NA	NA	NA	NA	NA	NA	NA	NA	NA	NA	NA	NA	NA	NA	TrialProc	TrialList	1	12	367720	17	0	17	365788	0	1	{RIGHTARROW}	-999999	0	367204	0	{RIGHTARROW}	504	367708	NA	NA	right	llrll.bmp	354	0	NA	0	0	0	0	NA	0	0	0	NA	0	0	0	0	NA	0	0	4	1	60
Arrow Flanker 2014	12049	1	"<?xml version=""1.0""?>\n<Clock xmlns:dt=""urn:schemas-microsoft-com:datatypes""><Description dt:dt=""string"">E-Prime Primary Realtime Clock</Description><StartTime><Timestamp dt:dt=""int"">0</Timestamp><DateUtc dt:dt=""string"">2015-03-03T15:10:36Z</DateUtc></StartTime><FrequencyChanges><FrequencyChange><Frequency dt:dt=""r8"">2825654</Frequency><Timestamp dt:dt=""r8"">2064957387</Timestamp><Current dt:dt=""r8"">0</Current><DateUtc dt:dt=""string"">2015-03-03T15:10:36Z</DateUtc></FrequencyChange></FrequencyChanges></Clock>\n"	Arrow Flanker 2014-12049-1	60.018	1.0.0.91	1	2065501684	Professional	2.0.10.353	2.0.10.353	03-03-2015	3/3/2015 3:10:36 PM	10:10:36	2.0.10.248	3	1	1	1	NA	NA	NA	NA	NA	NA	NA	NA	NA	NA	NA	NA	NA	NA	NA	NA	NA	NA	NA	NA	NA	NA	NA	NA	BlockProc	BlockList	NA	61	{LEFTARROW}	NA	-100	1979	congruent	NA	NA	NA	NA	NA	NA	NA	NA	NA	NA	NA	NA	NA	NA	NA	NA	NA	NA	NA	NA	NA	NA	TrialProc	TrialList	0	11	370103	17	0	16	368253	0	1	{LEFTARROW}	-999999	16	369653	0	{LEFTARROW}	439	370092	NA	NA	left	lllll.bmp	354	0	NA	0	0	0	0	NA	0	0	0	NA	0	0	0	0	NA	0	0	1	1	61
Arrow Flanker 2014	12049	1	"<?xml version=""1.0""?>\n<Clock xmlns:dt=""urn:schemas-microsoft-com:datatypes""><Description dt:dt=""string"">E-Prime Primary Realtime Clock</Description><StartTime><Timestamp dt:dt=""int"">0</Timestamp><DateUtc dt:dt=""string"">2015-03-03T15:10:36Z</DateUtc></StartTime><FrequencyChanges><FrequencyChange><Frequency dt:dt=""r8"">2825654</Frequency><Timestamp dt:dt=""r8"">2064957387</Timestamp><Current dt:dt=""r8"">0</Current><DateUtc dt:dt=""string"">2015-03-03T15:10:36Z</DateUtc></FrequencyChange></FrequencyChanges></Clock>\n"	Arrow Flanker 2014-12049-1	60.018	1.0.0.91	1	2065501684	Professional	2.0.10.353	2.0.10.353	03-03-2015	3/3/2015 3:10:36 PM	10:10:36	2.0.10.248	3	1	1	1	NA	NA	NA	NA	NA	NA	NA	NA	NA	NA	NA	NA	NA	NA	NA	NA	NA	NA	NA	NA	NA	NA	NA	NA	BlockProc	BlockList	NA	62	{RIGHTARROW}	NA	-100	1495	congruent	NA	NA	NA	NA	NA	NA	NA	NA	NA	NA	NA	NA	NA	NA	NA	NA	NA	NA	NA	NA	NA	NA	TrialProc	TrialList	0	10	372902	17	0	16	370636	0	1	{RIGHTARROW}	-999999	0	372486	0	{RIGHTARROW}	406	372892	NA	NA	right	rrrrr.bmp	354	0	NA	0	0	0	0	NA	0	0	0	NA	0	0	0	0	NA	0	0	2	1	62
Arrow Flanker 2014	12049	1	"<?xml version=""1.0""?>\n<Clock xmlns:dt=""urn:schemas-microsoft-com:datatypes""><Description dt:dt=""string"">E-Prime Primary Realtime Clock</Description><StartTime><Timestamp dt:dt=""int"">0</Timestamp><DateUtc dt:dt=""string"">2015-03-03T15:10:36Z</DateUtc></StartTime><FrequencyChanges><FrequencyChange><Frequency dt:dt=""r8"">2825654</Frequency><Timestamp dt:dt=""r8"">2064957387</Timestamp><Current dt:dt=""r8"">0</Current><DateUtc dt:dt=""string"">2015-03-03T15:10:36Z</DateUtc></FrequencyChange></FrequencyChanges></Clock>\n"	Arrow Flanker 2014-12049-1	60.018	1.0.0.91	1	2065501684	Professional	2.0.10.353	2.0.10.353	03-03-2015	3/3/2015 3:10:36 PM	10:10:36	2.0.10.248	3	1	1	1	NA	NA	NA	NA	NA	NA	NA	NA	NA	NA	NA	NA	NA	NA	NA	NA	NA	NA	NA	NA	NA	NA	NA	NA	BlockProc	BlockList	NA	63	{LEFTARROW}	NA	-100	1266	neutral	NA	NA	NA	NA	NA	NA	NA	NA	NA	NA	NA	NA	NA	NA	NA	NA	NA	NA	NA	NA	NA	NA	TrialProc	TrialList	1	9	375301	17	0	16	373435	0	1	{LEFTARROW}	-999999	0	374835	0	{LEFTARROW}	457	375292	NA	NA	left	ooloo.bmp	354	0	NA	0	0	0	0	NA	0	0	0	NA	0	0	0	0	NA	0	0	5	1	63
Arrow Flanker 2014	12049	1	"<?xml version=""1.0""?>\n<Clock xmlns:dt=""urn:schemas-microsoft-com:datatypes""><Description dt:dt=""string"">E-Prime Primary Realtime Clock</Description><StartTime><Timestamp dt:dt=""int"">0</Timestamp><DateUtc dt:dt=""string"">2015-03-03T15:10:36Z</DateUtc></StartTime><FrequencyChanges><FrequencyChange><Frequency dt:dt=""r8"">2825654</Frequency><Timestamp dt:dt=""r8"">2064957387</Timestamp><Current dt:dt=""r8"">0</Current><DateUtc dt:dt=""string"">2015-03-03T15:10:36Z</DateUtc></FrequencyChange></FrequencyChanges></Clock>\n"	Arrow Flanker 2014-12049-1	60.018	1.0.0.91	1	2065501684	Professional	2.0.10.353	2.0.10.353	03-03-2015	3/3/2015 3:10:36 PM	10:10:36	2.0.10.248	3	1	1	1	NA	NA	NA	NA	NA	NA	NA	NA	NA	NA	NA	NA	NA	NA	NA	NA	NA	NA	NA	NA	NA	NA	NA	NA	BlockProc	BlockList	NA	64	{LEFTARROW}	NA	-100	1832	neutral	NA	NA	NA	NA	NA	NA	NA	NA	NA	NA	NA	NA	NA	NA	NA	NA	NA	NA	NA	NA	NA	NA	TrialProc	TrialList	0	8	377684	17	0	17	375835	0	1	{LEFTARROW}	-999999	0	377168	0	{LEFTARROW}	508	377676	NA	NA	left	ooloo.bmp	354	0	NA	0	0	0	0	NA	0	0	0	NA	0	0	0	0	NA	0	0	5	1	64
Arrow Flanker 2014	12049	1	"<?xml version=""1.0""?>\n<Clock xmlns:dt=""urn:schemas-microsoft-com:datatypes""><Description dt:dt=""string"">E-Prime Primary Realtime Clock</Description><StartTime><Timestamp dt:dt=""int"">0</Timestamp><DateUtc dt:dt=""string"">2015-03-03T15:10:36Z</DateUtc></StartTime><FrequencyChanges><FrequencyChange><Frequency dt:dt=""r8"">2825654</Frequency><Timestamp dt:dt=""r8"">2064957387</Timestamp><Current dt:dt=""r8"">0</Current><DateUtc dt:dt=""string"">2015-03-03T15:10:36Z</DateUtc></FrequencyChange></FrequencyChanges></Clock>\n"	Arrow Flanker 2014-12049-1	60.018	1.0.0.91	1	2065501684	Professional	2.0.10.353	2.0.10.353	03-03-2015	3/3/2015 3:10:36 PM	10:10:36	2.0.10.248	3	1	1	1	NA	NA	NA	NA	NA	NA	NA	NA	NA	NA	NA	NA	NA	NA	NA	NA	NA	NA	NA	NA	NA	NA	NA	NA	BlockProc	BlockList	NA	65	{RIGHTARROW}	NA	-100	2032	congruent	NA	NA	NA	NA	NA	NA	NA	NA	NA	NA	NA	NA	NA	NA	NA	NA	NA	NA	NA	NA	NA	NA	TrialProc	TrialList	0	6	380450	17	0	16	378217	0	1	{RIGHTARROW}	-999999	0	380017	0	{RIGHTARROW}	426	380443	NA	NA	right	rrrrr.bmp	354	0	NA	0	0	0	0	NA	0	0	0	NA	0	0	0	0	NA	0	0	2	1	65
Arrow Flanker 2014	12049	1	"<?xml version=""1.0""?>\n<Clock xmlns:dt=""urn:schemas-microsoft-com:datatypes""><Description dt:dt=""string"">E-Prime Primary Realtime Clock</Description><StartTime><Timestamp dt:dt=""int"">0</Timestamp><DateUtc dt:dt=""string"">2015-03-03T15:10:36Z</DateUtc></StartTime><FrequencyChanges><FrequencyChange><Frequency dt:dt=""r8"">2825654</Frequency><Timestamp dt:dt=""r8"">2064957387</Timestamp><Current dt:dt=""r8"">0</Current><DateUtc dt:dt=""string"">2015-03-03T15:10:36Z</DateUtc></FrequencyChange></FrequencyChanges></Clock>\n"	Arrow Flanker 2014-12049-1	60.018	1.0.0.91	1	2065501684	Professional	2.0.10.353	2.0.10.353	03-03-2015	3/3/2015 3:10:36 PM	10:10:36	2.0.10.248	3	1	1	1	NA	NA	NA	NA	NA	NA	NA	NA	NA	NA	NA	NA	NA	NA	NA	NA	NA	NA	NA	NA	NA	NA	NA	NA	BlockProc	BlockList	NA	66	{RIGHTARROW}	NA	-100	2000	neutral	NA	NA	NA	NA	NA	NA	NA	NA	NA	NA	NA	NA	NA	NA	NA	NA	NA	NA	NA	NA	NA	NA	TrialProc	TrialList	0	17	383116	16	0	16	380983	0	1	{RIGHTARROW}	-999999	0	382616	0	{RIGHTARROW}	483	383099	NA	NA	right	ooroo.bmp	354	0	NA	0	0	0	0	NA	0	0	0	NA	0	0	0	0	NA	0	0	6	1	66
Arrow Flanker 2014	12049	1	"<?xml version=""1.0""?>\n<Clock xmlns:dt=""urn:schemas-microsoft-com:datatypes""><Description dt:dt=""string"">E-Prime Primary Realtime Clock</Description><StartTime><Timestamp dt:dt=""int"">0</Timestamp><DateUtc dt:dt=""string"">2015-03-03T15:10:36Z</DateUtc></StartTime><FrequencyChanges><FrequencyChange><Frequency dt:dt=""r8"">2825654</Frequency><Timestamp dt:dt=""r8"">2064957387</Timestamp><Current dt:dt=""r8"">0</Current><DateUtc dt:dt=""string"">2015-03-03T15:10:36Z</DateUtc></FrequencyChange></FrequencyChanges></Clock>\n"	Arrow Flanker 2014-12049-1	60.018	1.0.0.91	1	2065501684	Professional	2.0.10.353	2.0.10.353	03-03-2015	3/3/2015 3:10:36 PM	10:10:36	2.0.10.248	3	1	1	1	NA	NA	NA	NA	NA	NA	NA	NA	NA	NA	NA	NA	NA	NA	NA	NA	NA	NA	NA	NA	NA	NA	NA	NA	BlockProc	BlockList	NA	67	{RIGHTARROW}	NA	-100	1146	neutral	NA	NA	NA	NA	NA	NA	NA	NA	NA	NA	NA	NA	NA	NA	NA	NA	NA	NA	NA	NA	NA	NA	TrialProc	TrialList	0	7	385282	16	0	17	383649	0	1	{RIGHTARROW}	-999999	0	384815	0	{RIGHTARROW}	460	385275	NA	NA	right	ooroo.bmp	354	0	NA	0	0	0	0	NA	0	0	0	NA	0	0	0	0	NA	0	0	6	1	67
Arrow Flanker 2014	12049	1	"<?xml version=""1.0""?>\n<Clock xmlns:dt=""urn:schemas-microsoft-com:datatypes""><Description dt:dt=""string"">E-Prime Primary Realtime Clock</Description><StartTime><Timestamp dt:dt=""int"">0</Timestamp><DateUtc dt:dt=""string"">2015-03-03T15:10:36Z</DateUtc></StartTime><FrequencyChanges><FrequencyChange><Frequency dt:dt=""r8"">2825654</Frequency><Timestamp dt:dt=""r8"">2064957387</Timestamp><Current dt:dt=""r8"">0</Current><DateUtc dt:dt=""string"">2015-03-03T15:10:36Z</DateUtc></FrequencyChange></FrequencyChanges></Clock>\n"	Arrow Flanker 2014-12049-1	60.018	1.0.0.91	1	2065501684	Professional	2.0.10.353	2.0.10.353	03-03-2015	3/3/2015 3:10:36 PM	10:10:36	2.0.10.248	3	1	1	1	NA	NA	NA	NA	NA	NA	NA	NA	NA	NA	NA	NA	NA	NA	NA	NA	NA	NA	NA	NA	NA	NA	NA	NA	BlockProc	BlockList	NA	68	{RIGHTARROW}	NA	-100	1990	neutral	NA	NA	NA	NA	NA	NA	NA	NA	NA	NA	NA	NA	NA	NA	NA	NA	NA	NA	NA	NA	NA	NA	TrialProc	TrialList	0	11	388198	16	0	17	385815	0	1	{RIGHTARROW}	-999999	0	387698	0	{RIGHTARROW}	489	388187	NA	NA	right	ooroo.bmp	354	0	NA	0	0	0	0	NA	0	0	0	NA	0	0	0	0	NA	0	0	6	1	68
Arrow Flanker 2014	12049	1	"<?xml version=""1.0""?>\n<Clock xmlns:dt=""urn:schemas-microsoft-com:datatypes""><Description dt:dt=""string"">E-Prime Primary Realtime Clock</Description><StartTime><Timestamp dt:dt=""int"">0</Timestamp><DateUtc dt:dt=""string"">2015-03-03T15:10:36Z</DateUtc></StartTime><FrequencyChanges><FrequencyChange><Frequency dt:dt=""r8"">2825654</Frequency><Timestamp dt:dt=""r8"">2064957387</Timestamp><Current dt:dt=""r8"">0</Current><DateUtc dt:dt=""string"">2015-03-03T15:10:36Z</DateUtc></FrequencyChange></FrequencyChanges></Clock>\n"	Arrow Flanker 2014-12049-1	60.018	1.0.0.91	1	2065501684	Professional	2.0.10.353	2.0.10.353	03-03-2015	3/3/2015 3:10:36 PM	10:10:36	2.0.10.248	3	1	1	1	NA	NA	NA	NA	NA	NA	NA	NA	NA	NA	NA	NA	NA	NA	NA	NA	NA	NA	NA	NA	NA	NA	NA	NA	BlockProc	BlockList	NA	69	{RIGHTARROW}	NA	-100	2141	congruent	NA	NA	NA	NA	NA	NA	NA	NA	NA	NA	NA	NA	NA	NA	NA	NA	NA	NA	NA	NA	NA	NA	TrialProc	TrialList	1	4	390863	17	0	17	388731	0	1	{RIGHTARROW}	-999999	0	390430	0	{RIGHTARROW}	429	390859	NA	NA	right	rrrrr.bmp	354	0	NA	0	0	0	0	NA	0	0	0	NA	0	0	0	0	NA	0	0	2	1	69
Arrow Flanker 2014	12049	1	"<?xml version=""1.0""?>\n<Clock xmlns:dt=""urn:schemas-microsoft-com:datatypes""><Description dt:dt=""string"">E-Prime Primary Realtime Clock</Description><StartTime><Timestamp dt:dt=""int"">0</Timestamp><DateUtc dt:dt=""string"">2015-03-03T15:10:36Z</DateUtc></StartTime><FrequencyChanges><FrequencyChange><Frequency dt:dt=""r8"">2825654</Frequency><Timestamp dt:dt=""r8"">2064957387</Timestamp><Current dt:dt=""r8"">0</Current><DateUtc dt:dt=""string"">2015-03-03T15:10:36Z</DateUtc></FrequencyChange></FrequencyChanges></Clock>\n"	Arrow Flanker 2014-12049-1	60.018	1.0.0.91	1	2065501684	Professional	2.0.10.353	2.0.10.353	03-03-2015	3/3/2015 3:10:36 PM	10:10:36	2.0.10.248	3	1	1	1	NA	NA	NA	NA	NA	NA	NA	NA	NA	NA	NA	NA	NA	NA	NA	NA	NA	NA	NA	NA	NA	NA	NA	NA	BlockProc	BlockList	NA	70	{RIGHTARROW}	NA	-100	2009	neutral	NA	NA	NA	NA	NA	NA	NA	NA	NA	NA	NA	NA	NA	NA	NA	NA	NA	NA	NA	NA	2	1	TrialProc	TrialList	0	4	393647	16	0	17	391397	0	1	{RIGHTARROW}	-999999	0	393246	0	{RIGHTARROW}	397	393643	NA	NA	right	ooroo.bmp	354	0	NA	-999999	16	394179	0	1	2032	396211	0	NA	-999999	18	396229	0	1	1758	397987	6	1	70
Arrow Flanker 2014	12049	1	"<?xml version=""1.0""?>\n<Clock xmlns:dt=""urn:schemas-microsoft-com:datatypes""><Description dt:dt=""string"">E-Prime Primary Realtime Clock</Description><StartTime><Timestamp dt:dt=""int"">0</Timestamp><DateUtc dt:dt=""string"">2015-03-03T15:10:36Z</DateUtc></StartTime><FrequencyChanges><FrequencyChange><Frequency dt:dt=""r8"">2825654</Frequency><Timestamp dt:dt=""r8"">2064957387</Timestamp><Current dt:dt=""r8"">0</Current><DateUtc dt:dt=""string"">2015-03-03T15:10:36Z</DateUtc></FrequencyChange></FrequencyChanges></Clock>\n"	Arrow Flanker 2014-12049-1	60.018	1.0.0.91	1	2065501684	Professional	2.0.10.353	2.0.10.353	03-03-2015	3/3/2015 3:10:36 PM	10:10:36	2.0.10.248	3	1	1	1	NA	NA	NA	NA	NA	NA	NA	NA	NA	NA	NA	NA	NA	NA	NA	NA	NA	NA	NA	NA	NA	NA	NA	NA	BlockProc	BlockList	NA	71	{RIGHTARROW}	NA	-100	2661	congruent	NA	NA	NA	NA	NA	NA	NA	NA	NA	NA	NA	NA	NA	NA	NA	NA	NA	NA	NA	NA	NA	NA	TrialProc	TrialList	0	12	403110	17	0	6	400544	0	1	{RIGHTARROW}	-999999	0	402593	0	{RIGHTARROW}	505	403098	NA	NA	right	rrrrr.bmp	354	0	NA	0	0	0	0	NA	0	0	0	NA	0	0	0	0	NA	0	0	2	1	71
Arrow Flanker 2014	12049	1	"<?xml version=""1.0""?>\n<Clock xmlns:dt=""urn:schemas-microsoft-com:datatypes""><Description dt:dt=""string"">E-Prime Primary Realtime Clock</Description><StartTime><Timestamp dt:dt=""int"">0</Timestamp><DateUtc dt:dt=""string"">2015-03-03T15:10:36Z</DateUtc></StartTime><FrequencyChanges><FrequencyChange><Frequency dt:dt=""r8"">2825654</Frequency><Timestamp dt:dt=""r8"">2064957387</Timestamp><Current dt:dt=""r8"">0</Current><DateUtc dt:dt=""string"">2015-03-03T15:10:36Z</DateUtc></FrequencyChange></FrequencyChanges></Clock>\n"	Arrow Flanker 2014-12049-1	60.018	1.0.0.91	1	2065501684	Professional	2.0.10.353	2.0.10.353	03-03-2015	3/3/2015 3:10:36 PM	10:10:36	2.0.10.248	3	1	1	1	NA	NA	NA	NA	NA	NA	NA	NA	NA	NA	NA	NA	NA	NA	NA	NA	NA	NA	NA	NA	NA	NA	NA	NA	BlockProc	BlockList	NA	72	{LEFTARROW}	NA	-100	1161	congruent	NA	NA	NA	NA	NA	NA	NA	NA	NA	NA	NA	NA	NA	NA	NA	NA	NA	NA	NA	NA	NA	NA	TrialProc	TrialList	1	7	405009	17	0	16	403643	0	1	{LEFTARROW}	-999999	0	404576	0	{LEFTARROW}	426	405002	NA	NA	left	lllll.bmp	354	0	NA	0	0	0	0	NA	0	0	0	NA	0	0	0	0	NA	0	0	1	1	72
Arrow Flanker 2014	12049	1	"<?xml version=""1.0""?>\n<Clock xmlns:dt=""urn:schemas-microsoft-com:datatypes""><Description dt:dt=""string"">E-Prime Primary Realtime Clock</Description><StartTime><Timestamp dt:dt=""int"">0</Timestamp><DateUtc dt:dt=""string"">2015-03-03T15:10:36Z</DateUtc></StartTime><FrequencyChanges><FrequencyChange><Frequency dt:dt=""r8"">2825654</Frequency><Timestamp dt:dt=""r8"">2064957387</Timestamp><Current dt:dt=""r8"">0</Current><DateUtc dt:dt=""string"">2015-03-03T15:10:36Z</DateUtc></FrequencyChange></FrequencyChanges></Clock>\n"	Arrow Flanker 2014-12049-1	60.018	1.0.0.91	1	2065501684	Professional	2.0.10.353	2.0.10.353	03-03-2015	3/3/2015 3:10:36 PM	10:10:36	2.0.10.248	3	1	1	1	NA	NA	NA	NA	NA	NA	NA	NA	NA	NA	NA	NA	NA	NA	NA	NA	NA	NA	NA	NA	NA	NA	NA	NA	BlockProc	BlockList	NA	73	{LEFTARROW}	NA	-100	1264	incongruent	NA	NA	NA	NA	NA	NA	NA	NA	NA	NA	NA	NA	NA	NA	NA	NA	NA	NA	NA	NA	NA	NA	TrialProc	TrialList	0	9	407059	16	0	16	405542	0	1	{LEFTARROW}	-999999	0	406509	0	{LEFTARROW}	541	407050	NA	NA	left	rrlrr.bmp	354	0	NA	0	0	0	0	NA	0	0	0	NA	0	0	0	0	NA	0	0	3	1	73
