ExperimentName	Subject	Session	Clock.Information	DataFile.Basename	Display.RefreshRate	ExperimentVersion	Group	RandomSeed	RuntimeCapabilities	RuntimeVersion	RuntimeVersionExpected	SessionDate	SessionStartDateTimeUtc	SessionTime	StudioVersion	Block	BlockList	BlockList.Cycle	BlockList.Sample	Both	CompletelyMW	CongMeanRT	CongTotal	Fragmented	GoodByeList	GoodByeList.Cycle	GoodByeList.Sample	IncongMeanRT	IncongTotal	MapBlockList	MapBlockList.Cycle	MapBlockList.Sample	Mindwandering	MostlyMW	MostlyOT	NeutralMeanRT	NeutralTotal	NumberProbes1	NumberProbes2	OnTask	PracBlockList	PracBlockList.Cycle	PracBlockList.Sample	Procedure[Block]	Running[Block]	Sequential	Trial	CorrectAnswer	CuePositionY	CuePositionY2	DurationOfFixation	FlankerType	MapTrialList	MapTrialList.Cycle	MapTrialList.Sample	PracSlideFixationStart.DurationError	PracSlideFixationStart.OnsetDelay	PracSlideFixationStart.OnsetTime	PracSlideFixationStart.OnsetToOnsetTime	PracSlideTarget.ACC	PracSlideTarget.CRESP	PracSlideTarget.DurationError	PracSlideTarget.OnsetDelay	PracSlideTarget.OnsetTime	PracSlideTarget.OnsetToOnsetTime	PracSlideTarget.RESP	PracSlideTarget.RT	PracSlideTarget.RTTime	PracSlideTarget.Tag	PracTrialList	PracTrialList.Cycle	PracTrialList.Sample	Probe1Resp	Probe2Resp	Procedure[Trial]	Running[Trial]	SlideFixationEnd.DurationError	SlideFixationEnd.OnsetDelay	SlideFixationEnd.OnsetTime	SlideFixationEnd.OnsetToOnsetTime	SlideFixationStart.DurationError	SlideFixationStart.OnsetDelay	SlideFixationStart.OnsetTime	SlideFixationStart.OnsetToOnsetTime	SlideTarget.ACC	SlideTarget.CRESP	SlideTarget.DurationError	SlideTarget.OnsetDelay	SlideTarget.OnsetTime	SlideTarget.OnsetToOnsetTime	SlideTarget.RESP	SlideTarget.RT	SlideTarget.RTTime	SlideTarget.Tag	TargerDirection	TargetDirection	TargetImage	TargetPosition	ThoughtProbe1.ACC	ThoughtProbe1.CRESP	ThoughtProbe1.DurationError	ThoughtProbe1.OnsetDelay	ThoughtProbe1.OnsetTime	ThoughtProbe1.OnsetToOnsetTime	ThoughtProbe1.RESP	ThoughtProbe1.RT	ThoughtProbe1.RTTime	ThoughtProbe2.ACC	ThoughtProbe2.CRESP	ThoughtProbe2.DurationError	ThoughtProbe2.OnsetDelay	ThoughtProbe2.OnsetTime	ThoughtProbe2.OnsetToOnsetTime	ThoughtProbe2.RESP	ThoughtProbe2.RT	ThoughtProbe2.RTTime	TrialList	TrialList.Cycle	TrialList.Sample
Arrow Flanker 2014	12057	1	"<?xml version=""1.0""?>\n<Clock xmlns:dt=""urn:schemas-microsoft-com:datatypes""><Description dt:dt=""string"">E-Prime Primary Realtime Clock</Description><StartTime><Timestamp dt:dt=""int"">0</Timestamp><DateUtc dt:dt=""string"">2015-03-03T22:07:38Z</DateUtc></StartTime><FrequencyChanges><FrequencyChange><Frequency dt:dt=""r8"">2825634</Frequency><Timestamp dt:dt=""r8"">1121530378623</Timestamp><Current dt:dt=""r8"">0</Current><DateUtc dt:dt=""string"">2015-03-03T22:07:38Z</DateUtc></FrequencyChange></FrequencyChanges></Clock>\n"	Arrow Flanker 2014-12057-1	60.017	1.0.0.91	1	544454017	Professional	2.0.10.353	2.0.10.353	03-03-2015	NA	17:07:39	2.0.10.248	1	NA	NA	NA	NA	NA	NA	NA	NA	NA	NA	NA	NA	NA	1	1	1	NA	NA	NA	NA	NA	NA	NA	NA	NA	NA	NA	MapBlockProc	MapBlockList	NA	1	{RIGHTARROW}	-100	NA	1238	NA	2	1	1	0	16	145072	1250	1	{RIGHTARROW}	-999999	0	146822	0	{RIGHTARROW}	570	147392	NA	NA	NA	NA	NA	NA	MapTrialProc	MapTrialList	NA	NA	NA	NA	NA	NA	NA	NA	NA	NA	NA	NA	NA	NA	NA	NA	NA	NA	right	NA	R.bmp	354	NA	NA	NA	NA	NA	NA	NA	NA	NA	NA	NA	NA	NA	NA	NA	NA	NA	NA	NA	NA	NA
Arrow Flanker 2014	12057	1	"<?xml version=""1.0""?>\n<Clock xmlns:dt=""urn:schemas-microsoft-com:datatypes""><Description dt:dt=""string"">E-Prime Primary Realtime Clock</Description><StartTime><Timestamp dt:dt=""int"">0</Timestamp><DateUtc dt:dt=""string"">2015-03-03T22:07:38Z</DateUtc></StartTime><FrequencyChanges><FrequencyChange><Frequency dt:dt=""r8"">2825634</Frequency><Timestamp dt:dt=""r8"">1121530378623</Timestamp><Current dt:dt=""r8"">0</Current><DateUtc dt:dt=""string"">2015-03-03T22:07:38Z</DateUtc></FrequencyChange></FrequencyChanges></Clock>\n"	Arrow Flanker 2014-12057-1	60.017	1.0.0.91	1	544454017	Professional	2.0.10.353	2.0.10.353	03-03-2015	NA	17:07:39	2.0.10.248	1	NA	NA	NA	NA	NA	NA	NA	NA	NA	NA	NA	NA	NA	1	1	1	NA	NA	NA	NA	NA	NA	NA	NA	NA	NA	NA	MapBlockProc	MapBlockList	NA	2	{RIGHTARROW}	-100	NA	810	NA	2	1	2	0	17	148938	816	1	{RIGHTARROW}	-999999	0	150254	0	{RIGHTARROW}	578	150832	NA	NA	NA	NA	NA	NA	MapTrialProc	MapTrialList	NA	NA	NA	NA	NA	NA	NA	NA	NA	NA	NA	NA	NA	NA	NA	NA	NA	NA	right	NA	R.bmp	354	NA	NA	NA	NA	NA	NA	NA	NA	NA	NA	NA	NA	NA	NA	NA	NA	NA	NA	NA	NA	NA
Arrow Flanker 2014	12057	1	"<?xml version=""1.0""?>\n<Clock xmlns:dt=""urn:schemas-microsoft-com:datatypes""><Description dt:dt=""string"">E-Prime Primary Realtime Clock</Description><StartTime><Timestamp dt:dt=""int"">0</Timestamp><DateUtc dt:dt=""string"">2015-03-03T22:07:38Z</DateUtc></StartTime><FrequencyChanges><FrequencyChange><Frequency dt:dt=""r8"">2825634</Frequency><Timestamp dt:dt=""r8"">1121530378623</Timestamp><Current dt:dt=""r8"">0</Current><DateUtc dt:dt=""string"">2015-03-03T22:07:38Z</DateUtc></FrequencyChange></FrequencyChanges></Clock>\n"	Arrow Flanker 2014-12057-1	60.017	1.0.0.91	1	544454017	Professional	2.0.10.353	2.0.10.353	03-03-2015	NA	17:07:39	2.0.10.248	1	NA	NA	NA	NA	NA	NA	NA	NA	NA	NA	NA	NA	NA	1	1	1	NA	NA	NA	NA	NA	NA	NA	NA	NA	NA	NA	MapBlockProc	MapBlockList	NA	3	{LEFTARROW}	-100	NA	834	NA	1	1	3	0	16	152370	850	1	{LEFTARROW}	-999999	0	153720	0	{LEFTARROW}	440	154160	NA	NA	NA	NA	NA	NA	MapTrialProc	MapTrialList	NA	NA	NA	NA	NA	NA	NA	NA	NA	NA	NA	NA	NA	NA	NA	NA	NA	NA	left	NA	L.bmp	354	NA	NA	NA	NA	NA	NA	NA	NA	NA	NA	NA	NA	NA	NA	NA	NA	NA	NA	NA	NA	NA
Arrow Flanker 2014	12057	1	"<?xml version=""1.0""?>\n<Clock xmlns:dt=""urn:schemas-microsoft-com:datatypes""><Description dt:dt=""string"">E-Prime Primary Realtime Clock</Description><StartTime><Timestamp dt:dt=""int"">0</Timestamp><DateUtc dt:dt=""string"">2015-03-03T22:07:38Z</DateUtc></StartTime><FrequencyChanges><FrequencyChange><Frequency dt:dt=""r8"">2825634</Frequency><Timestamp dt:dt=""r8"">1121530378623</Timestamp><Current dt:dt=""r8"">0</Current><DateUtc dt:dt=""string"">2015-03-03T22:07:38Z</DateUtc></FrequencyChange></FrequencyChanges></Clock>\n"	Arrow Flanker 2014-12057-1	60.017	1.0.0.91	1	544454017	Professional	2.0.10.353	2.0.10.353	03-03-2015	NA	17:07:39	2.0.10.248	1	NA	NA	NA	NA	NA	NA	NA	NA	NA	NA	NA	NA	NA	1	1	1	NA	NA	NA	NA	NA	NA	NA	NA	NA	NA	NA	MapBlockProc	MapBlockList	NA	4	{LEFTARROW}	-100	NA	859	NA	1	1	4	0	16	155702	867	1	{LEFTARROW}	-999999	0	157069	0	{LEFTARROW}	419	157488	NA	NA	NA	NA	NA	NA	MapTrialProc	MapTrialList	NA	NA	NA	NA	NA	NA	NA	NA	NA	NA	NA	NA	NA	NA	NA	NA	NA	NA	left	NA	L.bmp	354	NA	NA	NA	NA	NA	NA	NA	NA	NA	NA	NA	NA	NA	NA	NA	NA	NA	NA	NA	NA	NA
Arrow Flanker 2014	12057	1	"<?xml version=""1.0""?>\n<Clock xmlns:dt=""urn:schemas-microsoft-com:datatypes""><Description dt:dt=""string"">E-Prime Primary Realtime Clock</Description><StartTime><Timestamp dt:dt=""int"">0</Timestamp><DateUtc dt:dt=""string"">2015-03-03T22:07:38Z</DateUtc></StartTime><FrequencyChanges><FrequencyChange><Frequency dt:dt=""r8"">2825634</Frequency><Timestamp dt:dt=""r8"">1121530378623</Timestamp><Current dt:dt=""r8"">0</Current><DateUtc dt:dt=""string"">2015-03-03T22:07:38Z</DateUtc></FrequencyChange></FrequencyChanges></Clock>\n"	Arrow Flanker 2014-12057-1	60.017	1.0.0.91	1	544454017	Professional	2.0.10.353	2.0.10.353	03-03-2015	NA	17:07:39	2.0.10.248	1	NA	NA	NA	NA	NA	NA	NA	NA	NA	NA	NA	NA	NA	1	1	1	NA	NA	NA	NA	NA	NA	NA	NA	NA	NA	NA	MapBlockProc	MapBlockList	NA	5	{LEFTARROW}	-100	NA	763	NA	1	1	5	0	16	159018	766	1	{LEFTARROW}	-999999	0	160284	0	{LEFTARROW}	388	160672	NA	NA	NA	NA	NA	NA	MapTrialProc	MapTrialList	NA	NA	NA	NA	NA	NA	NA	NA	NA	NA	NA	NA	NA	NA	NA	NA	NA	NA	left	NA	L.bmp	354	NA	NA	NA	NA	NA	NA	NA	NA	NA	NA	NA	NA	NA	NA	NA	NA	NA	NA	NA	NA	NA
Arrow Flanker 2014	12057	1	"<?xml version=""1.0""?>\n<Clock xmlns:dt=""urn:schemas-microsoft-com:datatypes""><Description dt:dt=""string"">E-Prime Primary Realtime Clock</Description><StartTime><Timestamp dt:dt=""int"">0</Timestamp><DateUtc dt:dt=""string"">2015-03-03T22:07:38Z</DateUtc></StartTime><FrequencyChanges><FrequencyChange><Frequency dt:dt=""r8"">2825634</Frequency><Timestamp dt:dt=""r8"">1121530378623</Timestamp><Current dt:dt=""r8"">0</Current><DateUtc dt:dt=""string"">2015-03-03T22:07:38Z</DateUtc></FrequencyChange></FrequencyChanges></Clock>\n"	Arrow Flanker 2014-12057-1	60.017	1.0.0.91	1	544454017	Professional	2.0.10.353	2.0.10.353	03-03-2015	NA	17:07:39	2.0.10.248	1	NA	NA	NA	NA	NA	NA	NA	NA	NA	NA	NA	NA	NA	1	1	1	NA	NA	NA	NA	NA	NA	NA	NA	NA	NA	NA	MapBlockProc	MapBlockList	NA	6	{RIGHTARROW}	-100	NA	857	NA	2	1	6	0	16	162200	867	1	{RIGHTARROW}	-999999	0	163567	0	{RIGHTARROW}	448	164015	NA	NA	NA	NA	NA	NA	MapTrialProc	MapTrialList	NA	NA	NA	NA	NA	NA	NA	NA	NA	NA	NA	NA	NA	NA	NA	NA	NA	NA	right	NA	R.bmp	354	NA	NA	NA	NA	NA	NA	NA	NA	NA	NA	NA	NA	NA	NA	NA	NA	NA	NA	NA	NA	NA
Arrow Flanker 2014	12057	1	"<?xml version=""1.0""?>\n<Clock xmlns:dt=""urn:schemas-microsoft-com:datatypes""><Description dt:dt=""string"">E-Prime Primary Realtime Clock</Description><StartTime><Timestamp dt:dt=""int"">0</Timestamp><DateUtc dt:dt=""string"">2015-03-03T22:07:38Z</DateUtc></StartTime><FrequencyChanges><FrequencyChange><Frequency dt:dt=""r8"">2825634</Frequency><Timestamp dt:dt=""r8"">1121530378623</Timestamp><Current dt:dt=""r8"">0</Current><DateUtc dt:dt=""string"">2015-03-03T22:07:38Z</DateUtc></FrequencyChange></FrequencyChanges></Clock>\n"	Arrow Flanker 2014-12057-1	60.017	1.0.0.91	1	544454017	Professional	2.0.10.353	2.0.10.353	03-03-2015	NA	17:07:39	2.0.10.248	1	NA	NA	NA	NA	NA	NA	NA	NA	NA	NA	NA	NA	NA	1	1	1	NA	NA	NA	NA	NA	NA	NA	NA	NA	NA	NA	MapBlockProc	MapBlockList	NA	7	{RIGHTARROW}	-100	NA	1349	NA	2	1	7	0	16	165549	1350	1	{RIGHTARROW}	-999999	0	167399	0	{RIGHTARROW}	504	167903	NA	NA	NA	NA	NA	NA	MapTrialProc	MapTrialList	NA	NA	NA	NA	NA	NA	NA	NA	NA	NA	NA	NA	NA	NA	NA	NA	NA	NA	right	NA	R.bmp	354	NA	NA	NA	NA	NA	NA	NA	NA	NA	NA	NA	NA	NA	NA	NA	NA	NA	NA	NA	NA	NA
Arrow Flanker 2014	12057	1	"<?xml version=""1.0""?>\n<Clock xmlns:dt=""urn:schemas-microsoft-com:datatypes""><Description dt:dt=""string"">E-Prime Primary Realtime Clock</Description><StartTime><Timestamp dt:dt=""int"">0</Timestamp><DateUtc dt:dt=""string"">2015-03-03T22:07:38Z</DateUtc></StartTime><FrequencyChanges><FrequencyChange><Frequency dt:dt=""r8"">2825634</Frequency><Timestamp dt:dt=""r8"">1121530378623</Timestamp><Current dt:dt=""r8"">0</Current><DateUtc dt:dt=""string"">2015-03-03T22:07:38Z</DateUtc></FrequencyChange></FrequencyChanges></Clock>\n"	Arrow Flanker 2014-12057-1	60.017	1.0.0.91	1	544454017	Professional	2.0.10.353	2.0.10.353	03-03-2015	NA	17:07:39	2.0.10.248	1	NA	NA	NA	NA	NA	NA	NA	NA	NA	NA	NA	NA	NA	1	1	1	NA	NA	NA	NA	NA	NA	NA	NA	NA	NA	NA	MapBlockProc	MapBlockList	NA	8	{LEFTARROW}	-100	NA	511	NA	1	1	8	0	17	169432	516	1	{LEFTARROW}	-999999	0	170448	0	{LEFTARROW}	479	170927	NA	NA	NA	NA	NA	NA	MapTrialProc	MapTrialList	NA	NA	NA	NA	NA	NA	NA	NA	NA	NA	NA	NA	NA	NA	NA	NA	NA	NA	left	NA	L.bmp	354	NA	NA	NA	NA	NA	NA	NA	NA	NA	NA	NA	NA	NA	NA	NA	NA	NA	NA	NA	NA	NA
Arrow Flanker 2014	12057	1	"<?xml version=""1.0""?>\n<Clock xmlns:dt=""urn:schemas-microsoft-com:datatypes""><Description dt:dt=""string"">E-Prime Primary Realtime Clock</Description><StartTime><Timestamp dt:dt=""int"">0</Timestamp><DateUtc dt:dt=""string"">2015-03-03T22:07:38Z</DateUtc></StartTime><FrequencyChanges><FrequencyChange><Frequency dt:dt=""r8"">2825634</Frequency><Timestamp dt:dt=""r8"">1121530378623</Timestamp><Current dt:dt=""r8"">0</Current><DateUtc dt:dt=""string"">2015-03-03T22:07:38Z</DateUtc></FrequencyChange></FrequencyChanges></Clock>\n"	Arrow Flanker 2014-12057-1	60.017	1.0.0.91	1	544454017	Professional	2.0.10.353	2.0.10.353	03-03-2015	NA	17:07:39	2.0.10.248	1	NA	NA	NA	NA	NA	NA	NA	NA	NA	NA	NA	NA	NA	1	1	1	NA	NA	NA	NA	NA	NA	NA	NA	NA	NA	NA	MapBlockProc	MapBlockList	NA	9	{RIGHTARROW}	-100	NA	1318	NA	2	1	9	0	16	172464	1333	1	{RIGHTARROW}	-999999	0	174297	0	{RIGHTARROW}	454	174751	NA	NA	NA	NA	NA	NA	MapTrialProc	MapTrialList	NA	NA	NA	NA	NA	NA	NA	NA	NA	NA	NA	NA	NA	NA	NA	NA	NA	NA	right	NA	R.bmp	354	NA	NA	NA	NA	NA	NA	NA	NA	NA	NA	NA	NA	NA	NA	NA	NA	NA	NA	NA	NA	NA
Arrow Flanker 2014	12057	1	"<?xml version=""1.0""?>\n<Clock xmlns:dt=""urn:schemas-microsoft-com:datatypes""><Description dt:dt=""string"">E-Prime Primary Realtime Clock</Description><StartTime><Timestamp dt:dt=""int"">0</Timestamp><DateUtc dt:dt=""string"">2015-03-03T22:07:38Z</DateUtc></StartTime><FrequencyChanges><FrequencyChange><Frequency dt:dt=""r8"">2825634</Frequency><Timestamp dt:dt=""r8"">1121530378623</Timestamp><Current dt:dt=""r8"">0</Current><DateUtc dt:dt=""string"">2015-03-03T22:07:38Z</DateUtc></FrequencyChange></FrequencyChanges></Clock>\n"	Arrow Flanker 2014-12057-1	60.017	1.0.0.91	1	544454017	Professional	2.0.10.353	2.0.10.353	03-03-2015	NA	17:07:39	2.0.10.248	1	NA	NA	NA	NA	NA	NA	NA	NA	NA	NA	NA	NA	NA	1	1	1	NA	NA	NA	NA	NA	NA	NA	NA	NA	NA	NA	MapBlockProc	MapBlockList	NA	10	{LEFTARROW}	-100	NA	858	NA	1	1	10	0	17	176280	866	1	{LEFTARROW}	-999999	0	177646	0	{LEFTARROW}	529	178175	NA	NA	NA	NA	NA	NA	MapTrialProc	MapTrialList	NA	NA	NA	NA	NA	NA	NA	NA	NA	NA	NA	NA	NA	NA	NA	NA	NA	NA	left	NA	L.bmp	354	NA	NA	NA	NA	NA	NA	NA	NA	NA	NA	NA	NA	NA	NA	NA	NA	NA	NA	NA	NA	NA
Arrow Flanker 2014	12057	1	"<?xml version=""1.0""?>\n<Clock xmlns:dt=""urn:schemas-microsoft-com:datatypes""><Description dt:dt=""string"">E-Prime Primary Realtime Clock</Description><StartTime><Timestamp dt:dt=""int"">0</Timestamp><DateUtc dt:dt=""string"">2015-03-03T22:07:38Z</DateUtc></StartTime><FrequencyChanges><FrequencyChange><Frequency dt:dt=""r8"">2825634</Frequency><Timestamp dt:dt=""r8"">1121530378623</Timestamp><Current dt:dt=""r8"">0</Current><DateUtc dt:dt=""string"">2015-03-03T22:07:38Z</DateUtc></FrequencyChange></FrequencyChanges></Clock>\n"	Arrow Flanker 2014-12057-1	60.017	1.0.0.91	1	544454017	Professional	2.0.10.353	2.0.10.353	03-03-2015	NA	17:07:39	2.0.10.248	2	NA	NA	NA	NA	NA	NA	NA	NA	NA	NA	NA	NA	NA	NA	NA	NA	NA	NA	NA	NA	NA	NA	NA	NA	1	1	1	PracBlockProc	PracBlockList	NA	1	{LEFTARROW}	-100	NA	1519	neutral	NA	NA	NA	0	17	199823	1533	1	{LEFTARROW}	-999999	0	201856	0	{LEFTARROW}	605	202461	NA	3	1	1	NA	NA	PracTrialProc	PracTrialList	NA	NA	NA	NA	NA	NA	NA	NA	NA	NA	NA	NA	NA	NA	NA	NA	NA	NA	left	NA	ooloo.bmp	354	NA	NA	NA	NA	NA	NA	NA	NA	NA	NA	NA	NA	NA	NA	NA	NA	NA	NA	NA	NA	NA
Arrow Flanker 2014	12057	1	"<?xml version=""1.0""?>\n<Clock xmlns:dt=""urn:schemas-microsoft-com:datatypes""><Description dt:dt=""string"">E-Prime Primary Realtime Clock</Description><StartTime><Timestamp dt:dt=""int"">0</Timestamp><DateUtc dt:dt=""string"">2015-03-03T22:07:38Z</DateUtc></StartTime><FrequencyChanges><FrequencyChange><Frequency dt:dt=""r8"">2825634</Frequency><Timestamp dt:dt=""r8"">1121530378623</Timestamp><Current dt:dt=""r8"">0</Current><DateUtc dt:dt=""string"">2015-03-03T22:07:38Z</DateUtc></FrequencyChange></FrequencyChanges></Clock>\n"	Arrow Flanker 2014-12057-1	60.017	1.0.0.91	1	544454017	Professional	2.0.10.353	2.0.10.353	03-03-2015	NA	17:07:39	2.0.10.248	2	NA	NA	NA	NA	NA	NA	NA	NA	NA	NA	NA	NA	NA	NA	NA	NA	NA	NA	NA	NA	NA	NA	NA	NA	1	1	1	PracBlockProc	PracBlockList	NA	2	{RIGHTARROW}	-100	NA	535	congruent	NA	NA	NA	0	16	203988	550	1	{RIGHTARROW}	-999999	0	205038	0	{RIGHTARROW}	559	205597	NA	4	1	2	NA	NA	PracTrialProc	PracTrialList	NA	NA	NA	NA	NA	NA	NA	NA	NA	NA	NA	NA	NA	NA	NA	NA	NA	NA	right	NA	rrrrr.bmp	354	NA	NA	NA	NA	NA	NA	NA	NA	NA	NA	NA	NA	NA	NA	NA	NA	NA	NA	NA	NA	NA
Arrow Flanker 2014	12057	1	"<?xml version=""1.0""?>\n<Clock xmlns:dt=""urn:schemas-microsoft-com:datatypes""><Description dt:dt=""string"">E-Prime Primary Realtime Clock</Description><StartTime><Timestamp dt:dt=""int"">0</Timestamp><DateUtc dt:dt=""string"">2015-03-03T22:07:38Z</DateUtc></StartTime><FrequencyChanges><FrequencyChange><Frequency dt:dt=""r8"">2825634</Frequency><Timestamp dt:dt=""r8"">1121530378623</Timestamp><Current dt:dt=""r8"">0</Current><DateUtc dt:dt=""string"">2015-03-03T22:07:38Z</DateUtc></FrequencyChange></FrequencyChanges></Clock>\n"	Arrow Flanker 2014-12057-1	60.017	1.0.0.91	1	544454017	Professional	2.0.10.353	2.0.10.353	03-03-2015	NA	17:07:39	2.0.10.248	2	NA	NA	NA	NA	NA	NA	NA	NA	NA	NA	NA	NA	NA	NA	NA	NA	NA	NA	NA	NA	NA	NA	NA	NA	1	1	1	PracBlockProc	PracBlockList	NA	3	{RIGHTARROW}	-100	NA	742	incongruent	NA	NA	NA	0	16	207137	750	1	{RIGHTARROW}	-999999	0	208387	0	{RIGHTARROW}	698	209085	NA	5	1	3	NA	NA	PracTrialProc	PracTrialList	NA	NA	NA	NA	NA	NA	NA	NA	NA	NA	NA	NA	NA	NA	NA	NA	NA	NA	right	NA	llrll.bmp	354	NA	NA	NA	NA	NA	NA	NA	NA	NA	NA	NA	NA	NA	NA	NA	NA	NA	NA	NA	NA	NA
Arrow Flanker 2014	12057	1	"<?xml version=""1.0""?>\n<Clock xmlns:dt=""urn:schemas-microsoft-com:datatypes""><Description dt:dt=""string"">E-Prime Primary Realtime Clock</Description><StartTime><Timestamp dt:dt=""int"">0</Timestamp><DateUtc dt:dt=""string"">2015-03-03T22:07:38Z</DateUtc></StartTime><FrequencyChanges><FrequencyChange><Frequency dt:dt=""r8"">2825634</Frequency><Timestamp dt:dt=""r8"">1121530378623</Timestamp><Current dt:dt=""r8"">0</Current><DateUtc dt:dt=""string"">2015-03-03T22:07:38Z</DateUtc></FrequencyChange></FrequencyChanges></Clock>\n"	Arrow Flanker 2014-12057-1	60.017	1.0.0.91	1	544454017	Professional	2.0.10.353	2.0.10.353	03-03-2015	NA	17:07:39	2.0.10.248	2	NA	NA	NA	NA	NA	NA	NA	NA	NA	NA	NA	NA	NA	NA	NA	NA	NA	NA	NA	NA	NA	NA	NA	NA	1	1	1	PracBlockProc	PracBlockList	NA	4	{RIGHTARROW}	-100	NA	734	neutral	NA	NA	NA	0	16	210620	750	1	{RIGHTARROW}	-999999	16	211886	0	{RIGHTARROW}	511	212397	NA	6	1	4	NA	NA	PracTrialProc	PracTrialList	NA	NA	NA	NA	NA	NA	NA	NA	NA	NA	NA	NA	NA	NA	NA	NA	NA	NA	right	NA	ooroo.bmp	354	NA	NA	NA	NA	NA	NA	NA	NA	NA	NA	NA	NA	NA	NA	NA	NA	NA	NA	NA	NA	NA
Arrow Flanker 2014	12057	1	"<?xml version=""1.0""?>\n<Clock xmlns:dt=""urn:schemas-microsoft-com:datatypes""><Description dt:dt=""string"">E-Prime Primary Realtime Clock</Description><StartTime><Timestamp dt:dt=""int"">0</Timestamp><DateUtc dt:dt=""string"">2015-03-03T22:07:38Z</DateUtc></StartTime><FrequencyChanges><FrequencyChange><Frequency dt:dt=""r8"">2825634</Frequency><Timestamp dt:dt=""r8"">1121530378623</Timestamp><Current dt:dt=""r8"">0</Current><DateUtc dt:dt=""string"">2015-03-03T22:07:38Z</DateUtc></FrequencyChange></FrequencyChanges></Clock>\n"	Arrow Flanker 2014-12057-1	60.017	1.0.0.91	1	544454017	Professional	2.0.10.353	2.0.10.353	03-03-2015	NA	17:07:39	2.0.10.248	2	NA	NA	NA	NA	NA	NA	NA	NA	NA	NA	NA	NA	NA	NA	NA	NA	NA	NA	NA	NA	NA	NA	NA	NA	1	1	1	PracBlockProc	PracBlockList	NA	5	{LEFTARROW}	-100	NA	915	congruent	NA	NA	NA	0	17	213936	916	1	{LEFTARROW}	-999999	0	215352	0	{LEFTARROW}	485	215837	NA	1	1	5	NA	NA	PracTrialProc	PracTrialList	NA	NA	NA	NA	NA	NA	NA	NA	NA	NA	NA	NA	NA	NA	NA	NA	NA	NA	left	NA	lllll.bmp	354	NA	NA	NA	NA	NA	NA	NA	NA	NA	NA	NA	NA	NA	NA	NA	NA	NA	NA	NA	NA	NA
Arrow Flanker 2014	12057	1	"<?xml version=""1.0""?>\n<Clock xmlns:dt=""urn:schemas-microsoft-com:datatypes""><Description dt:dt=""string"">E-Prime Primary Realtime Clock</Description><StartTime><Timestamp dt:dt=""int"">0</Timestamp><DateUtc dt:dt=""string"">2015-03-03T22:07:38Z</DateUtc></StartTime><FrequencyChanges><FrequencyChange><Frequency dt:dt=""r8"">2825634</Frequency><Timestamp dt:dt=""r8"">1121530378623</Timestamp><Current dt:dt=""r8"">0</Current><DateUtc dt:dt=""string"">2015-03-03T22:07:38Z</DateUtc></FrequencyChange></FrequencyChanges></Clock>\n"	Arrow Flanker 2014-12057-1	60.017	1.0.0.91	1	544454017	Professional	2.0.10.353	2.0.10.353	03-03-2015	NA	17:07:39	2.0.10.248	2	NA	NA	NA	NA	NA	NA	NA	NA	NA	NA	NA	NA	NA	NA	NA	NA	NA	NA	NA	NA	NA	NA	NA	NA	1	1	1	PracBlockProc	PracBlockList	NA	6	{LEFTARROW}	-100	NA	831	incongruent	NA	NA	NA	0	16	217368	833	1	{LEFTARROW}	-999999	0	218701	0	{LEFTARROW}	479	219180	NA	2	1	6	NA	NA	PracTrialProc	PracTrialList	NA	NA	NA	NA	NA	NA	NA	NA	NA	NA	NA	NA	NA	NA	NA	NA	NA	NA	left	NA	rrlrr.bmp	354	NA	NA	NA	NA	NA	NA	NA	NA	NA	NA	NA	NA	NA	NA	NA	NA	NA	NA	NA	NA	NA
Arrow Flanker 2014	12057	1	"<?xml version=""1.0""?>\n<Clock xmlns:dt=""urn:schemas-microsoft-com:datatypes""><Description dt:dt=""string"">E-Prime Primary Realtime Clock</Description><StartTime><Timestamp dt:dt=""int"">0</Timestamp><DateUtc dt:dt=""string"">2015-03-03T22:07:38Z</DateUtc></StartTime><FrequencyChanges><FrequencyChange><Frequency dt:dt=""r8"">2825634</Frequency><Timestamp dt:dt=""r8"">1121530378623</Timestamp><Current dt:dt=""r8"">0</Current><DateUtc dt:dt=""string"">2015-03-03T22:07:38Z</DateUtc></FrequencyChange></FrequencyChanges></Clock>\n"	Arrow Flanker 2014-12057-1	60.017	1.0.0.91	1	544454017	Professional	2.0.10.353	2.0.10.353	03-03-2015	NA	17:07:39	2.0.10.248	3	1	1	1	NA	NA	NA	NA	NA	NA	NA	NA	NA	NA	NA	NA	NA	NA	NA	NA	NA	NA	NA	NA	NA	NA	NA	NA	BlockProc	BlockList	NA	1	{LEFTARROW}	NA	-100	1661	congruent	NA	NA	NA	NA	NA	NA	NA	NA	NA	NA	NA	NA	NA	NA	NA	NA	NA	NA	NA	NA	NA	NA	TrialProc	TrialList	0	9	231797	17	0	16	229981	650	1	{LEFTARROW}	-999999	0	231131	0	{LEFTARROW}	657	231788	NA	NA	left	lllll.bmp	354	0	NA	0	0	0	0	NA	0	0	0	NA	0	0	0	0	NA	0	0	1	1	1
Arrow Flanker 2014	12057	1	"<?xml version=""1.0""?>\n<Clock xmlns:dt=""urn:schemas-microsoft-com:datatypes""><Description dt:dt=""string"">E-Prime Primary Realtime Clock</Description><StartTime><Timestamp dt:dt=""int"">0</Timestamp><DateUtc dt:dt=""string"">2015-03-03T22:07:38Z</DateUtc></StartTime><FrequencyChanges><FrequencyChange><Frequency dt:dt=""r8"">2825634</Frequency><Timestamp dt:dt=""r8"">1121530378623</Timestamp><Current dt:dt=""r8"">0</Current><DateUtc dt:dt=""string"">2015-03-03T22:07:38Z</DateUtc></FrequencyChange></FrequencyChanges></Clock>\n"	Arrow Flanker 2014-12057-1	60.017	1.0.0.91	1	544454017	Professional	2.0.10.353	2.0.10.353	03-03-2015	NA	17:07:39	2.0.10.248	3	1	1	1	NA	NA	NA	NA	NA	NA	NA	NA	NA	NA	NA	NA	NA	NA	NA	NA	NA	NA	NA	NA	NA	NA	NA	NA	BlockProc	BlockList	NA	2	{LEFTARROW}	NA	-100	2244	neutral	NA	NA	NA	NA	NA	NA	NA	NA	NA	NA	NA	NA	NA	NA	NA	NA	NA	NA	NA	NA	NA	NA	TrialProc	TrialList	0	13	234713	17	0	16	232330	1400	1	{LEFTARROW}	-999999	0	234230	0	{LEFTARROW}	470	234700	NA	NA	left	ooloo.bmp	354	0	NA	0	0	0	0	NA	0	0	0	NA	0	0	0	0	NA	0	0	5	1	2
Arrow Flanker 2014	12057	1	"<?xml version=""1.0""?>\n<Clock xmlns:dt=""urn:schemas-microsoft-com:datatypes""><Description dt:dt=""string"">E-Prime Primary Realtime Clock</Description><StartTime><Timestamp dt:dt=""int"">0</Timestamp><DateUtc dt:dt=""string"">2015-03-03T22:07:38Z</DateUtc></StartTime><FrequencyChanges><FrequencyChange><Frequency dt:dt=""r8"">2825634</Frequency><Timestamp dt:dt=""r8"">1121530378623</Timestamp><Current dt:dt=""r8"">0</Current><DateUtc dt:dt=""string"">2015-03-03T22:07:38Z</DateUtc></FrequencyChange></FrequencyChanges></Clock>\n"	Arrow Flanker 2014-12057-1	60.017	1.0.0.91	1	544454017	Professional	2.0.10.353	2.0.10.353	03-03-2015	NA	17:07:39	2.0.10.248	3	1	1	1	NA	NA	NA	NA	NA	NA	NA	NA	NA	NA	NA	NA	NA	NA	NA	NA	NA	NA	NA	NA	NA	NA	NA	NA	BlockProc	BlockList	NA	3	{RIGHTARROW}	NA	-100	2405	incongruent	NA	NA	NA	NA	NA	NA	NA	NA	NA	NA	NA	NA	NA	NA	NA	NA	NA	NA	NA	NA	NA	NA	TrialProc	TrialList	1	13	237545	17	0	16	235246	1300	1	{RIGHTARROW}	-999999	0	237046	0	{RIGHTARROW}	485	237531	NA	NA	right	llrll.bmp	354	0	NA	0	0	0	0	NA	0	0	0	NA	0	0	0	0	NA	0	0	4	1	3
Arrow Flanker 2014	12057	1	"<?xml version=""1.0""?>\n<Clock xmlns:dt=""urn:schemas-microsoft-com:datatypes""><Description dt:dt=""string"">E-Prime Primary Realtime Clock</Description><StartTime><Timestamp dt:dt=""int"">0</Timestamp><DateUtc dt:dt=""string"">2015-03-03T22:07:38Z</DateUtc></StartTime><FrequencyChanges><FrequencyChange><Frequency dt:dt=""r8"">2825634</Frequency><Timestamp dt:dt=""r8"">1121530378623</Timestamp><Current dt:dt=""r8"">0</Current><DateUtc dt:dt=""string"">2015-03-03T22:07:38Z</DateUtc></FrequencyChange></FrequencyChanges></Clock>\n"	Arrow Flanker 2014-12057-1	60.017	1.0.0.91	1	544454017	Professional	2.0.10.353	2.0.10.353	03-03-2015	NA	17:07:39	2.0.10.248	3	1	1	1	NA	NA	NA	NA	NA	NA	NA	NA	NA	NA	NA	NA	NA	NA	NA	NA	NA	NA	NA	NA	NA	NA	NA	NA	BlockProc	BlockList	NA	4	{LEFTARROW}	NA	-100	1363	neutral	NA	NA	NA	NA	NA	NA	NA	NA	NA	NA	NA	NA	NA	NA	NA	NA	NA	NA	NA	NA	NA	NA	TrialProc	TrialList	0	20	239728	17	0	16	238078	667	1	{LEFTARROW}	-999999	0	239245	0	{LEFTARROW}	462	239707	NA	NA	left	ooloo.bmp	354	0	NA	0	0	0	0	NA	0	0	0	NA	0	0	0	0	NA	0	0	5	1	4
Arrow Flanker 2014	12057	1	"<?xml version=""1.0""?>\n<Clock xmlns:dt=""urn:schemas-microsoft-com:datatypes""><Description dt:dt=""string"">E-Prime Primary Realtime Clock</Description><StartTime><Timestamp dt:dt=""int"">0</Timestamp><DateUtc dt:dt=""string"">2015-03-03T22:07:38Z</DateUtc></StartTime><FrequencyChanges><FrequencyChange><Frequency dt:dt=""r8"">2825634</Frequency><Timestamp dt:dt=""r8"">1121530378623</Timestamp><Current dt:dt=""r8"">0</Current><DateUtc dt:dt=""string"">2015-03-03T22:07:38Z</DateUtc></FrequencyChange></FrequencyChanges></Clock>\n"	Arrow Flanker 2014-12057-1	60.017	1.0.0.91	1	544454017	Professional	2.0.10.353	2.0.10.353	03-03-2015	NA	17:07:39	2.0.10.248	3	1	1	1	NA	NA	NA	NA	NA	NA	NA	NA	NA	NA	NA	NA	NA	NA	NA	NA	NA	NA	NA	NA	NA	NA	NA	NA	BlockProc	BlockList	NA	5	{LEFTARROW}	NA	-100	1296	neutral	NA	NA	NA	NA	NA	NA	NA	NA	NA	NA	NA	NA	NA	NA	NA	NA	NA	NA	NA	NA	NA	NA	TrialProc	TrialList	0	6	242145	16	0	16	240261	950	1	{LEFTARROW}	-999999	0	241711	0	{LEFTARROW}	428	242139	NA	NA	left	ooloo.bmp	354	0	NA	0	0	0	0	NA	0	0	0	NA	0	0	0	0	NA	0	0	5	1	5
Arrow Flanker 2014	12057	1	"<?xml version=""1.0""?>\n<Clock xmlns:dt=""urn:schemas-microsoft-com:datatypes""><Description dt:dt=""string"">E-Prime Primary Realtime Clock</Description><StartTime><Timestamp dt:dt=""int"">0</Timestamp><DateUtc dt:dt=""string"">2015-03-03T22:07:38Z</DateUtc></StartTime><FrequencyChanges><FrequencyChange><Frequency dt:dt=""r8"">2825634</Frequency><Timestamp dt:dt=""r8"">1121530378623</Timestamp><Current dt:dt=""r8"">0</Current><DateUtc dt:dt=""string"">2015-03-03T22:07:38Z</DateUtc></FrequencyChange></FrequencyChanges></Clock>\n"	Arrow Flanker 2014-12057-1	60.017	1.0.0.91	1	544454017	Professional	2.0.10.353	2.0.10.353	03-03-2015	NA	17:07:39	2.0.10.248	3	1	1	1	NA	NA	NA	NA	NA	NA	NA	NA	NA	NA	NA	NA	NA	NA	NA	NA	NA	NA	NA	NA	NA	NA	NA	NA	BlockProc	BlockList	NA	6	{RIGHTARROW}	NA	-100	1875	congruent	NA	NA	NA	NA	NA	NA	NA	NA	NA	NA	NA	NA	NA	NA	NA	NA	NA	NA	NA	NA	NA	NA	TrialProc	TrialList	0	17	245260	17	0	16	242677	1566	1	{RIGHTARROW}	-999999	0	244743	0	{RIGHTARROW}	500	245243	NA	NA	right	rrrrr.bmp	354	0	NA	0	0	0	0	NA	0	0	0	NA	0	0	0	0	NA	0	0	2	1	6
Arrow Flanker 2014	12057	1	"<?xml version=""1.0""?>\n<Clock xmlns:dt=""urn:schemas-microsoft-com:datatypes""><Description dt:dt=""string"">E-Prime Primary Realtime Clock</Description><StartTime><Timestamp dt:dt=""int"">0</Timestamp><DateUtc dt:dt=""string"">2015-03-03T22:07:38Z</DateUtc></StartTime><FrequencyChanges><FrequencyChange><Frequency dt:dt=""r8"">2825634</Frequency><Timestamp dt:dt=""r8"">1121530378623</Timestamp><Current dt:dt=""r8"">0</Current><DateUtc dt:dt=""string"">2015-03-03T22:07:38Z</DateUtc></FrequencyChange></FrequencyChanges></Clock>\n"	Arrow Flanker 2014-12057-1	60.017	1.0.0.91	1	544454017	Professional	2.0.10.353	2.0.10.353	03-03-2015	NA	17:07:39	2.0.10.248	3	1	1	1	NA	NA	NA	NA	NA	NA	NA	NA	NA	NA	NA	NA	NA	NA	NA	NA	NA	NA	NA	NA	NA	NA	NA	NA	BlockProc	BlockList	NA	7	{RIGHTARROW}	NA	-100	550	neutral	NA	NA	NA	NA	NA	NA	NA	NA	NA	NA	NA	NA	NA	NA	NA	NA	NA	NA	NA	NA	NA	NA	TrialProc	TrialList	0	16	247243	16	0	16	245793	433	1	{RIGHTARROW}	-999999	0	246726	0	{RIGHTARROW}	501	247227	NA	NA	right	ooroo.bmp	354	0	NA	0	0	0	0	NA	0	0	0	NA	0	0	0	0	NA	0	0	6	1	7
Arrow Flanker 2014	12057	1	"<?xml version=""1.0""?>\n<Clock xmlns:dt=""urn:schemas-microsoft-com:datatypes""><Description dt:dt=""string"">E-Prime Primary Realtime Clock</Description><StartTime><Timestamp dt:dt=""int"">0</Timestamp><DateUtc dt:dt=""string"">2015-03-03T22:07:38Z</DateUtc></StartTime><FrequencyChanges><FrequencyChange><Frequency dt:dt=""r8"">2825634</Frequency><Timestamp dt:dt=""r8"">1121530378623</Timestamp><Current dt:dt=""r8"">0</Current><DateUtc dt:dt=""string"">2015-03-03T22:07:38Z</DateUtc></FrequencyChange></FrequencyChanges></Clock>\n"	Arrow Flanker 2014-12057-1	60.017	1.0.0.91	1	544454017	Professional	2.0.10.353	2.0.10.353	03-03-2015	NA	17:07:39	2.0.10.248	3	1	1	1	NA	NA	NA	NA	NA	NA	NA	NA	NA	NA	NA	NA	NA	NA	NA	NA	NA	NA	NA	NA	NA	NA	NA	NA	BlockProc	BlockList	NA	8	{LEFTARROW}	NA	-100	981	neutral	NA	NA	NA	NA	NA	NA	NA	NA	NA	NA	NA	NA	NA	NA	NA	NA	NA	NA	NA	NA	NA	NA	TrialProc	TrialList	0	12	249159	16	0	17	247776	433	1	{LEFTARROW}	-999999	0	248709	0	{LEFTARROW}	438	249147	NA	NA	left	ooloo.bmp	354	0	NA	0	0	0	0	NA	0	0	0	NA	0	0	0	0	NA	0	0	5	1	8
Arrow Flanker 2014	12057	1	"<?xml version=""1.0""?>\n<Clock xmlns:dt=""urn:schemas-microsoft-com:datatypes""><Description dt:dt=""string"">E-Prime Primary Realtime Clock</Description><StartTime><Timestamp dt:dt=""int"">0</Timestamp><DateUtc dt:dt=""string"">2015-03-03T22:07:38Z</DateUtc></StartTime><FrequencyChanges><FrequencyChange><Frequency dt:dt=""r8"">2825634</Frequency><Timestamp dt:dt=""r8"">1121530378623</Timestamp><Current dt:dt=""r8"">0</Current><DateUtc dt:dt=""string"">2015-03-03T22:07:38Z</DateUtc></FrequencyChange></FrequencyChanges></Clock>\n"	Arrow Flanker 2014-12057-1	60.017	1.0.0.91	1	544454017	Professional	2.0.10.353	2.0.10.353	03-03-2015	NA	17:07:39	2.0.10.248	3	1	1	1	NA	NA	NA	NA	NA	NA	NA	NA	NA	NA	NA	NA	NA	NA	NA	NA	NA	NA	NA	NA	NA	NA	NA	NA	BlockProc	BlockList	NA	9	{LEFTARROW}	NA	-100	1762	neutral	NA	NA	NA	NA	NA	NA	NA	NA	NA	NA	NA	NA	NA	NA	NA	NA	NA	NA	NA	NA	NA	NA	TrialProc	TrialList	0	9	252308	16	0	17	249692	1533	1	{LEFTARROW}	-999999	0	251725	0	{LEFTARROW}	574	252299	NA	NA	left	ooloo.bmp	354	0	NA	0	0	0	0	NA	0	0	0	NA	0	0	0	0	NA	0	0	5	1	9
Arrow Flanker 2014	12057	1	"<?xml version=""1.0""?>\n<Clock xmlns:dt=""urn:schemas-microsoft-com:datatypes""><Description dt:dt=""string"">E-Prime Primary Realtime Clock</Description><StartTime><Timestamp dt:dt=""int"">0</Timestamp><DateUtc dt:dt=""string"">2015-03-03T22:07:38Z</DateUtc></StartTime><FrequencyChanges><FrequencyChange><Frequency dt:dt=""r8"">2825634</Frequency><Timestamp dt:dt=""r8"">1121530378623</Timestamp><Current dt:dt=""r8"">0</Current><DateUtc dt:dt=""string"">2015-03-03T22:07:38Z</DateUtc></FrequencyChange></FrequencyChanges></Clock>\n"	Arrow Flanker 2014-12057-1	60.017	1.0.0.91	1	544454017	Professional	2.0.10.353	2.0.10.353	03-03-2015	NA	17:07:39	2.0.10.248	3	1	1	1	NA	NA	NA	NA	NA	NA	NA	NA	NA	NA	NA	NA	NA	NA	NA	NA	NA	NA	NA	NA	NA	NA	NA	NA	BlockProc	BlockList	NA	10	{RIGHTARROW}	NA	-100	1147	congruent	NA	NA	NA	NA	NA	NA	NA	NA	NA	NA	NA	NA	NA	NA	NA	NA	NA	NA	NA	NA	NA	NA	TrialProc	TrialList	1	17	254540	17	0	17	252841	666	1	{RIGHTARROW}	-999999	0	254007	0	{RIGHTARROW}	516	254523	NA	NA	right	rrrrr.bmp	354	0	NA	0	0	0	0	NA	0	0	0	NA	0	0	0	0	NA	0	0	2	1	10
Arrow Flanker 2014	12057	1	"<?xml version=""1.0""?>\n<Clock xmlns:dt=""urn:schemas-microsoft-com:datatypes""><Description dt:dt=""string"">E-Prime Primary Realtime Clock</Description><StartTime><Timestamp dt:dt=""int"">0</Timestamp><DateUtc dt:dt=""string"">2015-03-03T22:07:38Z</DateUtc></StartTime><FrequencyChanges><FrequencyChange><Frequency dt:dt=""r8"">2825634</Frequency><Timestamp dt:dt=""r8"">1121530378623</Timestamp><Current dt:dt=""r8"">0</Current><DateUtc dt:dt=""string"">2015-03-03T22:07:38Z</DateUtc></FrequencyChange></FrequencyChanges></Clock>\n"	Arrow Flanker 2014-12057-1	60.017	1.0.0.91	1	544454017	Professional	2.0.10.353	2.0.10.353	03-03-2015	NA	17:07:39	2.0.10.248	3	1	1	1	NA	NA	NA	NA	NA	NA	NA	NA	NA	NA	NA	NA	NA	NA	NA	NA	NA	NA	NA	NA	NA	NA	NA	NA	BlockProc	BlockList	NA	11	{RIGHTARROW}	NA	-100	1817	congruent	NA	NA	NA	NA	NA	NA	NA	NA	NA	NA	NA	NA	NA	NA	NA	NA	NA	NA	NA	NA	NA	NA	TrialProc	TrialList	0	11	256790	16	0	17	255074	749	1	{RIGHTARROW}	-999999	0	256323	0	{RIGHTARROW}	456	256779	NA	NA	right	rrrrr.bmp	354	0	NA	0	0	0	0	NA	0	0	0	NA	0	0	0	0	NA	0	0	2	1	11
Arrow Flanker 2014	12057	1	"<?xml version=""1.0""?>\n<Clock xmlns:dt=""urn:schemas-microsoft-com:datatypes""><Description dt:dt=""string"">E-Prime Primary Realtime Clock</Description><StartTime><Timestamp dt:dt=""int"">0</Timestamp><DateUtc dt:dt=""string"">2015-03-03T22:07:38Z</DateUtc></StartTime><FrequencyChanges><FrequencyChange><Frequency dt:dt=""r8"">2825634</Frequency><Timestamp dt:dt=""r8"">1121530378623</Timestamp><Current dt:dt=""r8"">0</Current><DateUtc dt:dt=""string"">2015-03-03T22:07:38Z</DateUtc></FrequencyChange></FrequencyChanges></Clock>\n"	Arrow Flanker 2014-12057-1	60.017	1.0.0.91	1	544454017	Professional	2.0.10.353	2.0.10.353	03-03-2015	NA	17:07:39	2.0.10.248	3	1	1	1	NA	NA	NA	NA	NA	NA	NA	NA	NA	NA	NA	NA	NA	NA	NA	NA	NA	NA	NA	NA	NA	NA	NA	NA	BlockProc	BlockList	NA	12	{LEFTARROW}	NA	-100	1834	congruent	NA	NA	NA	NA	NA	NA	NA	NA	NA	NA	NA	NA	NA	NA	NA	NA	NA	NA	NA	NA	NA	NA	TrialProc	TrialList	0	18	259789	17	0	17	257323	1533	1	{LEFTARROW}	-999999	0	259356	0	{LEFTARROW}	414	259770	NA	NA	left	lllll.bmp	354	0	NA	0	0	0	0	NA	0	0	0	NA	0	0	0	0	NA	0	0	1	1	12
Arrow Flanker 2014	12057	1	"<?xml version=""1.0""?>\n<Clock xmlns:dt=""urn:schemas-microsoft-com:datatypes""><Description dt:dt=""string"">E-Prime Primary Realtime Clock</Description><StartTime><Timestamp dt:dt=""int"">0</Timestamp><DateUtc dt:dt=""string"">2015-03-03T22:07:38Z</DateUtc></StartTime><FrequencyChanges><FrequencyChange><Frequency dt:dt=""r8"">2825634</Frequency><Timestamp dt:dt=""r8"">1121530378623</Timestamp><Current dt:dt=""r8"">0</Current><DateUtc dt:dt=""string"">2015-03-03T22:07:38Z</DateUtc></FrequencyChange></FrequencyChanges></Clock>\n"	Arrow Flanker 2014-12057-1	60.017	1.0.0.91	1	544454017	Professional	2.0.10.353	2.0.10.353	03-03-2015	NA	17:07:39	2.0.10.248	3	1	1	1	NA	NA	NA	NA	NA	NA	NA	NA	NA	NA	NA	NA	NA	NA	NA	NA	NA	NA	NA	NA	NA	NA	NA	NA	BlockProc	BlockList	NA	13	{RIGHTARROW}	NA	-100	1693	incongruent	NA	NA	NA	NA	NA	NA	NA	NA	NA	NA	NA	NA	NA	NA	NA	NA	NA	NA	NA	NA	NA	NA	TrialProc	TrialList	1	20	262238	17	0	16	260322	900	1	{RIGHTARROW}	-999999	0	261722	0	{RIGHTARROW}	496	262218	NA	NA	right	llrll.bmp	354	0	NA	0	0	0	0	NA	0	0	0	NA	0	0	0	0	NA	0	0	4	1	13
Arrow Flanker 2014	12057	1	"<?xml version=""1.0""?>\n<Clock xmlns:dt=""urn:schemas-microsoft-com:datatypes""><Description dt:dt=""string"">E-Prime Primary Realtime Clock</Description><StartTime><Timestamp dt:dt=""int"">0</Timestamp><DateUtc dt:dt=""string"">2015-03-03T22:07:38Z</DateUtc></StartTime><FrequencyChanges><FrequencyChange><Frequency dt:dt=""r8"">2825634</Frequency><Timestamp dt:dt=""r8"">1121530378623</Timestamp><Current dt:dt=""r8"">0</Current><DateUtc dt:dt=""string"">2015-03-03T22:07:38Z</DateUtc></FrequencyChange></FrequencyChanges></Clock>\n"	Arrow Flanker 2014-12057-1	60.017	1.0.0.91	1	544454017	Professional	2.0.10.353	2.0.10.353	03-03-2015	NA	17:07:39	2.0.10.248	3	1	1	1	NA	NA	NA	NA	NA	NA	NA	NA	NA	NA	NA	NA	NA	NA	NA	NA	NA	NA	NA	NA	NA	NA	NA	NA	BlockProc	BlockList	NA	14	{LEFTARROW}	NA	-100	2749	neutral	NA	NA	NA	NA	NA	NA	NA	NA	NA	NA	NA	NA	NA	NA	NA	NA	NA	NA	NA	NA	NA	NA	TrialProc	TrialList	0	16	265354	17	0	16	262771	1567	1	{LEFTARROW}	-999999	16	264854	0	{LEFTARROW}	484	265338	NA	NA	left	ooloo.bmp	354	0	NA	0	0	0	0	NA	0	0	0	NA	0	0	0	0	NA	0	0	5	1	14
Arrow Flanker 2014	12057	1	"<?xml version=""1.0""?>\n<Clock xmlns:dt=""urn:schemas-microsoft-com:datatypes""><Description dt:dt=""string"">E-Prime Primary Realtime Clock</Description><StartTime><Timestamp dt:dt=""int"">0</Timestamp><DateUtc dt:dt=""string"">2015-03-03T22:07:38Z</DateUtc></StartTime><FrequencyChanges><FrequencyChange><Frequency dt:dt=""r8"">2825634</Frequency><Timestamp dt:dt=""r8"">1121530378623</Timestamp><Current dt:dt=""r8"">0</Current><DateUtc dt:dt=""string"">2015-03-03T22:07:38Z</DateUtc></FrequencyChange></FrequencyChanges></Clock>\n"	Arrow Flanker 2014-12057-1	60.017	1.0.0.91	1	544454017	Professional	2.0.10.353	2.0.10.353	03-03-2015	NA	17:07:39	2.0.10.248	3	1	1	1	NA	NA	NA	NA	NA	NA	NA	NA	NA	NA	NA	NA	NA	NA	NA	NA	NA	NA	NA	NA	NA	NA	NA	NA	BlockProc	BlockList	NA	15	{LEFTARROW}	NA	-100	1959	incongruent	NA	NA	NA	NA	NA	NA	NA	NA	NA	NA	NA	NA	NA	NA	NA	NA	NA	NA	NA	NA	NA	NA	TrialProc	TrialList	0	8	268370	16	0	16	265887	1450	1	{LEFTARROW}	-999999	0	267837	0	{LEFTARROW}	525	268362	NA	NA	left	rrlrr.bmp	354	0	NA	0	0	0	0	NA	0	0	0	NA	0	0	0	0	NA	0	0	3	1	15
Arrow Flanker 2014	12057	1	"<?xml version=""1.0""?>\n<Clock xmlns:dt=""urn:schemas-microsoft-com:datatypes""><Description dt:dt=""string"">E-Prime Primary Realtime Clock</Description><StartTime><Timestamp dt:dt=""int"">0</Timestamp><DateUtc dt:dt=""string"">2015-03-03T22:07:38Z</DateUtc></StartTime><FrequencyChanges><FrequencyChange><Frequency dt:dt=""r8"">2825634</Frequency><Timestamp dt:dt=""r8"">1121530378623</Timestamp><Current dt:dt=""r8"">0</Current><DateUtc dt:dt=""string"">2015-03-03T22:07:38Z</DateUtc></FrequencyChange></FrequencyChanges></Clock>\n"	Arrow Flanker 2014-12057-1	60.017	1.0.0.91	1	544454017	Professional	2.0.10.353	2.0.10.353	03-03-2015	NA	17:07:39	2.0.10.248	3	1	1	1	NA	NA	NA	NA	NA	NA	NA	NA	NA	NA	NA	NA	NA	NA	NA	NA	NA	NA	NA	NA	NA	NA	NA	NA	BlockProc	BlockList	NA	16	{LEFTARROW}	NA	-100	2176	congruent	NA	NA	NA	NA	NA	NA	NA	NA	NA	NA	NA	NA	NA	NA	NA	NA	NA	NA	NA	NA	NA	NA	TrialProc	TrialList	1	6	271136	16	0	17	268903	1266	1	{LEFTARROW}	-999999	0	270669	0	{LEFTARROW}	461	271130	NA	NA	left	lllll.bmp	354	0	NA	0	0	0	0	NA	0	0	0	NA	0	0	0	0	NA	0	0	1	1	16
Arrow Flanker 2014	12057	1	"<?xml version=""1.0""?>\n<Clock xmlns:dt=""urn:schemas-microsoft-com:datatypes""><Description dt:dt=""string"">E-Prime Primary Realtime Clock</Description><StartTime><Timestamp dt:dt=""int"">0</Timestamp><DateUtc dt:dt=""string"">2015-03-03T22:07:38Z</DateUtc></StartTime><FrequencyChanges><FrequencyChange><Frequency dt:dt=""r8"">2825634</Frequency><Timestamp dt:dt=""r8"">1121530378623</Timestamp><Current dt:dt=""r8"">0</Current><DateUtc dt:dt=""string"">2015-03-03T22:07:38Z</DateUtc></FrequencyChange></FrequencyChanges></Clock>\n"	Arrow Flanker 2014-12057-1	60.017	1.0.0.91	1	544454017	Professional	2.0.10.353	2.0.10.353	03-03-2015	NA	17:07:39	2.0.10.248	3	1	1	1	NA	NA	NA	NA	NA	NA	NA	NA	NA	NA	NA	NA	NA	NA	NA	NA	NA	NA	NA	NA	NA	NA	NA	NA	BlockProc	BlockList	NA	17	{RIGHTARROW}	NA	-100	1940	neutral	NA	NA	NA	NA	NA	NA	NA	NA	NA	NA	NA	NA	NA	NA	NA	NA	NA	NA	NA	NA	NA	NA	TrialProc	TrialList	0	19	274285	16	0	17	271669	1599	1	{RIGHTARROW}	-999999	0	273768	0	{RIGHTARROW}	498	274266	NA	NA	right	ooroo.bmp	354	0	NA	0	0	0	0	NA	0	0	0	NA	0	0	0	0	NA	0	0	6	1	17
Arrow Flanker 2014	12057	1	"<?xml version=""1.0""?>\n<Clock xmlns:dt=""urn:schemas-microsoft-com:datatypes""><Description dt:dt=""string"">E-Prime Primary Realtime Clock</Description><StartTime><Timestamp dt:dt=""int"">0</Timestamp><DateUtc dt:dt=""string"">2015-03-03T22:07:38Z</DateUtc></StartTime><FrequencyChanges><FrequencyChange><Frequency dt:dt=""r8"">2825634</Frequency><Timestamp dt:dt=""r8"">1121530378623</Timestamp><Current dt:dt=""r8"">0</Current><DateUtc dt:dt=""string"">2015-03-03T22:07:38Z</DateUtc></FrequencyChange></FrequencyChanges></Clock>\n"	Arrow Flanker 2014-12057-1	60.017	1.0.0.91	1	544454017	Professional	2.0.10.353	2.0.10.353	03-03-2015	NA	17:07:39	2.0.10.248	3	1	1	1	NA	NA	NA	NA	NA	NA	NA	NA	NA	NA	NA	NA	NA	NA	NA	NA	NA	NA	NA	NA	NA	NA	NA	NA	BlockProc	BlockList	NA	18	{RIGHTARROW}	NA	-100	1482	neutral	NA	NA	NA	NA	NA	NA	NA	NA	NA	NA	NA	NA	NA	NA	NA	NA	NA	NA	NA	NA	NA	NA	TrialProc	TrialList	0	16	277034	17	0	17	274818	1266	1	{RIGHTARROW}	-999999	0	276584	0	{RIGHTARROW}	434	277018	NA	NA	right	ooroo.bmp	354	0	NA	0	0	0	0	NA	0	0	0	NA	0	0	0	0	NA	0	0	6	1	18
Arrow Flanker 2014	12057	1	"<?xml version=""1.0""?>\n<Clock xmlns:dt=""urn:schemas-microsoft-com:datatypes""><Description dt:dt=""string"">E-Prime Primary Realtime Clock</Description><StartTime><Timestamp dt:dt=""int"">0</Timestamp><DateUtc dt:dt=""string"">2015-03-03T22:07:38Z</DateUtc></StartTime><FrequencyChanges><FrequencyChange><Frequency dt:dt=""r8"">2825634</Frequency><Timestamp dt:dt=""r8"">1121530378623</Timestamp><Current dt:dt=""r8"">0</Current><DateUtc dt:dt=""string"">2015-03-03T22:07:38Z</DateUtc></FrequencyChange></FrequencyChanges></Clock>\n"	Arrow Flanker 2014-12057-1	60.017	1.0.0.91	1	544454017	Professional	2.0.10.353	2.0.10.353	03-03-2015	NA	17:07:39	2.0.10.248	3	1	1	1	NA	NA	NA	NA	NA	NA	NA	NA	NA	NA	NA	NA	NA	NA	NA	NA	NA	NA	NA	NA	NA	NA	NA	NA	BlockProc	BlockList	NA	19	{RIGHTARROW}	NA	-100	981	neutral	NA	NA	NA	NA	NA	NA	NA	NA	NA	NA	NA	NA	NA	NA	NA	NA	NA	NA	NA	NA	NA	NA	TrialProc	TrialList	0	10	279300	17	0	16	277567	733	1	{RIGHTARROW}	-999999	0	278800	0	{RIGHTARROW}	489	279289	NA	NA	right	ooroo.bmp	354	0	NA	0	0	0	0	NA	0	0	0	NA	0	0	0	0	NA	0	0	6	1	19
Arrow Flanker 2014	12057	1	"<?xml version=""1.0""?>\n<Clock xmlns:dt=""urn:schemas-microsoft-com:datatypes""><Description dt:dt=""string"">E-Prime Primary Realtime Clock</Description><StartTime><Timestamp dt:dt=""int"">0</Timestamp><DateUtc dt:dt=""string"">2015-03-03T22:07:38Z</DateUtc></StartTime><FrequencyChanges><FrequencyChange><Frequency dt:dt=""r8"">2825634</Frequency><Timestamp dt:dt=""r8"">1121530378623</Timestamp><Current dt:dt=""r8"">0</Current><DateUtc dt:dt=""string"">2015-03-03T22:07:38Z</DateUtc></FrequencyChange></FrequencyChanges></Clock>\n"	Arrow Flanker 2014-12057-1	60.017	1.0.0.91	1	544454017	Professional	2.0.10.353	2.0.10.353	03-03-2015	NA	17:07:39	2.0.10.248	3	1	1	1	NA	NA	NA	NA	NA	NA	NA	NA	NA	NA	NA	NA	NA	NA	NA	NA	NA	NA	NA	NA	NA	NA	NA	NA	BlockProc	BlockList	NA	20	{LEFTARROW}	NA	-100	904	incongruent	NA	NA	NA	NA	NA	NA	NA	NA	NA	NA	NA	NA	NA	NA	NA	NA	NA	NA	NA	NA	NA	NA	TrialProc	TrialList	0	10	281316	17	0	16	279833	433	1	{LEFTARROW}	-999999	0	280766	0	{LEFTARROW}	539	281305	NA	NA	left	rrlrr.bmp	354	0	NA	0	0	0	0	NA	0	0	0	NA	0	0	0	0	NA	0	0	3	1	20
Arrow Flanker 2014	12057	1	"<?xml version=""1.0""?>\n<Clock xmlns:dt=""urn:schemas-microsoft-com:datatypes""><Description dt:dt=""string"">E-Prime Primary Realtime Clock</Description><StartTime><Timestamp dt:dt=""int"">0</Timestamp><DateUtc dt:dt=""string"">2015-03-03T22:07:38Z</DateUtc></StartTime><FrequencyChanges><FrequencyChange><Frequency dt:dt=""r8"">2825634</Frequency><Timestamp dt:dt=""r8"">1121530378623</Timestamp><Current dt:dt=""r8"">0</Current><DateUtc dt:dt=""string"">2015-03-03T22:07:38Z</DateUtc></FrequencyChange></FrequencyChanges></Clock>\n"	Arrow Flanker 2014-12057-1	60.017	1.0.0.91	1	544454017	Professional	2.0.10.353	2.0.10.353	03-03-2015	NA	17:07:39	2.0.10.248	3	1	1	1	NA	NA	NA	NA	NA	NA	NA	NA	NA	NA	NA	NA	NA	NA	NA	NA	NA	NA	NA	NA	NA	NA	NA	NA	BlockProc	BlockList	NA	21	{LEFTARROW}	NA	-100	2242	neutral	NA	NA	NA	NA	NA	NA	NA	NA	NA	NA	NA	NA	NA	NA	NA	NA	NA	NA	NA	NA	NA	NA	TrialProc	TrialList	0	17	283882	17	0	16	281849	1067	1	{LEFTARROW}	-999999	-1	283415	0	{LEFTARROW}	450	283865	NA	NA	left	ooloo.bmp	354	0	NA	0	0	0	0	NA	0	0	0	NA	0	0	0	0	NA	0	0	5	1	21
Arrow Flanker 2014	12057	1	"<?xml version=""1.0""?>\n<Clock xmlns:dt=""urn:schemas-microsoft-com:datatypes""><Description dt:dt=""string"">E-Prime Primary Realtime Clock</Description><StartTime><Timestamp dt:dt=""int"">0</Timestamp><DateUtc dt:dt=""string"">2015-03-03T22:07:38Z</DateUtc></StartTime><FrequencyChanges><FrequencyChange><Frequency dt:dt=""r8"">2825634</Frequency><Timestamp dt:dt=""r8"">1121530378623</Timestamp><Current dt:dt=""r8"">0</Current><DateUtc dt:dt=""string"">2015-03-03T22:07:38Z</DateUtc></FrequencyChange></FrequencyChanges></Clock>\n"	Arrow Flanker 2014-12057-1	60.017	1.0.0.91	1	544454017	Professional	2.0.10.353	2.0.10.353	03-03-2015	NA	17:07:39	2.0.10.248	3	1	1	1	NA	NA	NA	NA	NA	NA	NA	NA	NA	NA	NA	NA	NA	NA	NA	NA	NA	NA	NA	NA	NA	NA	NA	NA	BlockProc	BlockList	NA	22	{RIGHTARROW}	NA	-100	1333	neutral	NA	NA	NA	NA	NA	NA	NA	NA	NA	NA	NA	NA	NA	NA	NA	NA	NA	NA	NA	NA	1	NA	TrialProc	TrialList	0	6	286015	16	0	16	284415	617	1	{RIGHTARROW}	-999999	0	285532	0	{RIGHTARROW}	477	286009	NA	NA	right	ooroo.bmp	354	0	NA	-999999	17	286548	0	1	6797	293345	0	NA	0	0	0	0	NA	0	0	6	1	22
Arrow Flanker 2014	12057	1	"<?xml version=""1.0""?>\n<Clock xmlns:dt=""urn:schemas-microsoft-com:datatypes""><Description dt:dt=""string"">E-Prime Primary Realtime Clock</Description><StartTime><Timestamp dt:dt=""int"">0</Timestamp><DateUtc dt:dt=""string"">2015-03-03T22:07:38Z</DateUtc></StartTime><FrequencyChanges><FrequencyChange><Frequency dt:dt=""r8"">2825634</Frequency><Timestamp dt:dt=""r8"">1121530378623</Timestamp><Current dt:dt=""r8"">0</Current><DateUtc dt:dt=""string"">2015-03-03T22:07:38Z</DateUtc></FrequencyChange></FrequencyChanges></Clock>\n"	Arrow Flanker 2014-12057-1	60.017	1.0.0.91	1	544454017	Professional	2.0.10.353	2.0.10.353	03-03-2015	NA	17:07:39	2.0.10.248	3	1	1	1	NA	NA	NA	NA	NA	NA	NA	NA	NA	NA	NA	NA	NA	NA	NA	NA	NA	NA	NA	NA	NA	NA	NA	NA	BlockProc	BlockList	NA	23	{LEFTARROW}	NA	-100	1099	congruent	NA	NA	NA	NA	NA	NA	NA	NA	NA	NA	NA	NA	NA	NA	NA	NA	NA	NA	NA	NA	NA	NA	TrialProc	TrialList	1	16	297161	17	0	26	294995	567	1	{LEFTARROW}	-999999	0	296062	0	{LEFTARROW}	1083	297145	NA	NA	left	lllll.bmp	354	0	NA	0	0	0	0	NA	0	0	0	NA	0	0	0	0	NA	0	0	1	1	23
Arrow Flanker 2014	12057	1	"<?xml version=""1.0""?>\n<Clock xmlns:dt=""urn:schemas-microsoft-com:datatypes""><Description dt:dt=""string"">E-Prime Primary Realtime Clock</Description><StartTime><Timestamp dt:dt=""int"">0</Timestamp><DateUtc dt:dt=""string"">2015-03-03T22:07:38Z</DateUtc></StartTime><FrequencyChanges><FrequencyChange><Frequency dt:dt=""r8"">2825634</Frequency><Timestamp dt:dt=""r8"">1121530378623</Timestamp><Current dt:dt=""r8"">0</Current><DateUtc dt:dt=""string"">2015-03-03T22:07:38Z</DateUtc></FrequencyChange></FrequencyChanges></Clock>\n"	Arrow Flanker 2014-12057-1	60.017	1.0.0.91	1	544454017	Professional	2.0.10.353	2.0.10.353	03-03-2015	NA	17:07:39	2.0.10.248	3	1	1	1	NA	NA	NA	NA	NA	NA	NA	NA	NA	NA	NA	NA	NA	NA	NA	NA	NA	NA	NA	NA	NA	NA	NA	NA	BlockProc	BlockList	NA	24	{RIGHTARROW}	NA	-100	1370	congruent	NA	NA	NA	NA	NA	NA	NA	NA	NA	NA	NA	NA	NA	NA	NA	NA	NA	NA	NA	NA	NA	NA	TrialProc	TrialList	0	17	299178	16	0	17	297695	566	1	{RIGHTARROW}	-999999	0	298761	0	{RIGHTARROW}	399	299160	NA	NA	right	rrrrr.bmp	354	0	NA	0	0	0	0	NA	0	0	0	NA	0	0	0	0	NA	0	0	2	1	24
Arrow Flanker 2014	12057	1	"<?xml version=""1.0""?>\n<Clock xmlns:dt=""urn:schemas-microsoft-com:datatypes""><Description dt:dt=""string"">E-Prime Primary Realtime Clock</Description><StartTime><Timestamp dt:dt=""int"">0</Timestamp><DateUtc dt:dt=""string"">2015-03-03T22:07:38Z</DateUtc></StartTime><FrequencyChanges><FrequencyChange><Frequency dt:dt=""r8"">2825634</Frequency><Timestamp dt:dt=""r8"">1121530378623</Timestamp><Current dt:dt=""r8"">0</Current><DateUtc dt:dt=""string"">2015-03-03T22:07:38Z</DateUtc></FrequencyChange></FrequencyChanges></Clock>\n"	Arrow Flanker 2014-12057-1	60.017	1.0.0.91	1	544454017	Professional	2.0.10.353	2.0.10.353	03-03-2015	NA	17:07:39	2.0.10.248	3	1	1	1	NA	NA	NA	NA	NA	NA	NA	NA	NA	NA	NA	NA	NA	NA	NA	NA	NA	NA	NA	NA	NA	NA	NA	NA	BlockProc	BlockList	NA	25	{RIGHTARROW}	NA	-100	1626	congruent	NA	NA	NA	NA	NA	NA	NA	NA	NA	NA	NA	NA	NA	NA	NA	NA	NA	NA	NA	NA	NA	NA	TrialProc	TrialList	1	20	301660	17	0	17	299711	1000	1	{RIGHTARROW}	-999999	0	301210	0	{RIGHTARROW}	430	301640	NA	NA	right	rrrrr.bmp	354	0	NA	0	0	0	0	NA	0	0	0	NA	0	0	0	0	NA	0	0	2	1	25
Arrow Flanker 2014	12057	1	"<?xml version=""1.0""?>\n<Clock xmlns:dt=""urn:schemas-microsoft-com:datatypes""><Description dt:dt=""string"">E-Prime Primary Realtime Clock</Description><StartTime><Timestamp dt:dt=""int"">0</Timestamp><DateUtc dt:dt=""string"">2015-03-03T22:07:38Z</DateUtc></StartTime><FrequencyChanges><FrequencyChange><Frequency dt:dt=""r8"">2825634</Frequency><Timestamp dt:dt=""r8"">1121530378623</Timestamp><Current dt:dt=""r8"">0</Current><DateUtc dt:dt=""string"">2015-03-03T22:07:38Z</DateUtc></FrequencyChange></FrequencyChanges></Clock>\n"	Arrow Flanker 2014-12057-1	60.017	1.0.0.91	1	544454017	Professional	2.0.10.353	2.0.10.353	03-03-2015	NA	17:07:39	2.0.10.248	3	1	1	1	NA	NA	NA	NA	NA	NA	NA	NA	NA	NA	NA	NA	NA	NA	NA	NA	NA	NA	NA	NA	NA	NA	NA	NA	BlockProc	BlockList	NA	26	{RIGHTARROW}	NA	-100	2350	neutral	NA	NA	NA	NA	NA	NA	NA	NA	NA	NA	NA	NA	NA	NA	NA	NA	NA	NA	NA	NA	NA	NA	TrialProc	TrialList	1	13	304709	17	0	16	302193	0	1	{RIGHTARROW}	-999999	0	304193	0	{RIGHTARROW}	503	304696	NA	NA	right	ooroo.bmp	354	0	NA	0	0	0	0	NA	0	0	0	NA	0	0	0	0	NA	0	0	6	1	26
Arrow Flanker 2014	12057	1	"<?xml version=""1.0""?>\n<Clock xmlns:dt=""urn:schemas-microsoft-com:datatypes""><Description dt:dt=""string"">E-Prime Primary Realtime Clock</Description><StartTime><Timestamp dt:dt=""int"">0</Timestamp><DateUtc dt:dt=""string"">2015-03-03T22:07:38Z</DateUtc></StartTime><FrequencyChanges><FrequencyChange><Frequency dt:dt=""r8"">2825634</Frequency><Timestamp dt:dt=""r8"">1121530378623</Timestamp><Current dt:dt=""r8"">0</Current><DateUtc dt:dt=""string"">2015-03-03T22:07:38Z</DateUtc></FrequencyChange></FrequencyChanges></Clock>\n"	Arrow Flanker 2014-12057-1	60.017	1.0.0.91	1	544454017	Professional	2.0.10.353	2.0.10.353	03-03-2015	NA	17:07:39	2.0.10.248	3	1	1	1	NA	NA	NA	NA	NA	NA	NA	NA	NA	NA	NA	NA	NA	NA	NA	NA	NA	NA	NA	NA	NA	NA	NA	NA	BlockProc	BlockList	NA	27	{RIGHTARROW}	NA	-100	1511	congruent	NA	NA	NA	NA	NA	NA	NA	NA	NA	NA	NA	NA	NA	NA	NA	NA	NA	NA	NA	NA	NA	NA	TrialProc	TrialList	1	9	307425	17	0	16	305242	0	1	{RIGHTARROW}	-999999	0	307009	0	{RIGHTARROW}	407	307416	NA	NA	right	rrrrr.bmp	354	0	NA	0	0	0	0	NA	0	0	0	NA	0	0	0	0	NA	0	0	2	1	27
Arrow Flanker 2014	12057	1	"<?xml version=""1.0""?>\n<Clock xmlns:dt=""urn:schemas-microsoft-com:datatypes""><Description dt:dt=""string"">E-Prime Primary Realtime Clock</Description><StartTime><Timestamp dt:dt=""int"">0</Timestamp><DateUtc dt:dt=""string"">2015-03-03T22:07:38Z</DateUtc></StartTime><FrequencyChanges><FrequencyChange><Frequency dt:dt=""r8"">2825634</Frequency><Timestamp dt:dt=""r8"">1121530378623</Timestamp><Current dt:dt=""r8"">0</Current><DateUtc dt:dt=""string"">2015-03-03T22:07:38Z</DateUtc></FrequencyChange></FrequencyChanges></Clock>\n"	Arrow Flanker 2014-12057-1	60.017	1.0.0.91	1	544454017	Professional	2.0.10.353	2.0.10.353	03-03-2015	NA	17:07:39	2.0.10.248	3	1	1	1	NA	NA	NA	NA	NA	NA	NA	NA	NA	NA	NA	NA	NA	NA	NA	NA	NA	NA	NA	NA	NA	NA	NA	NA	BlockProc	BlockList	NA	28	{LEFTARROW}	NA	-100	1614	neutral	NA	NA	NA	NA	NA	NA	NA	NA	NA	NA	NA	NA	NA	NA	NA	NA	NA	NA	NA	NA	NA	NA	TrialProc	TrialList	0	15	309575	16	0	16	307958	0	1	{LEFTARROW}	-999999	0	309008	0	{LEFTARROW}	552	309560	NA	NA	left	ooloo.bmp	354	0	NA	0	0	0	0	NA	0	0	0	NA	0	0	0	0	NA	0	0	5	1	28
Arrow Flanker 2014	12057	1	"<?xml version=""1.0""?>\n<Clock xmlns:dt=""urn:schemas-microsoft-com:datatypes""><Description dt:dt=""string"">E-Prime Primary Realtime Clock</Description><StartTime><Timestamp dt:dt=""int"">0</Timestamp><DateUtc dt:dt=""string"">2015-03-03T22:07:38Z</DateUtc></StartTime><FrequencyChanges><FrequencyChange><Frequency dt:dt=""r8"">2825634</Frequency><Timestamp dt:dt=""r8"">1121530378623</Timestamp><Current dt:dt=""r8"">0</Current><DateUtc dt:dt=""string"">2015-03-03T22:07:38Z</DateUtc></FrequencyChange></FrequencyChanges></Clock>\n"	Arrow Flanker 2014-12057-1	60.017	1.0.0.91	1	544454017	Professional	2.0.10.353	2.0.10.353	03-03-2015	NA	17:07:39	2.0.10.248	3	1	1	1	NA	NA	NA	NA	NA	NA	NA	NA	NA	NA	NA	NA	NA	NA	NA	NA	NA	NA	NA	NA	NA	NA	NA	NA	BlockProc	BlockList	NA	29	{RIGHTARROW}	NA	-100	1103	incongruent	NA	NA	NA	NA	NA	NA	NA	NA	NA	NA	NA	NA	NA	NA	NA	NA	NA	NA	NA	NA	NA	NA	TrialProc	TrialList	0	21	311741	16	0	17	310108	0	1	{RIGHTARROW}	-999999	0	311158	0	{RIGHTARROW}	562	311720	NA	NA	right	llrll.bmp	354	0	NA	0	0	0	0	NA	0	0	0	NA	0	0	0	0	NA	0	0	4	1	29
Arrow Flanker 2014	12057	1	"<?xml version=""1.0""?>\n<Clock xmlns:dt=""urn:schemas-microsoft-com:datatypes""><Description dt:dt=""string"">E-Prime Primary Realtime Clock</Description><StartTime><Timestamp dt:dt=""int"">0</Timestamp><DateUtc dt:dt=""string"">2015-03-03T22:07:38Z</DateUtc></StartTime><FrequencyChanges><FrequencyChange><Frequency dt:dt=""r8"">2825634</Frequency><Timestamp dt:dt=""r8"">1121530378623</Timestamp><Current dt:dt=""r8"">0</Current><DateUtc dt:dt=""string"">2015-03-03T22:07:38Z</DateUtc></FrequencyChange></FrequencyChanges></Clock>\n"	Arrow Flanker 2014-12057-1	60.017	1.0.0.91	1	544454017	Professional	2.0.10.353	2.0.10.353	03-03-2015	NA	17:07:39	2.0.10.248	3	1	1	1	NA	NA	NA	NA	NA	NA	NA	NA	NA	NA	NA	NA	NA	NA	NA	NA	NA	NA	NA	NA	NA	NA	NA	NA	BlockProc	BlockList	NA	30	{RIGHTARROW}	NA	-100	687	congruent	NA	NA	NA	NA	NA	NA	NA	NA	NA	NA	NA	NA	NA	NA	NA	NA	NA	NA	NA	NA	NA	NA	TrialProc	TrialList	1	19	313723	17	0	17	312274	0	1	{RIGHTARROW}	-999999	0	313274	0	{RIGHTARROW}	430	313704	NA	NA	right	rrrrr.bmp	354	0	NA	0	0	0	0	NA	0	0	0	NA	0	0	0	0	NA	0	0	2	1	30
Arrow Flanker 2014	12057	1	"<?xml version=""1.0""?>\n<Clock xmlns:dt=""urn:schemas-microsoft-com:datatypes""><Description dt:dt=""string"">E-Prime Primary Realtime Clock</Description><StartTime><Timestamp dt:dt=""int"">0</Timestamp><DateUtc dt:dt=""string"">2015-03-03T22:07:38Z</DateUtc></StartTime><FrequencyChanges><FrequencyChange><Frequency dt:dt=""r8"">2825634</Frequency><Timestamp dt:dt=""r8"">1121530378623</Timestamp><Current dt:dt=""r8"">0</Current><DateUtc dt:dt=""string"">2015-03-03T22:07:38Z</DateUtc></FrequencyChange></FrequencyChanges></Clock>\n"	Arrow Flanker 2014-12057-1	60.017	1.0.0.91	1	544454017	Professional	2.0.10.353	2.0.10.353	03-03-2015	NA	17:07:39	2.0.10.248	3	1	1	1	NA	NA	NA	NA	NA	NA	NA	NA	NA	NA	NA	NA	NA	NA	NA	NA	NA	NA	NA	NA	NA	NA	NA	NA	BlockProc	BlockList	NA	31	{LEFTARROW}	NA	-100	1984	neutral	NA	NA	NA	NA	NA	NA	NA	NA	NA	NA	NA	NA	NA	NA	NA	NA	NA	NA	NA	NA	NA	NA	TrialProc	TrialList	0	10	316706	17	0	17	314257	0	1	{LEFTARROW}	-999999	0	316239	0	{LEFTARROW}	457	316696	NA	NA	left	ooloo.bmp	354	0	NA	0	0	0	0	NA	0	0	0	NA	0	0	0	0	NA	0	0	5	1	31
Arrow Flanker 2014	12057	1	"<?xml version=""1.0""?>\n<Clock xmlns:dt=""urn:schemas-microsoft-com:datatypes""><Description dt:dt=""string"">E-Prime Primary Realtime Clock</Description><StartTime><Timestamp dt:dt=""int"">0</Timestamp><DateUtc dt:dt=""string"">2015-03-03T22:07:38Z</DateUtc></StartTime><FrequencyChanges><FrequencyChange><Frequency dt:dt=""r8"">2825634</Frequency><Timestamp dt:dt=""r8"">1121530378623</Timestamp><Current dt:dt=""r8"">0</Current><DateUtc dt:dt=""string"">2015-03-03T22:07:38Z</DateUtc></FrequencyChange></FrequencyChanges></Clock>\n"	Arrow Flanker 2014-12057-1	60.017	1.0.0.91	1	544454017	Professional	2.0.10.353	2.0.10.353	03-03-2015	NA	17:07:39	2.0.10.248	3	1	1	1	NA	NA	NA	NA	NA	NA	NA	NA	NA	NA	NA	NA	NA	NA	NA	NA	NA	NA	NA	NA	NA	NA	NA	NA	BlockProc	BlockList	NA	32	{LEFTARROW}	NA	-100	1773	congruent	NA	NA	NA	NA	NA	NA	NA	NA	NA	NA	NA	NA	NA	NA	NA	NA	NA	NA	NA	NA	NA	NA	TrialProc	TrialList	1	20	319388	17	0	16	317239	0	1	{LEFTARROW}	-999999	0	318839	0	{LEFTARROW}	528	319367	NA	NA	left	lllll.bmp	354	0	NA	0	0	0	0	NA	0	0	0	NA	0	0	0	0	NA	0	0	1	1	32
Arrow Flanker 2014	12057	1	"<?xml version=""1.0""?>\n<Clock xmlns:dt=""urn:schemas-microsoft-com:datatypes""><Description dt:dt=""string"">E-Prime Primary Realtime Clock</Description><StartTime><Timestamp dt:dt=""int"">0</Timestamp><DateUtc dt:dt=""string"">2015-03-03T22:07:38Z</DateUtc></StartTime><FrequencyChanges><FrequencyChange><Frequency dt:dt=""r8"">2825634</Frequency><Timestamp dt:dt=""r8"">1121530378623</Timestamp><Current dt:dt=""r8"">0</Current><DateUtc dt:dt=""string"">2015-03-03T22:07:38Z</DateUtc></FrequencyChange></FrequencyChanges></Clock>\n"	Arrow Flanker 2014-12057-1	60.017	1.0.0.91	1	544454017	Professional	2.0.10.353	2.0.10.353	03-03-2015	NA	17:07:39	2.0.10.248	3	1	1	1	NA	NA	NA	NA	NA	NA	NA	NA	NA	NA	NA	NA	NA	NA	NA	NA	NA	NA	NA	NA	NA	NA	NA	NA	BlockProc	BlockList	NA	33	{LEFTARROW}	NA	-100	1153	incongruent	NA	NA	NA	NA	NA	NA	NA	NA	NA	NA	NA	NA	NA	NA	NA	NA	NA	NA	NA	NA	NA	NA	TrialProc	TrialList	0	14	322038	16	0	17	319922	0	1	{LEFTARROW}	-999999	0	321555	0	{LEFTARROW}	468	322023	NA	NA	left	rrlrr.bmp	354	0	NA	0	0	0	0	NA	0	0	0	NA	0	0	0	0	NA	0	0	3	1	33
Arrow Flanker 2014	12057	1	"<?xml version=""1.0""?>\n<Clock xmlns:dt=""urn:schemas-microsoft-com:datatypes""><Description dt:dt=""string"">E-Prime Primary Realtime Clock</Description><StartTime><Timestamp dt:dt=""int"">0</Timestamp><DateUtc dt:dt=""string"">2015-03-03T22:07:38Z</DateUtc></StartTime><FrequencyChanges><FrequencyChange><Frequency dt:dt=""r8"">2825634</Frequency><Timestamp dt:dt=""r8"">1121530378623</Timestamp><Current dt:dt=""r8"">0</Current><DateUtc dt:dt=""string"">2015-03-03T22:07:38Z</DateUtc></FrequencyChange></FrequencyChanges></Clock>\n"	Arrow Flanker 2014-12057-1	60.017	1.0.0.91	1	544454017	Professional	2.0.10.353	2.0.10.353	03-03-2015	NA	17:07:39	2.0.10.248	3	1	1	1	NA	NA	NA	NA	NA	NA	NA	NA	NA	NA	NA	NA	NA	NA	NA	NA	NA	NA	NA	NA	NA	NA	NA	NA	BlockProc	BlockList	NA	34	{RIGHTARROW}	NA	-100	837	congruent	NA	NA	NA	NA	NA	NA	NA	NA	NA	NA	NA	NA	NA	NA	NA	NA	NA	NA	NA	NA	NA	NA	TrialProc	TrialList	0	9	324304	16	0	17	322571	0	1	{RIGHTARROW}	-999999	-1	323720	0	{RIGHTARROW}	575	324295	NA	NA	right	rrrrr.bmp	354	0	NA	0	0	0	0	NA	0	0	0	NA	0	0	0	0	NA	0	0	2	1	34
Arrow Flanker 2014	12057	1	"<?xml version=""1.0""?>\n<Clock xmlns:dt=""urn:schemas-microsoft-com:datatypes""><Description dt:dt=""string"">E-Prime Primary Realtime Clock</Description><StartTime><Timestamp dt:dt=""int"">0</Timestamp><DateUtc dt:dt=""string"">2015-03-03T22:07:38Z</DateUtc></StartTime><FrequencyChanges><FrequencyChange><Frequency dt:dt=""r8"">2825634</Frequency><Timestamp dt:dt=""r8"">1121530378623</Timestamp><Current dt:dt=""r8"">0</Current><DateUtc dt:dt=""string"">2015-03-03T22:07:38Z</DateUtc></FrequencyChange></FrequencyChanges></Clock>\n"	Arrow Flanker 2014-12057-1	60.017	1.0.0.91	1	544454017	Professional	2.0.10.353	2.0.10.353	03-03-2015	NA	17:07:39	2.0.10.248	3	1	1	1	NA	NA	NA	NA	NA	NA	NA	NA	NA	NA	NA	NA	NA	NA	NA	NA	NA	NA	NA	NA	NA	NA	NA	NA	BlockProc	BlockList	NA	35	{LEFTARROW}	NA	-100	1422	incongruent	NA	NA	NA	NA	NA	NA	NA	NA	NA	NA	NA	NA	NA	NA	NA	NA	NA	NA	NA	NA	NA	NA	TrialProc	TrialList	0	18	326553	17	0	17	324837	0	1	{LEFTARROW}	-999999	0	326020	0	{LEFTARROW}	515	326535	NA	NA	left	rrlrr.bmp	354	0	NA	0	0	0	0	NA	0	0	0	NA	0	0	0	0	NA	0	0	3	1	35
Arrow Flanker 2014	12057	1	"<?xml version=""1.0""?>\n<Clock xmlns:dt=""urn:schemas-microsoft-com:datatypes""><Description dt:dt=""string"">E-Prime Primary Realtime Clock</Description><StartTime><Timestamp dt:dt=""int"">0</Timestamp><DateUtc dt:dt=""string"">2015-03-03T22:07:38Z</DateUtc></StartTime><FrequencyChanges><FrequencyChange><Frequency dt:dt=""r8"">2825634</Frequency><Timestamp dt:dt=""r8"">1121530378623</Timestamp><Current dt:dt=""r8"">0</Current><DateUtc dt:dt=""string"">2015-03-03T22:07:38Z</DateUtc></FrequencyChange></FrequencyChanges></Clock>\n"	Arrow Flanker 2014-12057-1	60.017	1.0.0.91	1	544454017	Professional	2.0.10.353	2.0.10.353	03-03-2015	NA	17:07:39	2.0.10.248	3	1	1	1	NA	NA	NA	NA	NA	NA	NA	NA	NA	NA	NA	NA	NA	NA	NA	NA	NA	NA	NA	NA	NA	NA	NA	NA	BlockProc	BlockList	NA	36	{RIGHTARROW}	NA	-100	2628	congruent	NA	NA	NA	NA	NA	NA	NA	NA	NA	NA	NA	NA	NA	NA	NA	NA	NA	NA	NA	NA	NA	NA	TrialProc	TrialList	1	14	329685	17	0	16	327086	0	1	{RIGHTARROW}	-999999	0	329169	0	{RIGHTARROW}	502	329671	NA	NA	right	rrrrr.bmp	354	0	NA	0	0	0	0	NA	0	0	0	NA	0	0	0	0	NA	0	0	2	1	36
Arrow Flanker 2014	12057	1	"<?xml version=""1.0""?>\n<Clock xmlns:dt=""urn:schemas-microsoft-com:datatypes""><Description dt:dt=""string"">E-Prime Primary Realtime Clock</Description><StartTime><Timestamp dt:dt=""int"">0</Timestamp><DateUtc dt:dt=""string"">2015-03-03T22:07:38Z</DateUtc></StartTime><FrequencyChanges><FrequencyChange><Frequency dt:dt=""r8"">2825634</Frequency><Timestamp dt:dt=""r8"">1121530378623</Timestamp><Current dt:dt=""r8"">0</Current><DateUtc dt:dt=""string"">2015-03-03T22:07:38Z</DateUtc></FrequencyChange></FrequencyChanges></Clock>\n"	Arrow Flanker 2014-12057-1	60.017	1.0.0.91	1	544454017	Professional	2.0.10.353	2.0.10.353	03-03-2015	NA	17:07:39	2.0.10.248	3	1	1	1	NA	NA	NA	NA	NA	NA	NA	NA	NA	NA	NA	NA	NA	NA	NA	NA	NA	NA	NA	NA	NA	NA	NA	NA	BlockProc	BlockList	NA	37	{RIGHTARROW}	NA	-100	1090	incongruent	NA	NA	NA	NA	NA	NA	NA	NA	NA	NA	NA	NA	NA	NA	NA	NA	NA	NA	NA	NA	2	1	TrialProc	TrialList	0	7	331902	16	0	17	330219	0	1	{RIGHTARROW}	-999999	0	331335	0	{RIGHTARROW}	560	331895	NA	NA	right	llrll.bmp	354	0	NA	-999999	17	332435	0	1	2556	334991	0	NA	-999999	10	335001	0	1	2926	337927	4	1	37
Arrow Flanker 2014	12057	1	"<?xml version=""1.0""?>\n<Clock xmlns:dt=""urn:schemas-microsoft-com:datatypes""><Description dt:dt=""string"">E-Prime Primary Realtime Clock</Description><StartTime><Timestamp dt:dt=""int"">0</Timestamp><DateUtc dt:dt=""string"">2015-03-03T22:07:38Z</DateUtc></StartTime><FrequencyChanges><FrequencyChange><Frequency dt:dt=""r8"">2825634</Frequency><Timestamp dt:dt=""r8"">1121530378623</Timestamp><Current dt:dt=""r8"">0</Current><DateUtc dt:dt=""string"">2015-03-03T22:07:38Z</DateUtc></FrequencyChange></FrequencyChanges></Clock>\n"	Arrow Flanker 2014-12057-1	60.017	1.0.0.91	1	544454017	Professional	2.0.10.353	2.0.10.353	03-03-2015	NA	17:07:39	2.0.10.248	3	1	1	1	NA	NA	NA	NA	NA	NA	NA	NA	NA	NA	NA	NA	NA	NA	NA	NA	NA	NA	NA	NA	NA	NA	NA	NA	BlockProc	BlockList	NA	38	{RIGHTARROW}	NA	-100	744	congruent	NA	NA	NA	NA	NA	NA	NA	NA	NA	NA	NA	NA	NA	NA	NA	NA	NA	NA	NA	NA	NA	NA	TrialProc	TrialList	0	11	341249	16	0	28	339699	0	1	{RIGHTARROW}	-999999	0	340616	0	{RIGHTARROW}	622	341238	NA	NA	right	rrrrr.bmp	354	0	NA	0	0	0	0	NA	0	0	0	NA	0	0	0	0	NA	0	0	2	1	38
Arrow Flanker 2014	12057	1	"<?xml version=""1.0""?>\n<Clock xmlns:dt=""urn:schemas-microsoft-com:datatypes""><Description dt:dt=""string"">E-Prime Primary Realtime Clock</Description><StartTime><Timestamp dt:dt=""int"">0</Timestamp><DateUtc dt:dt=""string"">2015-03-03T22:07:38Z</DateUtc></StartTime><FrequencyChanges><FrequencyChange><Frequency dt:dt=""r8"">2825634</Frequency><Timestamp dt:dt=""r8"">1121530378623</Timestamp><Current dt:dt=""r8"">0</Current><DateUtc dt:dt=""string"">2015-03-03T22:07:38Z</DateUtc></FrequencyChange></FrequencyChanges></Clock>\n"	Arrow Flanker 2014-12057-1	60.017	1.0.0.91	1	544454017	Professional	2.0.10.353	2.0.10.353	03-03-2015	NA	17:07:39	2.0.10.248	3	1	1	1	NA	NA	NA	NA	NA	NA	NA	NA	NA	NA	NA	NA	NA	NA	NA	NA	NA	NA	NA	NA	NA	NA	NA	NA	BlockProc	BlockList	NA	39	{LEFTARROW}	NA	-100	1649	neutral	NA	NA	NA	NA	NA	NA	NA	NA	NA	NA	NA	NA	NA	NA	NA	NA	NA	NA	NA	NA	NA	NA	TrialProc	TrialList	1	13	343731	17	0	17	341782	0	1	{LEFTARROW}	-999999	0	343315	0	{LEFTARROW}	403	343718	NA	NA	left	ooloo.bmp	354	0	NA	0	0	0	0	NA	0	0	0	NA	0	0	0	0	NA	0	0	5	1	39
Arrow Flanker 2014	12057	1	"<?xml version=""1.0""?>\n<Clock xmlns:dt=""urn:schemas-microsoft-com:datatypes""><Description dt:dt=""string"">E-Prime Primary Realtime Clock</Description><StartTime><Timestamp dt:dt=""int"">0</Timestamp><DateUtc dt:dt=""string"">2015-03-03T22:07:38Z</DateUtc></StartTime><FrequencyChanges><FrequencyChange><Frequency dt:dt=""r8"">2825634</Frequency><Timestamp dt:dt=""r8"">1121530378623</Timestamp><Current dt:dt=""r8"">0</Current><DateUtc dt:dt=""string"">2015-03-03T22:07:38Z</DateUtc></FrequencyChange></FrequencyChanges></Clock>\n"	Arrow Flanker 2014-12057-1	60.017	1.0.0.91	1	544454017	Professional	2.0.10.353	2.0.10.353	03-03-2015	NA	17:07:39	2.0.10.248	3	1	1	1	NA	NA	NA	NA	NA	NA	NA	NA	NA	NA	NA	NA	NA	NA	NA	NA	NA	NA	NA	NA	NA	NA	NA	NA	BlockProc	BlockList	NA	40	{RIGHTARROW}	NA	-100	1691	neutral	NA	NA	NA	NA	NA	NA	NA	NA	NA	NA	NA	NA	NA	NA	NA	NA	NA	NA	NA	NA	NA	NA	TrialProc	TrialList	0	8	346014	17	0	17	344265	0	1	{RIGHTARROW}	-999999	-1	345597	0	{RIGHTARROW}	409	346006	NA	NA	right	ooroo.bmp	354	0	NA	0	0	0	0	NA	0	0	0	NA	0	0	0	0	NA	0	0	6	1	40
Arrow Flanker 2014	12057	1	"<?xml version=""1.0""?>\n<Clock xmlns:dt=""urn:schemas-microsoft-com:datatypes""><Description dt:dt=""string"">E-Prime Primary Realtime Clock</Description><StartTime><Timestamp dt:dt=""int"">0</Timestamp><DateUtc dt:dt=""string"">2015-03-03T22:07:38Z</DateUtc></StartTime><FrequencyChanges><FrequencyChange><Frequency dt:dt=""r8"">2825634</Frequency><Timestamp dt:dt=""r8"">1121530378623</Timestamp><Current dt:dt=""r8"">0</Current><DateUtc dt:dt=""string"">2015-03-03T22:07:38Z</DateUtc></FrequencyChange></FrequencyChanges></Clock>\n"	Arrow Flanker 2014-12057-1	60.017	1.0.0.91	1	544454017	Professional	2.0.10.353	2.0.10.353	03-03-2015	NA	17:07:39	2.0.10.248	3	1	1	1	NA	NA	NA	NA	NA	NA	NA	NA	NA	NA	NA	NA	NA	NA	NA	NA	NA	NA	NA	NA	NA	NA	NA	NA	BlockProc	BlockList	NA	41	{RIGHTARROW}	NA	-100	1288	neutral	NA	NA	NA	NA	NA	NA	NA	NA	NA	NA	NA	NA	NA	NA	NA	NA	NA	NA	NA	NA	NA	NA	TrialProc	TrialList	1	5	348363	17	0	16	346547	0	1	{RIGHTARROW}	-999999	0	347930	0	{RIGHTARROW}	428	348358	NA	NA	right	ooroo.bmp	354	0	NA	0	0	0	0	NA	0	0	0	NA	0	0	0	0	NA	0	0	6	1	41
Arrow Flanker 2014	12057	1	"<?xml version=""1.0""?>\n<Clock xmlns:dt=""urn:schemas-microsoft-com:datatypes""><Description dt:dt=""string"">E-Prime Primary Realtime Clock</Description><StartTime><Timestamp dt:dt=""int"">0</Timestamp><DateUtc dt:dt=""string"">2015-03-03T22:07:38Z</DateUtc></StartTime><FrequencyChanges><FrequencyChange><Frequency dt:dt=""r8"">2825634</Frequency><Timestamp dt:dt=""r8"">1121530378623</Timestamp><Current dt:dt=""r8"">0</Current><DateUtc dt:dt=""string"">2015-03-03T22:07:38Z</DateUtc></FrequencyChange></FrequencyChanges></Clock>\n"	Arrow Flanker 2014-12057-1	60.017	1.0.0.91	1	544454017	Professional	2.0.10.353	2.0.10.353	03-03-2015	NA	17:07:39	2.0.10.248	3	1	1	1	NA	NA	NA	NA	NA	NA	NA	NA	NA	NA	NA	NA	NA	NA	NA	NA	NA	NA	NA	NA	NA	NA	NA	NA	BlockProc	BlockList	NA	42	{LEFTARROW}	NA	-100	1068	congruent	NA	NA	NA	NA	NA	NA	NA	NA	NA	NA	NA	NA	NA	NA	NA	NA	NA	NA	NA	NA	NA	NA	TrialProc	TrialList	0	13	350563	16	0	17	348897	0	1	{LEFTARROW}	-999999	0	350096	0	{LEFTARROW}	454	350550	NA	NA	left	lllll.bmp	354	0	NA	0	0	0	0	NA	0	0	0	NA	0	0	0	0	NA	0	0	1	1	42
Arrow Flanker 2014	12057	1	"<?xml version=""1.0""?>\n<Clock xmlns:dt=""urn:schemas-microsoft-com:datatypes""><Description dt:dt=""string"">E-Prime Primary Realtime Clock</Description><StartTime><Timestamp dt:dt=""int"">0</Timestamp><DateUtc dt:dt=""string"">2015-03-03T22:07:38Z</DateUtc></StartTime><FrequencyChanges><FrequencyChange><Frequency dt:dt=""r8"">2825634</Frequency><Timestamp dt:dt=""r8"">1121530378623</Timestamp><Current dt:dt=""r8"">0</Current><DateUtc dt:dt=""string"">2015-03-03T22:07:38Z</DateUtc></FrequencyChange></FrequencyChanges></Clock>\n"	Arrow Flanker 2014-12057-1	60.017	1.0.0.91	1	544454017	Professional	2.0.10.353	2.0.10.353	03-03-2015	NA	17:07:39	2.0.10.248	3	1	1	1	NA	NA	NA	NA	NA	NA	NA	NA	NA	NA	NA	NA	NA	NA	NA	NA	NA	NA	NA	NA	NA	NA	NA	NA	BlockProc	BlockList	NA	43	{RIGHTARROW}	NA	-100	1654	incongruent	NA	NA	NA	NA	NA	NA	NA	NA	NA	NA	NA	NA	NA	NA	NA	NA	NA	NA	NA	NA	NA	NA	TrialProc	TrialList	0	18	353512	17	0	17	351096	0	1	{RIGHTARROW}	-999999	0	352879	0	{RIGHTARROW}	615	353494	NA	NA	right	llrll.bmp	354	0	NA	0	0	0	0	NA	0	0	0	NA	0	0	0	0	NA	0	0	4	1	43
Arrow Flanker 2014	12057	1	"<?xml version=""1.0""?>\n<Clock xmlns:dt=""urn:schemas-microsoft-com:datatypes""><Description dt:dt=""string"">E-Prime Primary Realtime Clock</Description><StartTime><Timestamp dt:dt=""int"">0</Timestamp><DateUtc dt:dt=""string"">2015-03-03T22:07:38Z</DateUtc></StartTime><FrequencyChanges><FrequencyChange><Frequency dt:dt=""r8"">2825634</Frequency><Timestamp dt:dt=""r8"">1121530378623</Timestamp><Current dt:dt=""r8"">0</Current><DateUtc dt:dt=""string"">2015-03-03T22:07:38Z</DateUtc></FrequencyChange></FrequencyChanges></Clock>\n"	Arrow Flanker 2014-12057-1	60.017	1.0.0.91	1	544454017	Professional	2.0.10.353	2.0.10.353	03-03-2015	NA	17:07:39	2.0.10.248	3	1	1	1	NA	NA	NA	NA	NA	NA	NA	NA	NA	NA	NA	NA	NA	NA	NA	NA	NA	NA	NA	NA	NA	NA	NA	NA	BlockProc	BlockList	NA	44	{LEFTARROW}	NA	-100	2593	congruent	NA	NA	NA	NA	NA	NA	NA	NA	NA	NA	NA	NA	NA	NA	NA	NA	NA	NA	NA	NA	NA	NA	TrialProc	TrialList	0	5	356395	16	0	16	354045	0	1	{LEFTARROW}	-999999	0	355978	0	{LEFTARROW}	412	356390	NA	NA	left	lllll.bmp	354	0	NA	0	0	0	0	NA	0	0	0	NA	0	0	0	0	NA	0	0	1	1	44
Arrow Flanker 2014	12057	1	"<?xml version=""1.0""?>\n<Clock xmlns:dt=""urn:schemas-microsoft-com:datatypes""><Description dt:dt=""string"">E-Prime Primary Realtime Clock</Description><StartTime><Timestamp dt:dt=""int"">0</Timestamp><DateUtc dt:dt=""string"">2015-03-03T22:07:38Z</DateUtc></StartTime><FrequencyChanges><FrequencyChange><Frequency dt:dt=""r8"">2825634</Frequency><Timestamp dt:dt=""r8"">1121530378623</Timestamp><Current dt:dt=""r8"">0</Current><DateUtc dt:dt=""string"">2015-03-03T22:07:38Z</DateUtc></FrequencyChange></FrequencyChanges></Clock>\n"	Arrow Flanker 2014-12057-1	60.017	1.0.0.91	1	544454017	Professional	2.0.10.353	2.0.10.353	03-03-2015	NA	17:07:39	2.0.10.248	3	1	1	1	NA	NA	NA	NA	NA	NA	NA	NA	NA	NA	NA	NA	NA	NA	NA	NA	NA	NA	NA	NA	NA	NA	NA	NA	BlockProc	BlockList	NA	45	{RIGHTARROW}	NA	-100	740	incongruent	NA	NA	NA	NA	NA	NA	NA	NA	NA	NA	NA	NA	NA	NA	NA	NA	NA	NA	NA	NA	NA	NA	TrialProc	TrialList	0	6	358844	16	0	17	356928	0	1	{RIGHTARROW}	-999999	0	357877	0	{RIGHTARROW}	960	358837	NA	NA	right	llrll.bmp	354	0	NA	0	0	0	0	NA	0	0	0	NA	0	0	0	0	NA	0	0	4	1	45
Arrow Flanker 2014	12057	1	"<?xml version=""1.0""?>\n<Clock xmlns:dt=""urn:schemas-microsoft-com:datatypes""><Description dt:dt=""string"">E-Prime Primary Realtime Clock</Description><StartTime><Timestamp dt:dt=""int"">0</Timestamp><DateUtc dt:dt=""string"">2015-03-03T22:07:38Z</DateUtc></StartTime><FrequencyChanges><FrequencyChange><Frequency dt:dt=""r8"">2825634</Frequency><Timestamp dt:dt=""r8"">1121530378623</Timestamp><Current dt:dt=""r8"">0</Current><DateUtc dt:dt=""string"">2015-03-03T22:07:38Z</DateUtc></FrequencyChange></FrequencyChanges></Clock>\n"	Arrow Flanker 2014-12057-1	60.017	1.0.0.91	1	544454017	Professional	2.0.10.353	2.0.10.353	03-03-2015	NA	17:07:39	2.0.10.248	3	1	1	1	NA	NA	NA	NA	NA	NA	NA	NA	NA	NA	NA	NA	NA	NA	NA	NA	NA	NA	NA	NA	NA	NA	NA	NA	BlockProc	BlockList	NA	46	{RIGHTARROW}	NA	-100	1233	neutral	NA	NA	NA	NA	NA	NA	NA	NA	NA	NA	NA	NA	NA	NA	NA	NA	NA	NA	NA	NA	NA	NA	TrialProc	TrialList	1	16	361126	17	0	17	359377	0	1	{RIGHTARROW}	-999999	0	360560	0	{RIGHTARROW}	549	361109	NA	NA	right	ooroo.bmp	354	0	NA	0	0	0	0	NA	0	0	0	NA	0	0	0	0	NA	0	0	6	1	46
Arrow Flanker 2014	12057	1	"<?xml version=""1.0""?>\n<Clock xmlns:dt=""urn:schemas-microsoft-com:datatypes""><Description dt:dt=""string"">E-Prime Primary Realtime Clock</Description><StartTime><Timestamp dt:dt=""int"">0</Timestamp><DateUtc dt:dt=""string"">2015-03-03T22:07:38Z</DateUtc></StartTime><FrequencyChanges><FrequencyChange><Frequency dt:dt=""r8"">2825634</Frequency><Timestamp dt:dt=""r8"">1121530378623</Timestamp><Current dt:dt=""r8"">0</Current><DateUtc dt:dt=""string"">2015-03-03T22:07:38Z</DateUtc></FrequencyChange></FrequencyChanges></Clock>\n"	Arrow Flanker 2014-12057-1	60.017	1.0.0.91	1	544454017	Professional	2.0.10.353	2.0.10.353	03-03-2015	NA	17:07:39	2.0.10.248	3	1	1	1	NA	NA	NA	NA	NA	NA	NA	NA	NA	NA	NA	NA	NA	NA	NA	NA	NA	NA	NA	NA	NA	NA	NA	NA	BlockProc	BlockList	NA	47	{LEFTARROW}	NA	-100	2533	congruent	NA	NA	NA	NA	NA	NA	NA	NA	NA	NA	NA	NA	NA	NA	NA	NA	NA	NA	NA	NA	NA	NA	TrialProc	TrialList	0	10	364159	17	0	17	361660	0	1	{LEFTARROW}	-999999	0	363592	0	{LEFTARROW}	557	364149	NA	NA	left	lllll.bmp	354	0	NA	0	0	0	0	NA	0	0	0	NA	0	0	0	0	NA	0	0	1	1	47
Arrow Flanker 2014	12057	1	"<?xml version=""1.0""?>\n<Clock xmlns:dt=""urn:schemas-microsoft-com:datatypes""><Description dt:dt=""string"">E-Prime Primary Realtime Clock</Description><StartTime><Timestamp dt:dt=""int"">0</Timestamp><DateUtc dt:dt=""string"">2015-03-03T22:07:38Z</DateUtc></StartTime><FrequencyChanges><FrequencyChange><Frequency dt:dt=""r8"">2825634</Frequency><Timestamp dt:dt=""r8"">1121530378623</Timestamp><Current dt:dt=""r8"">0</Current><DateUtc dt:dt=""string"">2015-03-03T22:07:38Z</DateUtc></FrequencyChange></FrequencyChanges></Clock>\n"	Arrow Flanker 2014-12057-1	60.017	1.0.0.91	1	544454017	Professional	2.0.10.353	2.0.10.353	03-03-2015	NA	17:07:39	2.0.10.248	3	1	1	1	NA	NA	NA	NA	NA	NA	NA	NA	NA	NA	NA	NA	NA	NA	NA	NA	NA	NA	NA	NA	NA	NA	NA	NA	BlockProc	BlockList	NA	48	{LEFTARROW}	NA	-100	933	congruent	NA	NA	NA	NA	NA	NA	NA	NA	NA	NA	NA	NA	NA	NA	NA	NA	NA	NA	NA	NA	NA	NA	TrialProc	TrialList	0	13	366658	17	0	16	364692	0	1	{LEFTARROW}	-999999	0	366025	0	{LEFTARROW}	620	366645	NA	NA	left	lllll.bmp	354	0	NA	0	0	0	0	NA	0	0	0	NA	0	0	0	0	NA	0	0	1	1	48
Arrow Flanker 2014	12057	1	"<?xml version=""1.0""?>\n<Clock xmlns:dt=""urn:schemas-microsoft-com:datatypes""><Description dt:dt=""string"">E-Prime Primary Realtime Clock</Description><StartTime><Timestamp dt:dt=""int"">0</Timestamp><DateUtc dt:dt=""string"">2015-03-03T22:07:38Z</DateUtc></StartTime><FrequencyChanges><FrequencyChange><Frequency dt:dt=""r8"">2825634</Frequency><Timestamp dt:dt=""r8"">1121530378623</Timestamp><Current dt:dt=""r8"">0</Current><DateUtc dt:dt=""string"">2015-03-03T22:07:38Z</DateUtc></FrequencyChange></FrequencyChanges></Clock>\n"	Arrow Flanker 2014-12057-1	60.017	1.0.0.91	1	544454017	Professional	2.0.10.353	2.0.10.353	03-03-2015	NA	17:07:39	2.0.10.248	3	1	1	1	NA	NA	NA	NA	NA	NA	NA	NA	NA	NA	NA	NA	NA	NA	NA	NA	NA	NA	NA	NA	NA	NA	NA	NA	BlockProc	BlockList	NA	49	{LEFTARROW}	NA	-100	696	incongruent	NA	NA	NA	NA	NA	NA	NA	NA	NA	NA	NA	NA	NA	NA	NA	NA	NA	NA	NA	NA	NA	NA	TrialProc	TrialList	1	20	368857	17	0	16	367191	0	1	{LEFTARROW}	-999999	0	368191	0	{LEFTARROW}	646	368837	NA	NA	left	rrlrr.bmp	354	0	NA	0	0	0	0	NA	0	0	0	NA	0	0	0	0	NA	0	0	3	1	49
Arrow Flanker 2014	12057	1	"<?xml version=""1.0""?>\n<Clock xmlns:dt=""urn:schemas-microsoft-com:datatypes""><Description dt:dt=""string"">E-Prime Primary Realtime Clock</Description><StartTime><Timestamp dt:dt=""int"">0</Timestamp><DateUtc dt:dt=""string"">2015-03-03T22:07:38Z</DateUtc></StartTime><FrequencyChanges><FrequencyChange><Frequency dt:dt=""r8"">2825634</Frequency><Timestamp dt:dt=""r8"">1121530378623</Timestamp><Current dt:dt=""r8"">0</Current><DateUtc dt:dt=""string"">2015-03-03T22:07:38Z</DateUtc></FrequencyChange></FrequencyChanges></Clock>\n"	Arrow Flanker 2014-12057-1	60.017	1.0.0.91	1	544454017	Professional	2.0.10.353	2.0.10.353	03-03-2015	NA	17:07:39	2.0.10.248	3	1	1	1	NA	NA	NA	NA	NA	NA	NA	NA	NA	NA	NA	NA	NA	NA	NA	NA	NA	NA	NA	NA	NA	NA	NA	NA	BlockProc	BlockList	NA	50	{LEFTARROW}	NA	-100	2310	neutral	NA	NA	NA	NA	NA	NA	NA	NA	NA	NA	NA	NA	NA	NA	NA	NA	NA	NA	NA	NA	NA	NA	TrialProc	TrialList	0	5	371690	17	0	17	369391	0	1	{LEFTARROW}	-999999	0	371224	0	{LEFTARROW}	461	371685	NA	NA	left	ooloo.bmp	354	0	NA	0	0	0	0	NA	0	0	0	NA	0	0	0	0	NA	0	0	5	1	50
Arrow Flanker 2014	12057	1	"<?xml version=""1.0""?>\n<Clock xmlns:dt=""urn:schemas-microsoft-com:datatypes""><Description dt:dt=""string"">E-Prime Primary Realtime Clock</Description><StartTime><Timestamp dt:dt=""int"">0</Timestamp><DateUtc dt:dt=""string"">2015-03-03T22:07:38Z</DateUtc></StartTime><FrequencyChanges><FrequencyChange><Frequency dt:dt=""r8"">2825634</Frequency><Timestamp dt:dt=""r8"">1121530378623</Timestamp><Current dt:dt=""r8"">0</Current><DateUtc dt:dt=""string"">2015-03-03T22:07:38Z</DateUtc></FrequencyChange></FrequencyChanges></Clock>\n"	Arrow Flanker 2014-12057-1	60.017	1.0.0.91	1	544454017	Professional	2.0.10.353	2.0.10.353	03-03-2015	NA	17:07:39	2.0.10.248	3	1	1	1	NA	NA	NA	NA	NA	NA	NA	NA	NA	NA	NA	NA	NA	NA	NA	NA	NA	NA	NA	NA	NA	NA	NA	NA	BlockProc	BlockList	NA	51	{LEFTARROW}	NA	-100	1857	incongruent	NA	NA	NA	NA	NA	NA	NA	NA	NA	NA	NA	NA	NA	NA	NA	NA	NA	NA	NA	NA	NA	NA	TrialProc	TrialList	0	8	374573	16	0	16	372223	0	1	{LEFTARROW}	-999999	0	373856	0	{LEFTARROW}	709	374565	NA	NA	left	rrlrr.bmp	354	0	NA	0	0	0	0	NA	0	0	0	NA	0	0	0	0	NA	0	0	3	1	51
Arrow Flanker 2014	12057	1	"<?xml version=""1.0""?>\n<Clock xmlns:dt=""urn:schemas-microsoft-com:datatypes""><Description dt:dt=""string"">E-Prime Primary Realtime Clock</Description><StartTime><Timestamp dt:dt=""int"">0</Timestamp><DateUtc dt:dt=""string"">2015-03-03T22:07:38Z</DateUtc></StartTime><FrequencyChanges><FrequencyChange><Frequency dt:dt=""r8"">2825634</Frequency><Timestamp dt:dt=""r8"">1121530378623</Timestamp><Current dt:dt=""r8"">0</Current><DateUtc dt:dt=""string"">2015-03-03T22:07:38Z</DateUtc></FrequencyChange></FrequencyChanges></Clock>\n"	Arrow Flanker 2014-12057-1	60.017	1.0.0.91	1	544454017	Professional	2.0.10.353	2.0.10.353	03-03-2015	NA	17:07:39	2.0.10.248	3	1	1	1	NA	NA	NA	NA	NA	NA	NA	NA	NA	NA	NA	NA	NA	NA	NA	NA	NA	NA	NA	NA	NA	NA	NA	NA	BlockProc	BlockList	NA	52	{RIGHTARROW}	NA	-100	1125	incongruent	NA	NA	NA	NA	NA	NA	NA	NA	NA	NA	NA	NA	NA	NA	NA	NA	NA	NA	NA	NA	NA	NA	TrialProc	TrialList	0	5	376906	16	0	17	375106	0	1	{RIGHTARROW}	-999999	16	376222	0	{RIGHTARROW}	678	376900	NA	NA	right	llrll.bmp	354	0	NA	0	0	0	0	NA	0	0	0	NA	0	0	0	0	NA	0	0	4	1	52
Arrow Flanker 2014	12057	1	"<?xml version=""1.0""?>\n<Clock xmlns:dt=""urn:schemas-microsoft-com:datatypes""><Description dt:dt=""string"">E-Prime Primary Realtime Clock</Description><StartTime><Timestamp dt:dt=""int"">0</Timestamp><DateUtc dt:dt=""string"">2015-03-03T22:07:38Z</DateUtc></StartTime><FrequencyChanges><FrequencyChange><Frequency dt:dt=""r8"">2825634</Frequency><Timestamp dt:dt=""r8"">1121530378623</Timestamp><Current dt:dt=""r8"">0</Current><DateUtc dt:dt=""string"">2015-03-03T22:07:38Z</DateUtc></FrequencyChange></FrequencyChanges></Clock>\n"	Arrow Flanker 2014-12057-1	60.017	1.0.0.91	1	544454017	Professional	2.0.10.353	2.0.10.353	03-03-2015	NA	17:07:39	2.0.10.248	3	1	1	1	NA	NA	NA	NA	NA	NA	NA	NA	NA	NA	NA	NA	NA	NA	NA	NA	NA	NA	NA	NA	NA	NA	NA	NA	BlockProc	BlockList	NA	53	{RIGHTARROW}	NA	-100	1164	incongruent	NA	NA	NA	NA	NA	NA	NA	NA	NA	NA	NA	NA	NA	NA	NA	NA	NA	NA	NA	NA	NA	NA	TrialProc	TrialList	0	6	379371	17	0	16	377438	0	1	{RIGHTARROW}	-999999	0	378588	0	{RIGHTARROW}	776	379364	NA	NA	right	llrll.bmp	354	0	NA	0	0	0	0	NA	0	0	0	NA	0	0	0	0	NA	0	0	4	1	53
Arrow Flanker 2014	12057	1	"<?xml version=""1.0""?>\n<Clock xmlns:dt=""urn:schemas-microsoft-com:datatypes""><Description dt:dt=""string"">E-Prime Primary Realtime Clock</Description><StartTime><Timestamp dt:dt=""int"">0</Timestamp><DateUtc dt:dt=""string"">2015-03-03T22:07:38Z</DateUtc></StartTime><FrequencyChanges><FrequencyChange><Frequency dt:dt=""r8"">2825634</Frequency><Timestamp dt:dt=""r8"">1121530378623</Timestamp><Current dt:dt=""r8"">0</Current><DateUtc dt:dt=""string"">2015-03-03T22:07:38Z</DateUtc></FrequencyChange></FrequencyChanges></Clock>\n"	Arrow Flanker 2014-12057-1	60.017	1.0.0.91	1	544454017	Professional	2.0.10.353	2.0.10.353	03-03-2015	NA	17:07:39	2.0.10.248	3	1	1	1	NA	NA	NA	NA	NA	NA	NA	NA	NA	NA	NA	NA	NA	NA	NA	NA	NA	NA	NA	NA	NA	NA	NA	NA	BlockProc	BlockList	NA	54	{LEFTARROW}	NA	-100	1701	incongruent	NA	NA	NA	NA	NA	NA	NA	NA	NA	NA	NA	NA	NA	NA	NA	NA	NA	NA	NA	NA	3	1	TrialProc	TrialList	0	9	381837	17	0	16	379904	0	1	{LEFTARROW}	-999999	0	381271	0	{LEFTARROW}	557	381828	NA	NA	left	rrlrr.bmp	354	0	NA	-999999	16	382370	0	1	4515	386885	0	NA	-999999	17	386902	0	1	1422	388324	3	1	54
Arrow Flanker 2014	12057	1	"<?xml version=""1.0""?>\n<Clock xmlns:dt=""urn:schemas-microsoft-com:datatypes""><Description dt:dt=""string"">E-Prime Primary Realtime Clock</Description><StartTime><Timestamp dt:dt=""int"">0</Timestamp><DateUtc dt:dt=""string"">2015-03-03T22:07:38Z</DateUtc></StartTime><FrequencyChanges><FrequencyChange><Frequency dt:dt=""r8"">2825634</Frequency><Timestamp dt:dt=""r8"">1121530378623</Timestamp><Current dt:dt=""r8"">0</Current><DateUtc dt:dt=""string"">2015-03-03T22:07:38Z</DateUtc></FrequencyChange></FrequencyChanges></Clock>\n"	Arrow Flanker 2014-12057-1	60.017	1.0.0.91	1	544454017	Professional	2.0.10.353	2.0.10.353	03-03-2015	NA	17:07:39	2.0.10.248	3	1	1	1	NA	NA	NA	NA	NA	NA	NA	NA	NA	NA	NA	NA	NA	NA	NA	NA	NA	NA	NA	NA	NA	NA	NA	NA	BlockProc	BlockList	NA	55	{LEFTARROW}	NA	-100	1420	neutral	NA	NA	NA	NA	NA	NA	NA	NA	NA	NA	NA	NA	NA	NA	NA	NA	NA	NA	NA	NA	NA	NA	TrialProc	TrialList	0	13	392001	16	0	25	389885	0	1	{LEFTARROW}	-999999	0	391384	0	{LEFTARROW}	604	391988	NA	NA	left	ooloo.bmp	354	0	NA	0	0	0	0	NA	0	0	0	NA	0	0	0	0	NA	0	0	5	1	55
Arrow Flanker 2014	12057	1	"<?xml version=""1.0""?>\n<Clock xmlns:dt=""urn:schemas-microsoft-com:datatypes""><Description dt:dt=""string"">E-Prime Primary Realtime Clock</Description><StartTime><Timestamp dt:dt=""int"">0</Timestamp><DateUtc dt:dt=""string"">2015-03-03T22:07:38Z</DateUtc></StartTime><FrequencyChanges><FrequencyChange><Frequency dt:dt=""r8"">2825634</Frequency><Timestamp dt:dt=""r8"">1121530378623</Timestamp><Current dt:dt=""r8"">0</Current><DateUtc dt:dt=""string"">2015-03-03T22:07:38Z</DateUtc></FrequencyChange></FrequencyChanges></Clock>\n"	Arrow Flanker 2014-12057-1	60.017	1.0.0.91	1	544454017	Professional	2.0.10.353	2.0.10.353	03-03-2015	NA	17:07:39	2.0.10.248	3	1	1	1	NA	NA	NA	NA	NA	NA	NA	NA	NA	NA	NA	NA	NA	NA	NA	NA	NA	NA	NA	NA	NA	NA	NA	NA	BlockProc	BlockList	NA	56	{RIGHTARROW}	NA	-100	1724	incongruent	NA	NA	NA	NA	NA	NA	NA	NA	NA	NA	NA	NA	NA	NA	NA	NA	NA	NA	NA	NA	NA	NA	TrialProc	TrialList	0	12	394800	17	0	17	392534	0	1	{RIGHTARROW}	-999999	0	394200	0	{RIGHTARROW}	588	394788	NA	NA	right	llrll.bmp	354	0	NA	0	0	0	0	NA	0	0	0	NA	0	0	0	0	NA	0	0	4	1	56
Arrow Flanker 2014	12057	1	"<?xml version=""1.0""?>\n<Clock xmlns:dt=""urn:schemas-microsoft-com:datatypes""><Description dt:dt=""string"">E-Prime Primary Realtime Clock</Description><StartTime><Timestamp dt:dt=""int"">0</Timestamp><DateUtc dt:dt=""string"">2015-03-03T22:07:38Z</DateUtc></StartTime><FrequencyChanges><FrequencyChange><Frequency dt:dt=""r8"">2825634</Frequency><Timestamp dt:dt=""r8"">1121530378623</Timestamp><Current dt:dt=""r8"">0</Current><DateUtc dt:dt=""string"">2015-03-03T22:07:38Z</DateUtc></FrequencyChange></FrequencyChanges></Clock>\n"	Arrow Flanker 2014-12057-1	60.017	1.0.0.91	1	544454017	Professional	2.0.10.353	2.0.10.353	03-03-2015	NA	17:07:39	2.0.10.248	3	1	1	1	NA	NA	NA	NA	NA	NA	NA	NA	NA	NA	NA	NA	NA	NA	NA	NA	NA	NA	NA	NA	NA	NA	NA	NA	BlockProc	BlockList	NA	57	{LEFTARROW}	NA	-100	2501	incongruent	NA	NA	NA	NA	NA	NA	NA	NA	NA	NA	NA	NA	NA	NA	NA	NA	NA	NA	NA	NA	NA	NA	TrialProc	TrialList	0	7	397899	17	0	16	395333	0	1	{LEFTARROW}	-999999	0	397399	0	{LEFTARROW}	492	397891	NA	NA	left	rrlrr.bmp	354	0	NA	0	0	0	0	NA	0	0	0	NA	0	0	0	0	NA	0	0	3	1	57
Arrow Flanker 2014	12057	1	"<?xml version=""1.0""?>\n<Clock xmlns:dt=""urn:schemas-microsoft-com:datatypes""><Description dt:dt=""string"">E-Prime Primary Realtime Clock</Description><StartTime><Timestamp dt:dt=""int"">0</Timestamp><DateUtc dt:dt=""string"">2015-03-03T22:07:38Z</DateUtc></StartTime><FrequencyChanges><FrequencyChange><Frequency dt:dt=""r8"">2825634</Frequency><Timestamp dt:dt=""r8"">1121530378623</Timestamp><Current dt:dt=""r8"">0</Current><DateUtc dt:dt=""string"">2015-03-03T22:07:38Z</DateUtc></FrequencyChange></FrequencyChanges></Clock>\n"	Arrow Flanker 2014-12057-1	60.017	1.0.0.91	1	544454017	Professional	2.0.10.353	2.0.10.353	03-03-2015	NA	17:07:39	2.0.10.248	3	1	1	1	NA	NA	NA	NA	NA	NA	NA	NA	NA	NA	NA	NA	NA	NA	NA	NA	NA	NA	NA	NA	NA	NA	NA	NA	BlockProc	BlockList	NA	58	{RIGHTARROW}	NA	-100	1887	incongruent	NA	NA	NA	NA	NA	NA	NA	NA	NA	NA	NA	NA	NA	NA	NA	NA	NA	NA	NA	NA	NA	NA	TrialProc	TrialList	0	12	400815	17	0	16	398432	0	1	{RIGHTARROW}	-999999	0	400315	0	{RIGHTARROW}	488	400803	NA	NA	right	llrll.bmp	354	0	NA	0	0	0	0	NA	0	0	0	NA	0	0	0	0	NA	0	0	4	1	58
Arrow Flanker 2014	12057	1	"<?xml version=""1.0""?>\n<Clock xmlns:dt=""urn:schemas-microsoft-com:datatypes""><Description dt:dt=""string"">E-Prime Primary Realtime Clock</Description><StartTime><Timestamp dt:dt=""int"">0</Timestamp><DateUtc dt:dt=""string"">2015-03-03T22:07:38Z</DateUtc></StartTime><FrequencyChanges><FrequencyChange><Frequency dt:dt=""r8"">2825634</Frequency><Timestamp dt:dt=""r8"">1121530378623</Timestamp><Current dt:dt=""r8"">0</Current><DateUtc dt:dt=""string"">2015-03-03T22:07:38Z</DateUtc></FrequencyChange></FrequencyChanges></Clock>\n"	Arrow Flanker 2014-12057-1	60.017	1.0.0.91	1	544454017	Professional	2.0.10.353	2.0.10.353	03-03-2015	NA	17:07:39	2.0.10.248	3	1	1	1	NA	NA	NA	NA	NA	NA	NA	NA	NA	NA	NA	NA	NA	NA	NA	NA	NA	NA	NA	NA	NA	NA	NA	NA	BlockProc	BlockList	NA	59	{LEFTARROW}	NA	-100	2581	neutral	NA	NA	NA	NA	NA	NA	NA	NA	NA	NA	NA	NA	NA	NA	NA	NA	NA	NA	NA	NA	NA	NA	TrialProc	TrialList	1	5	403864	17	0	16	401348	0	1	{LEFTARROW}	-999999	0	403431	0	{LEFTARROW}	428	403859	NA	NA	left	ooloo.bmp	354	0	NA	0	0	0	0	NA	0	0	0	NA	0	0	0	0	NA	0	0	5	1	59
Arrow Flanker 2014	12057	1	"<?xml version=""1.0""?>\n<Clock xmlns:dt=""urn:schemas-microsoft-com:datatypes""><Description dt:dt=""string"">E-Prime Primary Realtime Clock</Description><StartTime><Timestamp dt:dt=""int"">0</Timestamp><DateUtc dt:dt=""string"">2015-03-03T22:07:38Z</DateUtc></StartTime><FrequencyChanges><FrequencyChange><Frequency dt:dt=""r8"">2825634</Frequency><Timestamp dt:dt=""r8"">1121530378623</Timestamp><Current dt:dt=""r8"">0</Current><DateUtc dt:dt=""string"">2015-03-03T22:07:38Z</DateUtc></FrequencyChange></FrequencyChanges></Clock>\n"	Arrow Flanker 2014-12057-1	60.017	1.0.0.91	1	544454017	Professional	2.0.10.353	2.0.10.353	03-03-2015	NA	17:07:39	2.0.10.248	3	1	1	1	NA	NA	NA	NA	NA	NA	NA	NA	NA	NA	NA	NA	NA	NA	NA	NA	NA	NA	NA	NA	NA	NA	NA	NA	BlockProc	BlockList	NA	60	{LEFTARROW}	NA	-100	2154	neutral	NA	NA	NA	NA	NA	NA	NA	NA	NA	NA	NA	NA	NA	NA	NA	NA	NA	NA	NA	NA	NA	NA	TrialProc	TrialList	0	11	406830	17	0	16	404397	1567	1	{LEFTARROW}	-999999	0	406463	0	{LEFTARROW}	356	406819	NA	NA	left	ooloo.bmp	354	0	NA	0	0	0	0	NA	0	0	0	NA	0	0	0	0	NA	0	0	5	1	60
Arrow Flanker 2014	12057	1	"<?xml version=""1.0""?>\n<Clock xmlns:dt=""urn:schemas-microsoft-com:datatypes""><Description dt:dt=""string"">E-Prime Primary Realtime Clock</Description><StartTime><Timestamp dt:dt=""int"">0</Timestamp><DateUtc dt:dt=""string"">2015-03-03T22:07:38Z</DateUtc></StartTime><FrequencyChanges><FrequencyChange><Frequency dt:dt=""r8"">2825634</Frequency><Timestamp dt:dt=""r8"">1121530378623</Timestamp><Current dt:dt=""r8"">0</Current><DateUtc dt:dt=""string"">2015-03-03T22:07:38Z</DateUtc></FrequencyChange></FrequencyChanges></Clock>\n"	Arrow Flanker 2014-12057-1	60.017	1.0.0.91	1	544454017	Professional	2.0.10.353	2.0.10.353	03-03-2015	NA	17:07:39	2.0.10.248	3	1	1	1	NA	NA	NA	NA	NA	NA	NA	NA	NA	NA	NA	NA	NA	NA	NA	NA	NA	NA	NA	NA	NA	NA	NA	NA	BlockProc	BlockList	NA	61	{LEFTARROW}	NA	-100	1716	congruent	NA	NA	NA	NA	NA	NA	NA	NA	NA	NA	NA	NA	NA	NA	NA	NA	NA	NA	NA	NA	NA	NA	TrialProc	TrialList	0	8	409179	17	0	16	407363	0	1	{LEFTARROW}	-999999	0	408713	0	{LEFTARROW}	458	409171	NA	NA	left	lllll.bmp	354	0	NA	0	0	0	0	NA	0	0	0	NA	0	0	0	0	NA	0	0	1	1	61
Arrow Flanker 2014	12057	1	"<?xml version=""1.0""?>\n<Clock xmlns:dt=""urn:schemas-microsoft-com:datatypes""><Description dt:dt=""string"">E-Prime Primary Realtime Clock</Description><StartTime><Timestamp dt:dt=""int"">0</Timestamp><DateUtc dt:dt=""string"">2015-03-03T22:07:38Z</DateUtc></StartTime><FrequencyChanges><FrequencyChange><Frequency dt:dt=""r8"">2825634</Frequency><Timestamp dt:dt=""r8"">1121530378623</Timestamp><Current dt:dt=""r8"">0</Current><DateUtc dt:dt=""string"">2015-03-03T22:07:38Z</DateUtc></FrequencyChange></FrequencyChanges></Clock>\n"	Arrow Flanker 2014-12057-1	60.017	1.0.0.91	1	544454017	Professional	2.0.10.353	2.0.10.353	03-03-2015	NA	17:07:39	2.0.10.248	3	1	1	1	NA	NA	NA	NA	NA	NA	NA	NA	NA	NA	NA	NA	NA	NA	NA	NA	NA	NA	NA	NA	NA	NA	NA	NA	BlockProc	BlockList	NA	62	{LEFTARROW}	NA	-100	1825	congruent	NA	NA	NA	NA	NA	NA	NA	NA	NA	NA	NA	NA	NA	NA	NA	NA	NA	NA	NA	NA	NA	NA	TrialProc	TrialList	0	14	411745	17	0	16	409712	0	1	{LEFTARROW}	-999999	0	411345	0	{LEFTARROW}	386	411731	NA	NA	left	lllll.bmp	354	0	NA	0	0	0	0	NA	0	0	0	NA	0	0	0	0	NA	0	0	1	1	62
Arrow Flanker 2014	12057	1	"<?xml version=""1.0""?>\n<Clock xmlns:dt=""urn:schemas-microsoft-com:datatypes""><Description dt:dt=""string"">E-Prime Primary Realtime Clock</Description><StartTime><Timestamp dt:dt=""int"">0</Timestamp><DateUtc dt:dt=""string"">2015-03-03T22:07:38Z</DateUtc></StartTime><FrequencyChanges><FrequencyChange><Frequency dt:dt=""r8"">2825634</Frequency><Timestamp dt:dt=""r8"">1121530378623</Timestamp><Current dt:dt=""r8"">0</Current><DateUtc dt:dt=""string"">2015-03-03T22:07:38Z</DateUtc></FrequencyChange></FrequencyChanges></Clock>\n"	Arrow Flanker 2014-12057-1	60.017	1.0.0.91	1	544454017	Professional	2.0.10.353	2.0.10.353	03-03-2015	NA	17:07:39	2.0.10.248	3	1	1	1	NA	NA	NA	NA	NA	NA	NA	NA	NA	NA	NA	NA	NA	NA	NA	NA	NA	NA	NA	NA	NA	NA	NA	NA	BlockProc	BlockList	NA	63	{LEFTARROW}	NA	-100	1108	congruent	NA	NA	NA	NA	NA	NA	NA	NA	NA	NA	NA	NA	NA	NA	NA	NA	NA	NA	NA	NA	NA	NA	TrialProc	TrialList	0	12	413695	16	0	16	412278	0	1	{LEFTARROW}	-999999	0	413245	0	{LEFTARROW}	438	413683	NA	NA	left	lllll.bmp	354	0	NA	0	0	0	0	NA	0	0	0	NA	0	0	0	0	NA	0	0	1	1	63
Arrow Flanker 2014	12057	1	"<?xml version=""1.0""?>\n<Clock xmlns:dt=""urn:schemas-microsoft-com:datatypes""><Description dt:dt=""string"">E-Prime Primary Realtime Clock</Description><StartTime><Timestamp dt:dt=""int"">0</Timestamp><DateUtc dt:dt=""string"">2015-03-03T22:07:38Z</DateUtc></StartTime><FrequencyChanges><FrequencyChange><Frequency dt:dt=""r8"">2825634</Frequency><Timestamp dt:dt=""r8"">1121530378623</Timestamp><Current dt:dt=""r8"">0</Current><DateUtc dt:dt=""string"">2015-03-03T22:07:38Z</DateUtc></FrequencyChange></FrequencyChanges></Clock>\n"	Arrow Flanker 2014-12057-1	60.017	1.0.0.91	1	544454017	Professional	2.0.10.353	2.0.10.353	03-03-2015	NA	17:07:39	2.0.10.248	3	1	1	1	NA	NA	NA	NA	NA	NA	NA	NA	NA	NA	NA	NA	NA	NA	NA	NA	NA	NA	NA	NA	NA	NA	NA	NA	BlockProc	BlockList	NA	64	{RIGHTARROW}	NA	-100	895	congruent	NA	NA	NA	NA	NA	NA	NA	NA	NA	NA	NA	NA	NA	NA	NA	NA	NA	NA	NA	NA	NA	NA	TrialProc	TrialList	0	9	416044	17	0	17	414228	0	1	{RIGHTARROW}	-999999	0	415461	0	{RIGHTARROW}	574	416035	NA	NA	right	rrrrr.bmp	354	0	NA	0	0	0	0	NA	0	0	0	NA	0	0	0	0	NA	0	0	2	1	64
Arrow Flanker 2014	12057	1	"<?xml version=""1.0""?>\n<Clock xmlns:dt=""urn:schemas-microsoft-com:datatypes""><Description dt:dt=""string"">E-Prime Primary Realtime Clock</Description><StartTime><Timestamp dt:dt=""int"">0</Timestamp><DateUtc dt:dt=""string"">2015-03-03T22:07:38Z</DateUtc></StartTime><FrequencyChanges><FrequencyChange><Frequency dt:dt=""r8"">2825634</Frequency><Timestamp dt:dt=""r8"">1121530378623</Timestamp><Current dt:dt=""r8"">0</Current><DateUtc dt:dt=""string"">2015-03-03T22:07:38Z</DateUtc></FrequencyChange></FrequencyChanges></Clock>\n"	Arrow Flanker 2014-12057-1	60.017	1.0.0.91	1	544454017	Professional	2.0.10.353	2.0.10.353	03-03-2015	NA	17:07:39	2.0.10.248	3	1	1	1	NA	NA	NA	NA	NA	NA	NA	NA	NA	NA	NA	NA	NA	NA	NA	NA	NA	NA	NA	NA	NA	NA	NA	NA	BlockProc	BlockList	NA	65	{RIGHTARROW}	NA	-100	2330	congruent	NA	NA	NA	NA	NA	NA	NA	NA	NA	NA	NA	NA	NA	NA	NA	NA	NA	NA	NA	NA	NA	NA	TrialProc	TrialList	0	17	419043	17	0	16	416577	0	1	{RIGHTARROW}	-999999	0	418593	0	{RIGHTARROW}	433	419026	NA	NA	right	rrrrr.bmp	354	0	NA	0	0	0	0	NA	0	0	0	NA	0	0	0	0	NA	0	0	2	1	65
Arrow Flanker 2014	12057	1	"<?xml version=""1.0""?>\n<Clock xmlns:dt=""urn:schemas-microsoft-com:datatypes""><Description dt:dt=""string"">E-Prime Primary Realtime Clock</Description><StartTime><Timestamp dt:dt=""int"">0</Timestamp><DateUtc dt:dt=""string"">2015-03-03T22:07:38Z</DateUtc></StartTime><FrequencyChanges><FrequencyChange><Frequency dt:dt=""r8"">2825634</Frequency><Timestamp dt:dt=""r8"">1121530378623</Timestamp><Current dt:dt=""r8"">0</Current><DateUtc dt:dt=""string"">2015-03-03T22:07:38Z</DateUtc></FrequencyChange></FrequencyChanges></Clock>\n"	Arrow Flanker 2014-12057-1	60.017	1.0.0.91	1	544454017	Professional	2.0.10.353	2.0.10.353	03-03-2015	NA	17:07:39	2.0.10.248	3	1	1	1	NA	NA	NA	NA	NA	NA	NA	NA	NA	NA	NA	NA	NA	NA	NA	NA	NA	NA	NA	NA	NA	NA	NA	NA	BlockProc	BlockList	NA	66	{RIGHTARROW}	NA	-100	1795	incongruent	NA	NA	NA	NA	NA	NA	NA	NA	NA	NA	NA	NA	NA	NA	NA	NA	NA	NA	NA	NA	NA	NA	TrialProc	TrialList	0	17	421459	17	0	16	419576	0	1	{RIGHTARROW}	-999999	0	420776	0	{RIGHTARROW}	666	421442	NA	NA	right	llrll.bmp	354	0	NA	0	0	0	0	NA	0	0	0	NA	0	0	0	0	NA	0	0	4	1	66
Arrow Flanker 2014	12057	1	"<?xml version=""1.0""?>\n<Clock xmlns:dt=""urn:schemas-microsoft-com:datatypes""><Description dt:dt=""string"">E-Prime Primary Realtime Clock</Description><StartTime><Timestamp dt:dt=""int"">0</Timestamp><DateUtc dt:dt=""string"">2015-03-03T22:07:38Z</DateUtc></StartTime><FrequencyChanges><FrequencyChange><Frequency dt:dt=""r8"">2825634</Frequency><Timestamp dt:dt=""r8"">1121530378623</Timestamp><Current dt:dt=""r8"">0</Current><DateUtc dt:dt=""string"">2015-03-03T22:07:38Z</DateUtc></FrequencyChange></FrequencyChanges></Clock>\n"	Arrow Flanker 2014-12057-1	60.017	1.0.0.91	1	544454017	Professional	2.0.10.353	2.0.10.353	03-03-2015	NA	17:07:39	2.0.10.248	3	1	1	1	NA	NA	NA	NA	NA	NA	NA	NA	NA	NA	NA	NA	NA	NA	NA	NA	NA	NA	NA	NA	NA	NA	NA	NA	BlockProc	BlockList	NA	67	{LEFTARROW}	NA	-100	1213	congruent	NA	NA	NA	NA	NA	NA	NA	NA	NA	NA	NA	NA	NA	NA	NA	NA	NA	NA	NA	NA	NA	NA	TrialProc	TrialList	0	19	423525	17	0	16	421992	0	1	{LEFTARROW}	-999999	0	422992	0	{LEFTARROW}	514	423506	NA	NA	left	lllll.bmp	354	0	NA	0	0	0	0	NA	0	0	0	NA	0	0	0	0	NA	0	0	1	1	67
Arrow Flanker 2014	12057	1	"<?xml version=""1.0""?>\n<Clock xmlns:dt=""urn:schemas-microsoft-com:datatypes""><Description dt:dt=""string"">E-Prime Primary Realtime Clock</Description><StartTime><Timestamp dt:dt=""int"">0</Timestamp><DateUtc dt:dt=""string"">2015-03-03T22:07:38Z</DateUtc></StartTime><FrequencyChanges><FrequencyChange><Frequency dt:dt=""r8"">2825634</Frequency><Timestamp dt:dt=""r8"">1121530378623</Timestamp><Current dt:dt=""r8"">0</Current><DateUtc dt:dt=""string"">2015-03-03T22:07:38Z</DateUtc></FrequencyChange></FrequencyChanges></Clock>\n"	Arrow Flanker 2014-12057-1	60.017	1.0.0.91	1	544454017	Professional	2.0.10.353	2.0.10.353	03-03-2015	NA	17:07:39	2.0.10.248	3	1	1	1	NA	NA	NA	NA	NA	NA	NA	NA	NA	NA	NA	NA	NA	NA	NA	NA	NA	NA	NA	NA	NA	NA	NA	NA	BlockProc	BlockList	NA	68	{LEFTARROW}	NA	-100	1582	congruent	NA	NA	NA	NA	NA	NA	NA	NA	NA	NA	NA	NA	NA	NA	NA	NA	NA	NA	NA	NA	NA	NA	TrialProc	TrialList	0	8	426058	16	0	16	424058	0	1	{LEFTARROW}	-999999	0	425508	0	{LEFTARROW}	542	426050	NA	NA	left	lllll.bmp	354	0	NA	0	0	0	0	NA	0	0	0	NA	0	0	0	0	NA	0	0	1	1	68
Arrow Flanker 2014	12057	1	"<?xml version=""1.0""?>\n<Clock xmlns:dt=""urn:schemas-microsoft-com:datatypes""><Description dt:dt=""string"">E-Prime Primary Realtime Clock</Description><StartTime><Timestamp dt:dt=""int"">0</Timestamp><DateUtc dt:dt=""string"">2015-03-03T22:07:38Z</DateUtc></StartTime><FrequencyChanges><FrequencyChange><Frequency dt:dt=""r8"">2825634</Frequency><Timestamp dt:dt=""r8"">1121530378623</Timestamp><Current dt:dt=""r8"">0</Current><DateUtc dt:dt=""string"">2015-03-03T22:07:38Z</DateUtc></FrequencyChange></FrequencyChanges></Clock>\n"	Arrow Flanker 2014-12057-1	60.017	1.0.0.91	1	544454017	Professional	2.0.10.353	2.0.10.353	03-03-2015	NA	17:07:39	2.0.10.248	3	1	1	1	NA	NA	NA	NA	NA	NA	NA	NA	NA	NA	NA	NA	NA	NA	NA	NA	NA	NA	NA	NA	NA	NA	NA	NA	BlockProc	BlockList	NA	69	{LEFTARROW}	NA	-100	1670	neutral	NA	NA	NA	NA	NA	NA	NA	NA	NA	NA	NA	NA	NA	NA	NA	NA	NA	NA	NA	NA	NA	NA	TrialProc	TrialList	0	15	428257	17	0	17	426591	0	1	{LEFTARROW}	-999999	0	427691	0	{LEFTARROW}	551	428242	NA	NA	left	ooloo.bmp	354	0	NA	0	0	0	0	NA	0	0	0	NA	0	0	0	0	NA	0	0	5	1	69
Arrow Flanker 2014	12057	1	"<?xml version=""1.0""?>\n<Clock xmlns:dt=""urn:schemas-microsoft-com:datatypes""><Description dt:dt=""string"">E-Prime Primary Realtime Clock</Description><StartTime><Timestamp dt:dt=""int"">0</Timestamp><DateUtc dt:dt=""string"">2015-03-03T22:07:38Z</DateUtc></StartTime><FrequencyChanges><FrequencyChange><Frequency dt:dt=""r8"">2825634</Frequency><Timestamp dt:dt=""r8"">1121530378623</Timestamp><Current dt:dt=""r8"">0</Current><DateUtc dt:dt=""string"">2015-03-03T22:07:38Z</DateUtc></FrequencyChange></FrequencyChanges></Clock>\n"	Arrow Flanker 2014-12057-1	60.017	1.0.0.91	1	544454017	Professional	2.0.10.353	2.0.10.353	03-03-2015	NA	17:07:39	2.0.10.248	3	1	1	1	NA	NA	NA	NA	NA	NA	NA	NA	NA	NA	NA	NA	NA	NA	NA	NA	NA	NA	NA	NA	NA	NA	NA	NA	BlockProc	BlockList	NA	70	{LEFTARROW}	NA	-100	1732	neutral	NA	NA	NA	NA	NA	NA	NA	NA	NA	NA	NA	NA	NA	NA	NA	NA	NA	NA	NA	NA	3	1	TrialProc	TrialList	0	12	430590	16	0	16	428790	0	1	{LEFTARROW}	-999999	0	430057	0	{LEFTARROW}	521	430578	NA	NA	left	ooloo.bmp	354	0	NA	-999999	17	431123	0	1	4463	435586	0	NA	-999999	19	435605	0	1	613	436218	5	1	70
Arrow Flanker 2014	12057	1	"<?xml version=""1.0""?>\n<Clock xmlns:dt=""urn:schemas-microsoft-com:datatypes""><Description dt:dt=""string"">E-Prime Primary Realtime Clock</Description><StartTime><Timestamp dt:dt=""int"">0</Timestamp><DateUtc dt:dt=""string"">2015-03-03T22:07:38Z</DateUtc></StartTime><FrequencyChanges><FrequencyChange><Frequency dt:dt=""r8"">2825634</Frequency><Timestamp dt:dt=""r8"">1121530378623</Timestamp><Current dt:dt=""r8"">0</Current><DateUtc dt:dt=""string"">2015-03-03T22:07:38Z</DateUtc></FrequencyChange></FrequencyChanges></Clock>\n"	Arrow Flanker 2014-12057-1	60.017	1.0.0.91	1	544454017	Professional	2.0.10.353	2.0.10.353	03-03-2015	NA	17:07:39	2.0.10.248	3	1	1	1	NA	NA	NA	NA	NA	NA	NA	NA	NA	NA	NA	NA	NA	NA	NA	NA	NA	NA	NA	NA	NA	NA	NA	NA	BlockProc	BlockList	NA	71	{RIGHTARROW}	NA	-100	1480	congruent	NA	NA	NA	NA	NA	NA	NA	NA	NA	NA	NA	NA	NA	NA	NA	NA	NA	NA	NA	NA	NA	NA	TrialProc	TrialList	0	13	439054	17	0	28	437438	0	1	{RIGHTARROW}	-999999	0	438521	0	{RIGHTARROW}	520	439041	NA	NA	right	rrrrr.bmp	354	0	NA	0	0	0	0	NA	0	0	0	NA	0	0	0	0	NA	0	0	2	1	71
Arrow Flanker 2014	12057	1	"<?xml version=""1.0""?>\n<Clock xmlns:dt=""urn:schemas-microsoft-com:datatypes""><Description dt:dt=""string"">E-Prime Primary Realtime Clock</Description><StartTime><Timestamp dt:dt=""int"">0</Timestamp><DateUtc dt:dt=""string"">2015-03-03T22:07:38Z</DateUtc></StartTime><FrequencyChanges><FrequencyChange><Frequency dt:dt=""r8"">2825634</Frequency><Timestamp dt:dt=""r8"">1121530378623</Timestamp><Current dt:dt=""r8"">0</Current><DateUtc dt:dt=""string"">2015-03-03T22:07:38Z</DateUtc></FrequencyChange></FrequencyChanges></Clock>\n"	Arrow Flanker 2014-12057-1	60.017	1.0.0.91	1	544454017	Professional	2.0.10.353	2.0.10.353	03-03-2015	NA	17:07:39	2.0.10.248	3	1	1	1	NA	NA	NA	NA	NA	NA	NA	NA	NA	NA	NA	NA	NA	NA	NA	NA	NA	NA	NA	NA	NA	NA	NA	NA	BlockProc	BlockList	NA	72	{LEFTARROW}	NA	-100	1585	incongruent	NA	NA	NA	NA	NA	NA	NA	NA	NA	NA	NA	NA	NA	NA	NA	NA	NA	NA	NA	NA	NA	NA	TrialProc	TrialList	0	7	441720	16	0	16	439587	0	1	{LEFTARROW}	-999999	0	441087	0	{LEFTARROW}	626	441713	NA	NA	left	rrlrr.bmp	354	0	NA	0	0	0	0	NA	0	0	0	NA	0	0	0	0	NA	0	0	3	1	72
Arrow Flanker 2014	12057	1	"<?xml version=""1.0""?>\n<Clock xmlns:dt=""urn:schemas-microsoft-com:datatypes""><Description dt:dt=""string"">E-Prime Primary Realtime Clock</Description><StartTime><Timestamp dt:dt=""int"">0</Timestamp><DateUtc dt:dt=""string"">2015-03-03T22:07:38Z</DateUtc></StartTime><FrequencyChanges><FrequencyChange><Frequency dt:dt=""r8"">2825634</Frequency><Timestamp dt:dt=""r8"">1121530378623</Timestamp><Current dt:dt=""r8"">0</Current><DateUtc dt:dt=""string"">2015-03-03T22:07:38Z</DateUtc></FrequencyChange></FrequencyChanges></Clock>\n"	Arrow Flanker 2014-12057-1	60.017	1.0.0.91	1	544454017	Professional	2.0.10.353	2.0.10.353	03-03-2015	NA	17:07:39	2.0.10.248	3	1	1	1	NA	NA	NA	NA	NA	NA	NA	NA	NA	NA	NA	NA	NA	NA	NA	NA	NA	NA	NA	NA	NA	NA	NA	NA	BlockProc	BlockList	NA	73	{RIGHTARROW}	NA	-100	1275	incongruent	NA	NA	NA	NA	NA	NA	NA	NA	NA	NA	NA	NA	NA	NA	NA	NA	NA	NA	NA	NA	NA	NA	TrialProc	TrialList	0	9	444186	16	0	17	442253	0	1	{RIGHTARROW}	-999999	0	443486	0	{RIGHTARROW}	691	444177	NA	NA	right	llrll.bmp	354	0	NA	0	0	0	0	NA	0	0	0	NA	0	0	0	0	NA	0	0	4	1	73
Arrow Flanker 2014	12057	1	"<?xml version=""1.0""?>\n<Clock xmlns:dt=""urn:schemas-microsoft-com:datatypes""><Description dt:dt=""string"">E-Prime Primary Realtime Clock</Description><StartTime><Timestamp dt:dt=""int"">0</Timestamp><DateUtc dt:dt=""string"">2015-03-03T22:07:38Z</DateUtc></StartTime><FrequencyChanges><FrequencyChange><Frequency dt:dt=""r8"">2825634</Frequency><Timestamp dt:dt=""r8"">1121530378623</Timestamp><Current dt:dt=""r8"">0</Current><DateUtc dt:dt=""string"">2015-03-03T22:07:38Z</DateUtc></FrequencyChange></FrequencyChanges></Clock>\n"	Arrow Flanker 2014-12057-1	60.017	1.0.0.91	1	544454017	Professional	2.0.10.353	2.0.10.353	03-03-2015	NA	17:07:39	2.0.10.248	3	1	1	1	NA	NA	NA	NA	NA	NA	NA	NA	NA	NA	NA	NA	NA	NA	NA	NA	NA	NA	NA	NA	NA	NA	NA	NA	BlockProc	BlockList	NA	74	{LEFTARROW}	NA	-100	1604	congruent	NA	NA	NA	NA	NA	NA	NA	NA	NA	NA	NA	NA	NA	NA	NA	NA	NA	NA	NA	NA	NA	NA	TrialProc	TrialList	1	21	447318	17	0	17	444719	0	1	{LEFTARROW}	-999999	0	446768	0	{LEFTARROW}	529	447297	NA	NA	left	lllll.bmp	354	0	NA	0	0	0	0	NA	0	0	0	NA	0	0	0	0	NA	0	0	1	1	74
