ExperimentName	Subject	Session	Clock.Information	DataFile.Basename	Display.RefreshRate	ExperimentVersion	Group	RandomSeed	RuntimeCapabilities	RuntimeVersion	RuntimeVersionExpected	SessionDate	SessionStartDateTimeUtc	SessionTime	StudioVersion	Block	BlockList	BlockList.Cycle	BlockList.Sample	Both	CompletelyMW	CongMeanRT	CongTotal	Fragmented	GoodByeList	GoodByeList.Cycle	GoodByeList.Sample	IncongMeanRT	IncongTotal	MapBlockList	MapBlockList.Cycle	MapBlockList.Sample	Mindwandering	MostlyMW	MostlyOT	NeutralMeanRT	NeutralTotal	NumberProbes1	NumberProbes2	OnTask	PracBlockList	PracBlockList.Cycle	PracBlockList.Sample	Procedure[Block]	Running[Block]	Sequential	Trial	CorrectAnswer	CuePositionY	CuePositionY2	DurationOfFixation	FlankerType	MapTrialList	MapTrialList.Cycle	MapTrialList.Sample	PracSlideFixationStart.DurationError	PracSlideFixationStart.OnsetDelay	PracSlideFixationStart.OnsetTime	PracSlideFixationStart.OnsetToOnsetTime	PracSlideTarget.ACC	PracSlideTarget.CRESP	PracSlideTarget.DurationError	PracSlideTarget.OnsetDelay	PracSlideTarget.OnsetTime	PracSlideTarget.OnsetToOnsetTime	PracSlideTarget.RESP	PracSlideTarget.RT	PracSlideTarget.RTTime	PracSlideTarget.Tag	PracTrialList	PracTrialList.Cycle	PracTrialList.Sample	Probe1Resp	Probe2Resp	Procedure[Trial]	Running[Trial]	SlideFixationEnd.DurationError	SlideFixationEnd.OnsetDelay	SlideFixationEnd.OnsetTime	SlideFixationEnd.OnsetToOnsetTime	SlideFixationStart.DurationError	SlideFixationStart.OnsetDelay	SlideFixationStart.OnsetTime	SlideFixationStart.OnsetToOnsetTime	SlideTarget.ACC	SlideTarget.CRESP	SlideTarget.DurationError	SlideTarget.OnsetDelay	SlideTarget.OnsetTime	SlideTarget.OnsetToOnsetTime	SlideTarget.RESP	SlideTarget.RT	SlideTarget.RTTime	SlideTarget.Tag	TargerDirection	TargetDirection	TargetImage	TargetPosition	ThoughtProbe1.ACC	ThoughtProbe1.CRESP	ThoughtProbe1.DurationError	ThoughtProbe1.OnsetDelay	ThoughtProbe1.OnsetTime	ThoughtProbe1.OnsetToOnsetTime	ThoughtProbe1.RESP	ThoughtProbe1.RT	ThoughtProbe1.RTTime	ThoughtProbe2.ACC	ThoughtProbe2.CRESP	ThoughtProbe2.DurationError	ThoughtProbe2.OnsetDelay	ThoughtProbe2.OnsetTime	ThoughtProbe2.OnsetToOnsetTime	ThoughtProbe2.RESP	ThoughtProbe2.RT	ThoughtProbe2.RTTime	TrialList	TrialList.Cycle	TrialList.Sample
Arrow Flanker 2014	12065	1	"<?xml version=""1.0""?>\n<Clock xmlns:dt=""urn:schemas-microsoft-com:datatypes""><Description dt:dt=""string"">E-Prime Primary Realtime Clock</Description><StartTime><Timestamp dt:dt=""int"">0</Timestamp><DateUtc dt:dt=""string"">2015-03-04T20:21:48Z</DateUtc></StartTime><FrequencyChanges><FrequencyChange><Frequency dt:dt=""r8"">2825703</Frequency><Timestamp dt:dt=""r8"">123041372289</Timestamp><Current dt:dt=""r8"">0</Current><DateUtc dt:dt=""string"">2015-03-04T20:21:48Z</DateUtc></FrequencyChange></FrequencyChanges></Clock>\n"	Arrow Flanker 2014-12065-1	60.019	1.0.0.86	1	-1512137665	Professional	2.0.10.353	2.0.10.353	03-04-2015	3/4/2015 8:21:48 PM	15:21:48	2.0.10.248	1	NA	NA	NA	NA	NA	NA	NA	NA	NA	NA	NA	NA	NA	1	1	1	NA	NA	NA	NA	NA	NA	NA	NA	NA	NA	NA	MapBlockProc	MapBlockList	NA	1	{LEFTARROW}	-100	NA	1024	NA	1	1	1	0	24	131735	1033	1	{LEFTARROW}	-999999	16	133284	0	{LEFTARROW}	947	134231	NA	NA	NA	NA	NA	NA	MapTrialProc	MapTrialList	NA	NA	NA	NA	NA	NA	NA	NA	NA	NA	NA	NA	NA	NA	NA	NA	NA	NA	left	NA	L.bmp	354	NA	NA	NA	NA	NA	NA	NA	NA	NA	NA	NA	NA	NA	NA	NA	NA	NA	NA	NA	NA	NA
Arrow Flanker 2014	12065	1	"<?xml version=""1.0""?>\n<Clock xmlns:dt=""urn:schemas-microsoft-com:datatypes""><Description dt:dt=""string"">E-Prime Primary Realtime Clock</Description><StartTime><Timestamp dt:dt=""int"">0</Timestamp><DateUtc dt:dt=""string"">2015-03-04T20:21:48Z</DateUtc></StartTime><FrequencyChanges><FrequencyChange><Frequency dt:dt=""r8"">2825703</Frequency><Timestamp dt:dt=""r8"">123041372289</Timestamp><Current dt:dt=""r8"">0</Current><DateUtc dt:dt=""string"">2015-03-04T20:21:48Z</DateUtc></FrequencyChange></FrequencyChanges></Clock>\n"	Arrow Flanker 2014-12065-1	60.019	1.0.0.86	1	-1512137665	Professional	2.0.10.353	2.0.10.353	03-04-2015	3/4/2015 8:21:48 PM	15:21:48	2.0.10.248	1	NA	NA	NA	NA	NA	NA	NA	NA	NA	NA	NA	NA	NA	1	1	1	NA	NA	NA	NA	NA	NA	NA	NA	NA	NA	NA	MapBlockProc	MapBlockList	NA	2	{RIGHTARROW}	-100	NA	1145	NA	2	1	2	0	17	135767	1149	1	{RIGHTARROW}	-999999	0	137416	0	{RIGHTARROW}	751	138167	NA	NA	NA	NA	NA	NA	MapTrialProc	MapTrialList	NA	NA	NA	NA	NA	NA	NA	NA	NA	NA	NA	NA	NA	NA	NA	NA	NA	NA	right	NA	R.bmp	354	NA	NA	NA	NA	NA	NA	NA	NA	NA	NA	NA	NA	NA	NA	NA	NA	NA	NA	NA	NA	NA
Arrow Flanker 2014	12065	1	"<?xml version=""1.0""?>\n<Clock xmlns:dt=""urn:schemas-microsoft-com:datatypes""><Description dt:dt=""string"">E-Prime Primary Realtime Clock</Description><StartTime><Timestamp dt:dt=""int"">0</Timestamp><DateUtc dt:dt=""string"">2015-03-04T20:21:48Z</DateUtc></StartTime><FrequencyChanges><FrequencyChange><Frequency dt:dt=""r8"">2825703</Frequency><Timestamp dt:dt=""r8"">123041372289</Timestamp><Current dt:dt=""r8"">0</Current><DateUtc dt:dt=""string"">2015-03-04T20:21:48Z</DateUtc></FrequencyChange></FrequencyChanges></Clock>\n"	Arrow Flanker 2014-12065-1	60.019	1.0.0.86	1	-1512137665	Professional	2.0.10.353	2.0.10.353	03-04-2015	3/4/2015 8:21:48 PM	15:21:48	2.0.10.248	1	NA	NA	NA	NA	NA	NA	NA	NA	NA	NA	NA	NA	NA	1	1	1	NA	NA	NA	NA	NA	NA	NA	NA	NA	NA	NA	MapBlockProc	MapBlockList	NA	3	{LEFTARROW}	-100	NA	441	NA	1	1	3	0	17	139699	450	1	{LEFTARROW}	-999999	0	140648	0	{LEFTARROW}	502	141150	NA	NA	NA	NA	NA	NA	MapTrialProc	MapTrialList	NA	NA	NA	NA	NA	NA	NA	NA	NA	NA	NA	NA	NA	NA	NA	NA	NA	NA	left	NA	L.bmp	354	NA	NA	NA	NA	NA	NA	NA	NA	NA	NA	NA	NA	NA	NA	NA	NA	NA	NA	NA	NA	NA
Arrow Flanker 2014	12065	1	"<?xml version=""1.0""?>\n<Clock xmlns:dt=""urn:schemas-microsoft-com:datatypes""><Description dt:dt=""string"">E-Prime Primary Realtime Clock</Description><StartTime><Timestamp dt:dt=""int"">0</Timestamp><DateUtc dt:dt=""string"">2015-03-04T20:21:48Z</DateUtc></StartTime><FrequencyChanges><FrequencyChange><Frequency dt:dt=""r8"">2825703</Frequency><Timestamp dt:dt=""r8"">123041372289</Timestamp><Current dt:dt=""r8"">0</Current><DateUtc dt:dt=""string"">2015-03-04T20:21:48Z</DateUtc></FrequencyChange></FrequencyChanges></Clock>\n"	Arrow Flanker 2014-12065-1	60.019	1.0.0.86	1	-1512137665	Professional	2.0.10.353	2.0.10.353	03-04-2015	3/4/2015 8:21:48 PM	15:21:48	2.0.10.248	1	NA	NA	NA	NA	NA	NA	NA	NA	NA	NA	NA	NA	NA	1	1	1	NA	NA	NA	NA	NA	NA	NA	NA	NA	NA	NA	MapBlockProc	MapBlockList	NA	4	{LEFTARROW}	-100	NA	1380	NA	1	1	4	0	16	142681	1383	1	{LEFTARROW}	-999999	0	144564	0	{LEFTARROW}	626	145190	NA	NA	NA	NA	NA	NA	MapTrialProc	MapTrialList	NA	NA	NA	NA	NA	NA	NA	NA	NA	NA	NA	NA	NA	NA	NA	NA	NA	NA	left	NA	L.bmp	354	NA	NA	NA	NA	NA	NA	NA	NA	NA	NA	NA	NA	NA	NA	NA	NA	NA	NA	NA	NA	NA
Arrow Flanker 2014	12065	1	"<?xml version=""1.0""?>\n<Clock xmlns:dt=""urn:schemas-microsoft-com:datatypes""><Description dt:dt=""string"">E-Prime Primary Realtime Clock</Description><StartTime><Timestamp dt:dt=""int"">0</Timestamp><DateUtc dt:dt=""string"">2015-03-04T20:21:48Z</DateUtc></StartTime><FrequencyChanges><FrequencyChange><Frequency dt:dt=""r8"">2825703</Frequency><Timestamp dt:dt=""r8"">123041372289</Timestamp><Current dt:dt=""r8"">0</Current><DateUtc dt:dt=""string"">2015-03-04T20:21:48Z</DateUtc></FrequencyChange></FrequencyChanges></Clock>\n"	Arrow Flanker 2014-12065-1	60.019	1.0.0.86	1	-1512137665	Professional	2.0.10.353	2.0.10.353	03-04-2015	3/4/2015 8:21:48 PM	15:21:48	2.0.10.248	1	NA	NA	NA	NA	NA	NA	NA	NA	NA	NA	NA	NA	NA	1	1	1	NA	NA	NA	NA	NA	NA	NA	NA	NA	NA	NA	MapBlockProc	MapBlockList	NA	5	{RIGHTARROW}	-100	NA	477	NA	2	1	5	0	16	146730	483	1	{RIGHTARROW}	-999999	0	147713	0	{RIGHTARROW}	941	148654	NA	NA	NA	NA	NA	NA	MapTrialProc	MapTrialList	NA	NA	NA	NA	NA	NA	NA	NA	NA	NA	NA	NA	NA	NA	NA	NA	NA	NA	right	NA	R.bmp	354	NA	NA	NA	NA	NA	NA	NA	NA	NA	NA	NA	NA	NA	NA	NA	NA	NA	NA	NA	NA	NA
Arrow Flanker 2014	12065	1	"<?xml version=""1.0""?>\n<Clock xmlns:dt=""urn:schemas-microsoft-com:datatypes""><Description dt:dt=""string"">E-Prime Primary Realtime Clock</Description><StartTime><Timestamp dt:dt=""int"">0</Timestamp><DateUtc dt:dt=""string"">2015-03-04T20:21:48Z</DateUtc></StartTime><FrequencyChanges><FrequencyChange><Frequency dt:dt=""r8"">2825703</Frequency><Timestamp dt:dt=""r8"">123041372289</Timestamp><Current dt:dt=""r8"">0</Current><DateUtc dt:dt=""string"">2015-03-04T20:21:48Z</DateUtc></FrequencyChange></FrequencyChanges></Clock>\n"	Arrow Flanker 2014-12065-1	60.019	1.0.0.86	1	-1512137665	Professional	2.0.10.353	2.0.10.353	03-04-2015	3/4/2015 8:21:48 PM	15:21:48	2.0.10.248	1	NA	NA	NA	NA	NA	NA	NA	NA	NA	NA	NA	NA	NA	1	1	1	NA	NA	NA	NA	NA	NA	NA	NA	NA	NA	NA	MapBlockProc	MapBlockList	NA	6	{RIGHTARROW}	-100	NA	1588	NA	2	1	6	0	16	150195	1600	1	{RIGHTARROW}	-999999	0	152295	0	{RIGHTARROW}	534	152829	NA	NA	NA	NA	NA	NA	MapTrialProc	MapTrialList	NA	NA	NA	NA	NA	NA	NA	NA	NA	NA	NA	NA	NA	NA	NA	NA	NA	NA	right	NA	R.bmp	354	NA	NA	NA	NA	NA	NA	NA	NA	NA	NA	NA	NA	NA	NA	NA	NA	NA	NA	NA	NA	NA
Arrow Flanker 2014	12065	1	"<?xml version=""1.0""?>\n<Clock xmlns:dt=""urn:schemas-microsoft-com:datatypes""><Description dt:dt=""string"">E-Prime Primary Realtime Clock</Description><StartTime><Timestamp dt:dt=""int"">0</Timestamp><DateUtc dt:dt=""string"">2015-03-04T20:21:48Z</DateUtc></StartTime><FrequencyChanges><FrequencyChange><Frequency dt:dt=""r8"">2825703</Frequency><Timestamp dt:dt=""r8"">123041372289</Timestamp><Current dt:dt=""r8"">0</Current><DateUtc dt:dt=""string"">2015-03-04T20:21:48Z</DateUtc></FrequencyChange></FrequencyChanges></Clock>\n"	Arrow Flanker 2014-12065-1	60.019	1.0.0.86	1	-1512137665	Professional	2.0.10.353	2.0.10.353	03-04-2015	3/4/2015 8:21:48 PM	15:21:48	2.0.10.248	1	NA	NA	NA	NA	NA	NA	NA	NA	NA	NA	NA	NA	NA	1	1	1	NA	NA	NA	NA	NA	NA	NA	NA	NA	NA	NA	MapBlockProc	MapBlockList	NA	7	{LEFTARROW}	-100	NA	630	NA	1	1	7	0	16	154361	633	1	{LEFTARROW}	-999999	0	155494	0	{LEFTARROW}	383	155877	NA	NA	NA	NA	NA	NA	MapTrialProc	MapTrialList	NA	NA	NA	NA	NA	NA	NA	NA	NA	NA	NA	NA	NA	NA	NA	NA	NA	NA	left	NA	L.bmp	354	NA	NA	NA	NA	NA	NA	NA	NA	NA	NA	NA	NA	NA	NA	NA	NA	NA	NA	NA	NA	NA
Arrow Flanker 2014	12065	1	"<?xml version=""1.0""?>\n<Clock xmlns:dt=""urn:schemas-microsoft-com:datatypes""><Description dt:dt=""string"">E-Prime Primary Realtime Clock</Description><StartTime><Timestamp dt:dt=""int"">0</Timestamp><DateUtc dt:dt=""string"">2015-03-04T20:21:48Z</DateUtc></StartTime><FrequencyChanges><FrequencyChange><Frequency dt:dt=""r8"">2825703</Frequency><Timestamp dt:dt=""r8"">123041372289</Timestamp><Current dt:dt=""r8"">0</Current><DateUtc dt:dt=""string"">2015-03-04T20:21:48Z</DateUtc></FrequencyChange></FrequencyChanges></Clock>\n"	Arrow Flanker 2014-12065-1	60.019	1.0.0.86	1	-1512137665	Professional	2.0.10.353	2.0.10.353	03-04-2015	3/4/2015 8:21:48 PM	15:21:48	2.0.10.248	1	NA	NA	NA	NA	NA	NA	NA	NA	NA	NA	NA	NA	NA	1	1	1	NA	NA	NA	NA	NA	NA	NA	NA	NA	NA	NA	MapBlockProc	MapBlockList	NA	8	{RIGHTARROW}	-100	NA	1223	NA	2	1	8	0	16	157410	1233	1	{RIGHTARROW}	-999999	0	159143	0	{RIGHTARROW}	478	159621	NA	NA	NA	NA	NA	NA	MapTrialProc	MapTrialList	NA	NA	NA	NA	NA	NA	NA	NA	NA	NA	NA	NA	NA	NA	NA	NA	NA	NA	right	NA	R.bmp	354	NA	NA	NA	NA	NA	NA	NA	NA	NA	NA	NA	NA	NA	NA	NA	NA	NA	NA	NA	NA	NA
Arrow Flanker 2014	12065	1	"<?xml version=""1.0""?>\n<Clock xmlns:dt=""urn:schemas-microsoft-com:datatypes""><Description dt:dt=""string"">E-Prime Primary Realtime Clock</Description><StartTime><Timestamp dt:dt=""int"">0</Timestamp><DateUtc dt:dt=""string"">2015-03-04T20:21:48Z</DateUtc></StartTime><FrequencyChanges><FrequencyChange><Frequency dt:dt=""r8"">2825703</Frequency><Timestamp dt:dt=""r8"">123041372289</Timestamp><Current dt:dt=""r8"">0</Current><DateUtc dt:dt=""string"">2015-03-04T20:21:48Z</DateUtc></FrequencyChange></FrequencyChanges></Clock>\n"	Arrow Flanker 2014-12065-1	60.019	1.0.0.86	1	-1512137665	Professional	2.0.10.353	2.0.10.353	03-04-2015	3/4/2015 8:21:48 PM	15:21:48	2.0.10.248	1	NA	NA	NA	NA	NA	NA	NA	NA	NA	NA	NA	NA	NA	1	1	1	NA	NA	NA	NA	NA	NA	NA	NA	NA	NA	NA	MapBlockProc	MapBlockList	NA	9	{RIGHTARROW}	-100	NA	1164	NA	2	1	9	0	17	161159	1166	1	{RIGHTARROW}	-999999	0	162825	0	{RIGHTARROW}	524	163349	NA	NA	NA	NA	NA	NA	MapTrialProc	MapTrialList	NA	NA	NA	NA	NA	NA	NA	NA	NA	NA	NA	NA	NA	NA	NA	NA	NA	NA	right	NA	R.bmp	354	NA	NA	NA	NA	NA	NA	NA	NA	NA	NA	NA	NA	NA	NA	NA	NA	NA	NA	NA	NA	NA
Arrow Flanker 2014	12065	1	"<?xml version=""1.0""?>\n<Clock xmlns:dt=""urn:schemas-microsoft-com:datatypes""><Description dt:dt=""string"">E-Prime Primary Realtime Clock</Description><StartTime><Timestamp dt:dt=""int"">0</Timestamp><DateUtc dt:dt=""string"">2015-03-04T20:21:48Z</DateUtc></StartTime><FrequencyChanges><FrequencyChange><Frequency dt:dt=""r8"">2825703</Frequency><Timestamp dt:dt=""r8"">123041372289</Timestamp><Current dt:dt=""r8"">0</Current><DateUtc dt:dt=""string"">2015-03-04T20:21:48Z</DateUtc></FrequencyChange></FrequencyChanges></Clock>\n"	Arrow Flanker 2014-12065-1	60.019	1.0.0.86	1	-1512137665	Professional	2.0.10.353	2.0.10.353	03-04-2015	3/4/2015 8:21:48 PM	15:21:48	2.0.10.248	1	NA	NA	NA	NA	NA	NA	NA	NA	NA	NA	NA	NA	NA	1	1	1	NA	NA	NA	NA	NA	NA	NA	NA	NA	NA	NA	MapBlockProc	MapBlockList	NA	10	{LEFTARROW}	-100	NA	599	NA	1	1	10	0	16	164891	600	1	{LEFTARROW}	-999999	-1	165990	0	{LEFTARROW}	630	166620	NA	NA	NA	NA	NA	NA	MapTrialProc	MapTrialList	NA	NA	NA	NA	NA	NA	NA	NA	NA	NA	NA	NA	NA	NA	NA	NA	NA	NA	left	NA	L.bmp	354	NA	NA	NA	NA	NA	NA	NA	NA	NA	NA	NA	NA	NA	NA	NA	NA	NA	NA	NA	NA	NA
Arrow Flanker 2014	12065	1	"<?xml version=""1.0""?>\n<Clock xmlns:dt=""urn:schemas-microsoft-com:datatypes""><Description dt:dt=""string"">E-Prime Primary Realtime Clock</Description><StartTime><Timestamp dt:dt=""int"">0</Timestamp><DateUtc dt:dt=""string"">2015-03-04T20:21:48Z</DateUtc></StartTime><FrequencyChanges><FrequencyChange><Frequency dt:dt=""r8"">2825703</Frequency><Timestamp dt:dt=""r8"">123041372289</Timestamp><Current dt:dt=""r8"">0</Current><DateUtc dt:dt=""string"">2015-03-04T20:21:48Z</DateUtc></FrequencyChange></FrequencyChanges></Clock>\n"	Arrow Flanker 2014-12065-1	60.019	1.0.0.86	1	-1512137665	Professional	2.0.10.353	2.0.10.353	03-04-2015	3/4/2015 8:21:48 PM	15:21:48	2.0.10.248	2	NA	NA	NA	NA	NA	NA	NA	NA	NA	NA	NA	NA	NA	NA	NA	NA	NA	NA	NA	NA	NA	NA	NA	NA	1	1	1	PracBlockProc	PracBlockList	NA	1	{RIGHTARROW}	-100	NA	1432	incongruent	NA	NA	NA	0	5	188600	1433	1	{RIGHTARROW}	-999999	0	190533	0	{RIGHTARROW}	1158	191691	NA	5	1	1	NA	NA	PracTrialProc	PracTrialList	NA	NA	NA	NA	NA	NA	NA	NA	NA	NA	NA	NA	NA	NA	NA	NA	NA	NA	right	NA	llrll.bmp	354	NA	NA	NA	NA	NA	NA	NA	NA	NA	NA	NA	NA	NA	NA	NA	NA	NA	NA	NA	NA	NA
Arrow Flanker 2014	12065	1	"<?xml version=""1.0""?>\n<Clock xmlns:dt=""urn:schemas-microsoft-com:datatypes""><Description dt:dt=""string"">E-Prime Primary Realtime Clock</Description><StartTime><Timestamp dt:dt=""int"">0</Timestamp><DateUtc dt:dt=""string"">2015-03-04T20:21:48Z</DateUtc></StartTime><FrequencyChanges><FrequencyChange><Frequency dt:dt=""r8"">2825703</Frequency><Timestamp dt:dt=""r8"">123041372289</Timestamp><Current dt:dt=""r8"">0</Current><DateUtc dt:dt=""string"">2015-03-04T20:21:48Z</DateUtc></FrequencyChange></FrequencyChanges></Clock>\n"	Arrow Flanker 2014-12065-1	60.019	1.0.0.86	1	-1512137665	Professional	2.0.10.353	2.0.10.353	03-04-2015	3/4/2015 8:21:48 PM	15:21:48	2.0.10.248	2	NA	NA	NA	NA	NA	NA	NA	NA	NA	NA	NA	NA	NA	NA	NA	NA	NA	NA	NA	NA	NA	NA	NA	NA	1	1	1	PracBlockProc	PracBlockList	NA	2	{LEFTARROW}	-100	NA	599	neutral	NA	NA	NA	0	16	193232	600	1	{LEFTARROW}	-999999	0	194332	0	{LEFTARROW}	918	195250	NA	3	1	2	NA	NA	PracTrialProc	PracTrialList	NA	NA	NA	NA	NA	NA	NA	NA	NA	NA	NA	NA	NA	NA	NA	NA	NA	NA	left	NA	ooloo.bmp	354	NA	NA	NA	NA	NA	NA	NA	NA	NA	NA	NA	NA	NA	NA	NA	NA	NA	NA	NA	NA	NA
Arrow Flanker 2014	12065	1	"<?xml version=""1.0""?>\n<Clock xmlns:dt=""urn:schemas-microsoft-com:datatypes""><Description dt:dt=""string"">E-Prime Primary Realtime Clock</Description><StartTime><Timestamp dt:dt=""int"">0</Timestamp><DateUtc dt:dt=""string"">2015-03-04T20:21:48Z</DateUtc></StartTime><FrequencyChanges><FrequencyChange><Frequency dt:dt=""r8"">2825703</Frequency><Timestamp dt:dt=""r8"">123041372289</Timestamp><Current dt:dt=""r8"">0</Current><DateUtc dt:dt=""string"">2015-03-04T20:21:48Z</DateUtc></FrequencyChange></FrequencyChanges></Clock>\n"	Arrow Flanker 2014-12065-1	60.019	1.0.0.86	1	-1512137665	Professional	2.0.10.353	2.0.10.353	03-04-2015	3/4/2015 8:21:48 PM	15:21:48	2.0.10.248	2	NA	NA	NA	NA	NA	NA	NA	NA	NA	NA	NA	NA	NA	NA	NA	NA	NA	NA	NA	NA	NA	NA	NA	NA	1	1	1	PracBlockProc	PracBlockList	NA	3	{RIGHTARROW}	-100	NA	1447	neutral	NA	NA	NA	0	16	196781	1449	1	{RIGHTARROW}	-999999	0	198730	0	{RIGHTARROW}	640	199370	NA	6	1	3	NA	NA	PracTrialProc	PracTrialList	NA	NA	NA	NA	NA	NA	NA	NA	NA	NA	NA	NA	NA	NA	NA	NA	NA	NA	right	NA	ooroo.bmp	354	NA	NA	NA	NA	NA	NA	NA	NA	NA	NA	NA	NA	NA	NA	NA	NA	NA	NA	NA	NA	NA
Arrow Flanker 2014	12065	1	"<?xml version=""1.0""?>\n<Clock xmlns:dt=""urn:schemas-microsoft-com:datatypes""><Description dt:dt=""string"">E-Prime Primary Realtime Clock</Description><StartTime><Timestamp dt:dt=""int"">0</Timestamp><DateUtc dt:dt=""string"">2015-03-04T20:21:48Z</DateUtc></StartTime><FrequencyChanges><FrequencyChange><Frequency dt:dt=""r8"">2825703</Frequency><Timestamp dt:dt=""r8"">123041372289</Timestamp><Current dt:dt=""r8"">0</Current><DateUtc dt:dt=""string"">2015-03-04T20:21:48Z</DateUtc></FrequencyChange></FrequencyChanges></Clock>\n"	Arrow Flanker 2014-12065-1	60.019	1.0.0.86	1	-1512137665	Professional	2.0.10.353	2.0.10.353	03-04-2015	3/4/2015 8:21:48 PM	15:21:48	2.0.10.248	2	NA	NA	NA	NA	NA	NA	NA	NA	NA	NA	NA	NA	NA	NA	NA	NA	NA	NA	NA	NA	NA	NA	NA	NA	1	1	1	PracBlockProc	PracBlockList	NA	4	{RIGHTARROW}	-100	NA	1304	congruent	NA	NA	NA	0	16	200896	1316	1	{RIGHTARROW}	-999999	0	202712	0	{RIGHTARROW}	898	203610	NA	4	1	4	NA	NA	PracTrialProc	PracTrialList	NA	NA	NA	NA	NA	NA	NA	NA	NA	NA	NA	NA	NA	NA	NA	NA	NA	NA	right	NA	rrrrr.bmp	354	NA	NA	NA	NA	NA	NA	NA	NA	NA	NA	NA	NA	NA	NA	NA	NA	NA	NA	NA	NA	NA
Arrow Flanker 2014	12065	1	"<?xml version=""1.0""?>\n<Clock xmlns:dt=""urn:schemas-microsoft-com:datatypes""><Description dt:dt=""string"">E-Prime Primary Realtime Clock</Description><StartTime><Timestamp dt:dt=""int"">0</Timestamp><DateUtc dt:dt=""string"">2015-03-04T20:21:48Z</DateUtc></StartTime><FrequencyChanges><FrequencyChange><Frequency dt:dt=""r8"">2825703</Frequency><Timestamp dt:dt=""r8"">123041372289</Timestamp><Current dt:dt=""r8"">0</Current><DateUtc dt:dt=""string"">2015-03-04T20:21:48Z</DateUtc></FrequencyChange></FrequencyChanges></Clock>\n"	Arrow Flanker 2014-12065-1	60.019	1.0.0.86	1	-1512137665	Professional	2.0.10.353	2.0.10.353	03-04-2015	3/4/2015 8:21:48 PM	15:21:48	2.0.10.248	2	NA	NA	NA	NA	NA	NA	NA	NA	NA	NA	NA	NA	NA	NA	NA	NA	NA	NA	NA	NA	NA	NA	NA	NA	1	1	1	PracBlockProc	PracBlockList	NA	5	{LEFTARROW}	-100	NA	967	incongruent	NA	NA	NA	0	16	205145	983	1	{LEFTARROW}	-999999	0	206628	0	{LEFTARROW}	717	207345	NA	2	1	5	NA	NA	PracTrialProc	PracTrialList	NA	NA	NA	NA	NA	NA	NA	NA	NA	NA	NA	NA	NA	NA	NA	NA	NA	NA	left	NA	rrlrr.bmp	354	NA	NA	NA	NA	NA	NA	NA	NA	NA	NA	NA	NA	NA	NA	NA	NA	NA	NA	NA	NA	NA
Arrow Flanker 2014	12065	1	"<?xml version=""1.0""?>\n<Clock xmlns:dt=""urn:schemas-microsoft-com:datatypes""><Description dt:dt=""string"">E-Prime Primary Realtime Clock</Description><StartTime><Timestamp dt:dt=""int"">0</Timestamp><DateUtc dt:dt=""string"">2015-03-04T20:21:48Z</DateUtc></StartTime><FrequencyChanges><FrequencyChange><Frequency dt:dt=""r8"">2825703</Frequency><Timestamp dt:dt=""r8"">123041372289</Timestamp><Current dt:dt=""r8"">0</Current><DateUtc dt:dt=""string"">2015-03-04T20:21:48Z</DateUtc></FrequencyChange></FrequencyChanges></Clock>\n"	Arrow Flanker 2014-12065-1	60.019	1.0.0.86	1	-1512137665	Professional	2.0.10.353	2.0.10.353	03-04-2015	3/4/2015 8:21:48 PM	15:21:48	2.0.10.248	2	NA	NA	NA	NA	NA	NA	NA	NA	NA	NA	NA	NA	NA	NA	NA	NA	NA	NA	NA	NA	NA	NA	NA	NA	1	1	1	PracBlockProc	PracBlockList	NA	6	{LEFTARROW}	-100	NA	600	congruent	NA	NA	NA	0	16	208877	600	1	{LEFTARROW}	-999999	0	209977	0	{LEFTARROW}	640	210617	NA	1	1	6	NA	NA	PracTrialProc	PracTrialList	NA	NA	NA	NA	NA	NA	NA	NA	NA	NA	NA	NA	NA	NA	NA	NA	NA	NA	left	NA	lllll.bmp	354	NA	NA	NA	NA	NA	NA	NA	NA	NA	NA	NA	NA	NA	NA	NA	NA	NA	NA	NA	NA	NA
Arrow Flanker 2014	12065	1	"<?xml version=""1.0""?>\n<Clock xmlns:dt=""urn:schemas-microsoft-com:datatypes""><Description dt:dt=""string"">E-Prime Primary Realtime Clock</Description><StartTime><Timestamp dt:dt=""int"">0</Timestamp><DateUtc dt:dt=""string"">2015-03-04T20:21:48Z</DateUtc></StartTime><FrequencyChanges><FrequencyChange><Frequency dt:dt=""r8"">2825703</Frequency><Timestamp dt:dt=""r8"">123041372289</Timestamp><Current dt:dt=""r8"">0</Current><DateUtc dt:dt=""string"">2015-03-04T20:21:48Z</DateUtc></FrequencyChange></FrequencyChanges></Clock>\n"	Arrow Flanker 2014-12065-1	60.019	1.0.0.86	1	-1512137665	Professional	2.0.10.353	2.0.10.353	03-04-2015	3/4/2015 8:21:48 PM	15:21:48	2.0.10.248	3	1	1	1	NA	NA	NA	NA	NA	NA	NA	NA	NA	NA	NA	NA	NA	NA	NA	NA	NA	NA	NA	NA	NA	NA	NA	NA	BlockProc	BlockList	NA	1	{LEFTARROW}	NA	-100	2217	congruent	NA	NA	NA	NA	NA	NA	NA	NA	NA	NA	NA	NA	NA	NA	NA	NA	NA	NA	NA	NA	NA	NA	TrialProc	TrialList	0	9	226305	17	0	16	224072	1050	1	{LEFTARROW}	-999999	0	225622	0	{LEFTARROW}	674	226296	NA	NA	left	lllll.bmp	354	0	NA	0	0	0	0	NA	0	0	0	NA	0	0	0	0	NA	0	0	1	1	1
Arrow Flanker 2014	12065	1	"<?xml version=""1.0""?>\n<Clock xmlns:dt=""urn:schemas-microsoft-com:datatypes""><Description dt:dt=""string"">E-Prime Primary Realtime Clock</Description><StartTime><Timestamp dt:dt=""int"">0</Timestamp><DateUtc dt:dt=""string"">2015-03-04T20:21:48Z</DateUtc></StartTime><FrequencyChanges><FrequencyChange><Frequency dt:dt=""r8"">2825703</Frequency><Timestamp dt:dt=""r8"">123041372289</Timestamp><Current dt:dt=""r8"">0</Current><DateUtc dt:dt=""string"">2015-03-04T20:21:48Z</DateUtc></FrequencyChange></FrequencyChanges></Clock>\n"	Arrow Flanker 2014-12065-1	60.019	1.0.0.86	1	-1512137665	Professional	2.0.10.353	2.0.10.353	03-04-2015	3/4/2015 8:21:48 PM	15:21:48	2.0.10.248	3	1	1	1	NA	NA	NA	NA	NA	NA	NA	NA	NA	NA	NA	NA	NA	NA	NA	NA	NA	NA	NA	NA	NA	NA	NA	NA	BlockProc	BlockList	NA	2	{RIGHTARROW}	NA	-100	1354	neutral	NA	NA	NA	NA	NA	NA	NA	NA	NA	NA	NA	NA	NA	NA	NA	NA	NA	NA	NA	NA	NA	NA	TrialProc	TrialList	1	12	228804	17	0	16	226838	816	1	{RIGHTARROW}	-999999	0	228154	0	{RIGHTARROW}	638	228792	NA	NA	right	ooroo.bmp	354	0	NA	0	0	0	0	NA	0	0	0	NA	0	0	0	0	NA	0	0	6	1	2
Arrow Flanker 2014	12065	1	"<?xml version=""1.0""?>\n<Clock xmlns:dt=""urn:schemas-microsoft-com:datatypes""><Description dt:dt=""string"">E-Prime Primary Realtime Clock</Description><StartTime><Timestamp dt:dt=""int"">0</Timestamp><DateUtc dt:dt=""string"">2015-03-04T20:21:48Z</DateUtc></StartTime><FrequencyChanges><FrequencyChange><Frequency dt:dt=""r8"">2825703</Frequency><Timestamp dt:dt=""r8"">123041372289</Timestamp><Current dt:dt=""r8"">0</Current><DateUtc dt:dt=""string"">2015-03-04T20:21:48Z</DateUtc></FrequencyChange></FrequencyChanges></Clock>\n"	Arrow Flanker 2014-12065-1	60.019	1.0.0.86	1	-1512137665	Professional	2.0.10.353	2.0.10.353	03-04-2015	3/4/2015 8:21:48 PM	15:21:48	2.0.10.248	3	1	1	1	NA	NA	NA	NA	NA	NA	NA	NA	NA	NA	NA	NA	NA	NA	NA	NA	NA	NA	NA	NA	NA	NA	NA	NA	BlockProc	BlockList	NA	3	{RIGHTARROW}	NA	-100	1065	incongruent	NA	NA	NA	NA	NA	NA	NA	NA	NA	NA	NA	NA	NA	NA	NA	NA	NA	NA	NA	NA	NA	NA	TrialProc	TrialList	1	9	231153	17	0	16	229337	617	1	{RIGHTARROW}	-999999	0	230454	0	{RIGHTARROW}	690	231144	NA	NA	right	llrll.bmp	354	0	NA	0	0	0	0	NA	0	0	0	NA	0	0	0	0	NA	0	0	4	1	3
Arrow Flanker 2014	12065	1	"<?xml version=""1.0""?>\n<Clock xmlns:dt=""urn:schemas-microsoft-com:datatypes""><Description dt:dt=""string"">E-Prime Primary Realtime Clock</Description><StartTime><Timestamp dt:dt=""int"">0</Timestamp><DateUtc dt:dt=""string"">2015-03-04T20:21:48Z</DateUtc></StartTime><FrequencyChanges><FrequencyChange><Frequency dt:dt=""r8"">2825703</Frequency><Timestamp dt:dt=""r8"">123041372289</Timestamp><Current dt:dt=""r8"">0</Current><DateUtc dt:dt=""string"">2015-03-04T20:21:48Z</DateUtc></FrequencyChange></FrequencyChanges></Clock>\n"	Arrow Flanker 2014-12065-1	60.019	1.0.0.86	1	-1512137665	Professional	2.0.10.353	2.0.10.353	03-04-2015	3/4/2015 8:21:48 PM	15:21:48	2.0.10.248	3	1	1	1	NA	NA	NA	NA	NA	NA	NA	NA	NA	NA	NA	NA	NA	NA	NA	NA	NA	NA	NA	NA	NA	NA	NA	NA	BlockProc	BlockList	NA	4	{LEFTARROW}	NA	-100	2220	neutral	NA	NA	NA	NA	NA	NA	NA	NA	NA	NA	NA	NA	NA	NA	NA	NA	NA	NA	NA	NA	NA	NA	TrialProc	TrialList	0	20	234036	16	0	17	231687	1299	1	{LEFTARROW}	-999999	0	233486	0	{LEFTARROW}	529	234015	NA	NA	left	ooloo.bmp	354	0	NA	0	0	0	0	NA	0	0	0	NA	0	0	0	0	NA	0	0	5	1	4
Arrow Flanker 2014	12065	1	"<?xml version=""1.0""?>\n<Clock xmlns:dt=""urn:schemas-microsoft-com:datatypes""><Description dt:dt=""string"">E-Prime Primary Realtime Clock</Description><StartTime><Timestamp dt:dt=""int"">0</Timestamp><DateUtc dt:dt=""string"">2015-03-04T20:21:48Z</DateUtc></StartTime><FrequencyChanges><FrequencyChange><Frequency dt:dt=""r8"">2825703</Frequency><Timestamp dt:dt=""r8"">123041372289</Timestamp><Current dt:dt=""r8"">0</Current><DateUtc dt:dt=""string"">2015-03-04T20:21:48Z</DateUtc></FrequencyChange></FrequencyChanges></Clock>\n"	Arrow Flanker 2014-12065-1	60.019	1.0.0.86	1	-1512137665	Professional	2.0.10.353	2.0.10.353	03-04-2015	3/4/2015 8:21:48 PM	15:21:48	2.0.10.248	3	1	1	1	NA	NA	NA	NA	NA	NA	NA	NA	NA	NA	NA	NA	NA	NA	NA	NA	NA	NA	NA	NA	NA	NA	NA	NA	BlockProc	BlockList	NA	5	{LEFTARROW}	NA	-100	2300	neutral	NA	NA	NA	NA	NA	NA	NA	NA	NA	NA	NA	NA	NA	NA	NA	NA	NA	NA	NA	NA	NA	NA	TrialProc	TrialList	0	10	237185	17	0	17	234569	1566	1	{LEFTARROW}	-999999	0	236635	0	{LEFTARROW}	540	237175	NA	NA	left	ooloo.bmp	354	0	NA	0	0	0	0	NA	0	0	0	NA	0	0	0	0	NA	0	0	5	1	5
Arrow Flanker 2014	12065	1	"<?xml version=""1.0""?>\n<Clock xmlns:dt=""urn:schemas-microsoft-com:datatypes""><Description dt:dt=""string"">E-Prime Primary Realtime Clock</Description><StartTime><Timestamp dt:dt=""int"">0</Timestamp><DateUtc dt:dt=""string"">2015-03-04T20:21:48Z</DateUtc></StartTime><FrequencyChanges><FrequencyChange><Frequency dt:dt=""r8"">2825703</Frequency><Timestamp dt:dt=""r8"">123041372289</Timestamp><Current dt:dt=""r8"">0</Current><DateUtc dt:dt=""string"">2015-03-04T20:21:48Z</DateUtc></FrequencyChange></FrequencyChanges></Clock>\n"	Arrow Flanker 2014-12065-1	60.019	1.0.0.86	1	-1512137665	Professional	2.0.10.353	2.0.10.353	03-04-2015	3/4/2015 8:21:48 PM	15:21:48	2.0.10.248	3	1	1	1	NA	NA	NA	NA	NA	NA	NA	NA	NA	NA	NA	NA	NA	NA	NA	NA	NA	NA	NA	NA	NA	NA	NA	NA	BlockProc	BlockList	NA	6	{RIGHTARROW}	NA	-100	2162	neutral	NA	NA	NA	NA	NA	NA	NA	NA	NA	NA	NA	NA	NA	NA	NA	NA	NA	NA	NA	NA	NA	NA	TrialProc	TrialList	1	14	239717	17	0	16	237718	1033	1	{RIGHTARROW}	-999999	0	239251	0	{RIGHTARROW}	452	239703	NA	NA	right	ooroo.bmp	354	0	NA	0	0	0	0	NA	0	0	0	NA	0	0	0	0	NA	0	0	6	1	6
Arrow Flanker 2014	12065	1	"<?xml version=""1.0""?>\n<Clock xmlns:dt=""urn:schemas-microsoft-com:datatypes""><Description dt:dt=""string"">E-Prime Primary Realtime Clock</Description><StartTime><Timestamp dt:dt=""int"">0</Timestamp><DateUtc dt:dt=""string"">2015-03-04T20:21:48Z</DateUtc></StartTime><FrequencyChanges><FrequencyChange><Frequency dt:dt=""r8"">2825703</Frequency><Timestamp dt:dt=""r8"">123041372289</Timestamp><Current dt:dt=""r8"">0</Current><DateUtc dt:dt=""string"">2015-03-04T20:21:48Z</DateUtc></FrequencyChange></FrequencyChanges></Clock>\n"	Arrow Flanker 2014-12065-1	60.019	1.0.0.86	1	-1512137665	Professional	2.0.10.353	2.0.10.353	03-04-2015	3/4/2015 8:21:48 PM	15:21:48	2.0.10.248	3	1	1	1	NA	NA	NA	NA	NA	NA	NA	NA	NA	NA	NA	NA	NA	NA	NA	NA	NA	NA	NA	NA	NA	NA	NA	NA	BlockProc	BlockList	NA	7	{LEFTARROW}	NA	-100	1880	incongruent	NA	NA	NA	NA	NA	NA	NA	NA	NA	NA	NA	NA	NA	NA	NA	NA	NA	NA	NA	NA	NA	NA	TrialProc	TrialList	1	5	242500	17	0	17	240251	1232	1	{LEFTARROW}	-999999	0	241983	0	{LEFTARROW}	512	242495	NA	NA	left	rrlrr.bmp	354	0	NA	0	0	0	0	NA	0	0	0	NA	0	0	0	0	NA	0	0	3	1	7
Arrow Flanker 2014	12065	1	"<?xml version=""1.0""?>\n<Clock xmlns:dt=""urn:schemas-microsoft-com:datatypes""><Description dt:dt=""string"">E-Prime Primary Realtime Clock</Description><StartTime><Timestamp dt:dt=""int"">0</Timestamp><DateUtc dt:dt=""string"">2015-03-04T20:21:48Z</DateUtc></StartTime><FrequencyChanges><FrequencyChange><Frequency dt:dt=""r8"">2825703</Frequency><Timestamp dt:dt=""r8"">123041372289</Timestamp><Current dt:dt=""r8"">0</Current><DateUtc dt:dt=""string"">2015-03-04T20:21:48Z</DateUtc></FrequencyChange></FrequencyChanges></Clock>\n"	Arrow Flanker 2014-12065-1	60.019	1.0.0.86	1	-1512137665	Professional	2.0.10.353	2.0.10.353	03-04-2015	3/4/2015 8:21:48 PM	15:21:48	2.0.10.248	3	1	1	1	NA	NA	NA	NA	NA	NA	NA	NA	NA	NA	NA	NA	NA	NA	NA	NA	NA	NA	NA	NA	NA	NA	NA	NA	BlockProc	BlockList	NA	8	{LEFTARROW}	NA	-100	2057	neutral	NA	NA	NA	NA	NA	NA	NA	NA	NA	NA	NA	NA	NA	NA	NA	NA	NA	NA	NA	NA	NA	NA	TrialProc	TrialList	0	12	245099	17	0	16	243033	1050	1	{LEFTARROW}	-999999	0	244583	0	{LEFTARROW}	504	245087	NA	NA	left	ooloo.bmp	354	0	NA	0	0	0	0	NA	0	0	0	NA	0	0	0	0	NA	0	0	5	1	8
Arrow Flanker 2014	12065	1	"<?xml version=""1.0""?>\n<Clock xmlns:dt=""urn:schemas-microsoft-com:datatypes""><Description dt:dt=""string"">E-Prime Primary Realtime Clock</Description><StartTime><Timestamp dt:dt=""int"">0</Timestamp><DateUtc dt:dt=""string"">2015-03-04T20:21:48Z</DateUtc></StartTime><FrequencyChanges><FrequencyChange><Frequency dt:dt=""r8"">2825703</Frequency><Timestamp dt:dt=""r8"">123041372289</Timestamp><Current dt:dt=""r8"">0</Current><DateUtc dt:dt=""string"">2015-03-04T20:21:48Z</DateUtc></FrequencyChange></FrequencyChanges></Clock>\n"	Arrow Flanker 2014-12065-1	60.019	1.0.0.86	1	-1512137665	Professional	2.0.10.353	2.0.10.353	03-04-2015	3/4/2015 8:21:48 PM	15:21:48	2.0.10.248	3	1	1	1	NA	NA	NA	NA	NA	NA	NA	NA	NA	NA	NA	NA	NA	NA	NA	NA	NA	NA	NA	NA	NA	NA	NA	NA	BlockProc	BlockList	NA	9	{RIGHTARROW}	NA	-100	1707	congruent	NA	NA	NA	NA	NA	NA	NA	NA	NA	NA	NA	NA	NA	NA	NA	NA	NA	NA	NA	NA	NA	NA	TrialProc	TrialList	0	13	247332	16	0	16	245632	750	1	{RIGHTARROW}	-999999	0	246882	0	{RIGHTARROW}	436	247318	NA	NA	right	rrrrr.bmp	354	0	NA	0	0	0	0	NA	0	0	0	NA	0	0	0	0	NA	0	0	2	1	9
Arrow Flanker 2014	12065	1	"<?xml version=""1.0""?>\n<Clock xmlns:dt=""urn:schemas-microsoft-com:datatypes""><Description dt:dt=""string"">E-Prime Primary Realtime Clock</Description><StartTime><Timestamp dt:dt=""int"">0</Timestamp><DateUtc dt:dt=""string"">2015-03-04T20:21:48Z</DateUtc></StartTime><FrequencyChanges><FrequencyChange><Frequency dt:dt=""r8"">2825703</Frequency><Timestamp dt:dt=""r8"">123041372289</Timestamp><Current dt:dt=""r8"">0</Current><DateUtc dt:dt=""string"">2015-03-04T20:21:48Z</DateUtc></FrequencyChange></FrequencyChanges></Clock>\n"	Arrow Flanker 2014-12065-1	60.019	1.0.0.86	1	-1512137665	Professional	2.0.10.353	2.0.10.353	03-04-2015	3/4/2015 8:21:48 PM	15:21:48	2.0.10.248	3	1	1	1	NA	NA	NA	NA	NA	NA	NA	NA	NA	NA	NA	NA	NA	NA	NA	NA	NA	NA	NA	NA	NA	NA	NA	NA	BlockProc	BlockList	NA	10	{RIGHTARROW}	NA	-100	2094	neutral	NA	NA	NA	NA	NA	NA	NA	NA	NA	NA	NA	NA	NA	NA	NA	NA	NA	NA	NA	NA	NA	NA	TrialProc	TrialList	0	13	250131	16	0	17	247865	1266	1	{RIGHTARROW}	-999999	0	249631	0	{RIGHTARROW}	487	250118	NA	NA	right	ooroo.bmp	354	0	NA	0	0	0	0	NA	0	0	0	NA	0	0	0	0	NA	0	0	6	1	10
Arrow Flanker 2014	12065	1	"<?xml version=""1.0""?>\n<Clock xmlns:dt=""urn:schemas-microsoft-com:datatypes""><Description dt:dt=""string"">E-Prime Primary Realtime Clock</Description><StartTime><Timestamp dt:dt=""int"">0</Timestamp><DateUtc dt:dt=""string"">2015-03-04T20:21:48Z</DateUtc></StartTime><FrequencyChanges><FrequencyChange><Frequency dt:dt=""r8"">2825703</Frequency><Timestamp dt:dt=""r8"">123041372289</Timestamp><Current dt:dt=""r8"">0</Current><DateUtc dt:dt=""string"">2015-03-04T20:21:48Z</DateUtc></FrequencyChange></FrequencyChanges></Clock>\n"	Arrow Flanker 2014-12065-1	60.019	1.0.0.86	1	-1512137665	Professional	2.0.10.353	2.0.10.353	03-04-2015	3/4/2015 8:21:48 PM	15:21:48	2.0.10.248	3	1	1	1	NA	NA	NA	NA	NA	NA	NA	NA	NA	NA	NA	NA	NA	NA	NA	NA	NA	NA	NA	NA	NA	NA	NA	NA	BlockProc	BlockList	NA	11	{LEFTARROW}	NA	-100	1468	incongruent	NA	NA	NA	NA	NA	NA	NA	NA	NA	NA	NA	NA	NA	NA	NA	NA	NA	NA	NA	NA	NA	NA	TrialProc	TrialList	0	6	252348	16	0	17	250664	650	1	{LEFTARROW}	-999999	0	251814	0	{LEFTARROW}	528	252342	NA	NA	left	rrlrr.bmp	354	0	NA	0	0	0	0	NA	0	0	0	NA	0	0	0	0	NA	0	0	3	1	11
Arrow Flanker 2014	12065	1	"<?xml version=""1.0""?>\n<Clock xmlns:dt=""urn:schemas-microsoft-com:datatypes""><Description dt:dt=""string"">E-Prime Primary Realtime Clock</Description><StartTime><Timestamp dt:dt=""int"">0</Timestamp><DateUtc dt:dt=""string"">2015-03-04T20:21:48Z</DateUtc></StartTime><FrequencyChanges><FrequencyChange><Frequency dt:dt=""r8"">2825703</Frequency><Timestamp dt:dt=""r8"">123041372289</Timestamp><Current dt:dt=""r8"">0</Current><DateUtc dt:dt=""string"">2015-03-04T20:21:48Z</DateUtc></FrequencyChange></FrequencyChanges></Clock>\n"	Arrow Flanker 2014-12065-1	60.019	1.0.0.86	1	-1512137665	Professional	2.0.10.353	2.0.10.353	03-04-2015	3/4/2015 8:21:48 PM	15:21:48	2.0.10.248	3	1	1	1	NA	NA	NA	NA	NA	NA	NA	NA	NA	NA	NA	NA	NA	NA	NA	NA	NA	NA	NA	NA	NA	NA	NA	NA	BlockProc	BlockList	NA	12	{RIGHTARROW}	NA	-100	1083	congruent	NA	NA	NA	NA	NA	NA	NA	NA	NA	NA	NA	NA	NA	NA	NA	NA	NA	NA	NA	NA	NA	NA	TrialProc	TrialList	1	12	254346	17	0	16	252880	600	1	{RIGHTARROW}	-999999	0	253980	0	{RIGHTARROW}	354	254334	NA	NA	right	rrrrr.bmp	354	0	NA	0	0	0	0	NA	0	0	0	NA	0	0	0	0	NA	0	0	2	1	12
Arrow Flanker 2014	12065	1	"<?xml version=""1.0""?>\n<Clock xmlns:dt=""urn:schemas-microsoft-com:datatypes""><Description dt:dt=""string"">E-Prime Primary Realtime Clock</Description><StartTime><Timestamp dt:dt=""int"">0</Timestamp><DateUtc dt:dt=""string"">2015-03-04T20:21:48Z</DateUtc></StartTime><FrequencyChanges><FrequencyChange><Frequency dt:dt=""r8"">2825703</Frequency><Timestamp dt:dt=""r8"">123041372289</Timestamp><Current dt:dt=""r8"">0</Current><DateUtc dt:dt=""string"">2015-03-04T20:21:48Z</DateUtc></FrequencyChange></FrequencyChanges></Clock>\n"	Arrow Flanker 2014-12065-1	60.019	1.0.0.86	1	-1512137665	Professional	2.0.10.353	2.0.10.353	03-04-2015	3/4/2015 8:21:48 PM	15:21:48	2.0.10.248	3	1	1	1	NA	NA	NA	NA	NA	NA	NA	NA	NA	NA	NA	NA	NA	NA	NA	NA	NA	NA	NA	NA	NA	NA	NA	NA	BlockProc	BlockList	NA	13	{LEFTARROW}	NA	-100	1906	neutral	NA	NA	NA	NA	NA	NA	NA	NA	NA	NA	NA	NA	NA	NA	NA	NA	NA	NA	NA	NA	NA	NA	TrialProc	TrialList	0	10	256512	17	0	16	254879	767	1	{LEFTARROW}	-999999	0	256146	0	{LEFTARROW}	356	256502	NA	NA	left	ooloo.bmp	354	0	NA	0	0	0	0	NA	0	0	0	NA	0	0	0	0	NA	0	0	5	1	13
Arrow Flanker 2014	12065	1	"<?xml version=""1.0""?>\n<Clock xmlns:dt=""urn:schemas-microsoft-com:datatypes""><Description dt:dt=""string"">E-Prime Primary Realtime Clock</Description><StartTime><Timestamp dt:dt=""int"">0</Timestamp><DateUtc dt:dt=""string"">2015-03-04T20:21:48Z</DateUtc></StartTime><FrequencyChanges><FrequencyChange><Frequency dt:dt=""r8"">2825703</Frequency><Timestamp dt:dt=""r8"">123041372289</Timestamp><Current dt:dt=""r8"">0</Current><DateUtc dt:dt=""string"">2015-03-04T20:21:48Z</DateUtc></FrequencyChange></FrequencyChanges></Clock>\n"	Arrow Flanker 2014-12065-1	60.019	1.0.0.86	1	-1512137665	Professional	2.0.10.353	2.0.10.353	03-04-2015	3/4/2015 8:21:48 PM	15:21:48	2.0.10.248	3	1	1	1	NA	NA	NA	NA	NA	NA	NA	NA	NA	NA	NA	NA	NA	NA	NA	NA	NA	NA	NA	NA	NA	NA	NA	NA	BlockProc	BlockList	NA	14	{RIGHTARROW}	NA	-100	2096	neutral	NA	NA	NA	NA	NA	NA	NA	NA	NA	NA	NA	NA	NA	NA	NA	NA	NA	NA	NA	NA	NA	NA	TrialProc	TrialList	0	9	259295	16	0	16	257045	1350	1	{RIGHTARROW}	-999999	0	258895	0	{RIGHTARROW}	390	259285	NA	NA	right	ooroo.bmp	354	0	NA	0	0	0	0	NA	0	0	0	NA	0	0	0	0	NA	0	0	6	1	14
Arrow Flanker 2014	12065	1	"<?xml version=""1.0""?>\n<Clock xmlns:dt=""urn:schemas-microsoft-com:datatypes""><Description dt:dt=""string"">E-Prime Primary Realtime Clock</Description><StartTime><Timestamp dt:dt=""int"">0</Timestamp><DateUtc dt:dt=""string"">2015-03-04T20:21:48Z</DateUtc></StartTime><FrequencyChanges><FrequencyChange><Frequency dt:dt=""r8"">2825703</Frequency><Timestamp dt:dt=""r8"">123041372289</Timestamp><Current dt:dt=""r8"">0</Current><DateUtc dt:dt=""string"">2015-03-04T20:21:48Z</DateUtc></FrequencyChange></FrequencyChanges></Clock>\n"	Arrow Flanker 2014-12065-1	60.019	1.0.0.86	1	-1512137665	Professional	2.0.10.353	2.0.10.353	03-04-2015	3/4/2015 8:21:48 PM	15:21:48	2.0.10.248	3	1	1	1	NA	NA	NA	NA	NA	NA	NA	NA	NA	NA	NA	NA	NA	NA	NA	NA	NA	NA	NA	NA	NA	NA	NA	NA	BlockProc	BlockList	NA	15	{LEFTARROW}	NA	-100	2213	incongruent	NA	NA	NA	NA	NA	NA	NA	NA	NA	NA	NA	NA	NA	NA	NA	NA	NA	NA	NA	NA	NA	NA	TrialProc	TrialList	0	11	262144	16	0	17	259828	1399	1	{LEFTARROW}	-999999	0	261727	0	{LEFTARROW}	406	262133	NA	NA	left	rrlrr.bmp	354	0	NA	0	0	0	0	NA	0	0	0	NA	0	0	0	0	NA	0	0	3	1	15
Arrow Flanker 2014	12065	1	"<?xml version=""1.0""?>\n<Clock xmlns:dt=""urn:schemas-microsoft-com:datatypes""><Description dt:dt=""string"">E-Prime Primary Realtime Clock</Description><StartTime><Timestamp dt:dt=""int"">0</Timestamp><DateUtc dt:dt=""string"">2015-03-04T20:21:48Z</DateUtc></StartTime><FrequencyChanges><FrequencyChange><Frequency dt:dt=""r8"">2825703</Frequency><Timestamp dt:dt=""r8"">123041372289</Timestamp><Current dt:dt=""r8"">0</Current><DateUtc dt:dt=""string"">2015-03-04T20:21:48Z</DateUtc></FrequencyChange></FrequencyChanges></Clock>\n"	Arrow Flanker 2014-12065-1	60.019	1.0.0.86	1	-1512137665	Professional	2.0.10.353	2.0.10.353	03-04-2015	3/4/2015 8:21:48 PM	15:21:48	2.0.10.248	3	1	1	1	NA	NA	NA	NA	NA	NA	NA	NA	NA	NA	NA	NA	NA	NA	NA	NA	NA	NA	NA	NA	NA	NA	NA	NA	BlockProc	BlockList	NA	16	{LEFTARROW}	NA	-100	1779	neutral	NA	NA	NA	NA	NA	NA	NA	NA	NA	NA	NA	NA	NA	NA	NA	NA	NA	NA	NA	NA	NA	NA	TrialProc	TrialList	0	15	264860	16	0	17	262677	1383	0	{LEFTARROW}	-999999	0	264560	0	{RIGHTARROW}	285	264845	NA	NA	left	ooloo.bmp	354	0	NA	0	0	0	0	NA	0	0	0	NA	0	0	0	0	NA	0	0	5	1	16
Arrow Flanker 2014	12065	1	"<?xml version=""1.0""?>\n<Clock xmlns:dt=""urn:schemas-microsoft-com:datatypes""><Description dt:dt=""string"">E-Prime Primary Realtime Clock</Description><StartTime><Timestamp dt:dt=""int"">0</Timestamp><DateUtc dt:dt=""string"">2015-03-04T20:21:48Z</DateUtc></StartTime><FrequencyChanges><FrequencyChange><Frequency dt:dt=""r8"">2825703</Frequency><Timestamp dt:dt=""r8"">123041372289</Timestamp><Current dt:dt=""r8"">0</Current><DateUtc dt:dt=""string"">2015-03-04T20:21:48Z</DateUtc></FrequencyChange></FrequencyChanges></Clock>\n"	Arrow Flanker 2014-12065-1	60.019	1.0.0.86	1	-1512137665	Professional	2.0.10.353	2.0.10.353	03-04-2015	3/4/2015 8:21:48 PM	15:21:48	2.0.10.248	3	1	1	1	NA	NA	NA	NA	NA	NA	NA	NA	NA	NA	NA	NA	NA	NA	NA	NA	NA	NA	NA	NA	NA	NA	NA	NA	BlockProc	BlockList	NA	17	{LEFTARROW}	NA	-100	1660	incongruent	NA	NA	NA	NA	NA	NA	NA	NA	NA	NA	NA	NA	NA	NA	NA	NA	NA	NA	NA	NA	NA	NA	TrialProc	TrialList	1	12	267425	17	0	17	265393	949	1	{LEFTARROW}	-999999	0	266842	0	{LEFTARROW}	571	267413	NA	NA	left	rrlrr.bmp	354	0	NA	0	0	0	0	NA	0	0	0	NA	0	0	0	0	NA	0	0	3	1	17
Arrow Flanker 2014	12065	1	"<?xml version=""1.0""?>\n<Clock xmlns:dt=""urn:schemas-microsoft-com:datatypes""><Description dt:dt=""string"">E-Prime Primary Realtime Clock</Description><StartTime><Timestamp dt:dt=""int"">0</Timestamp><DateUtc dt:dt=""string"">2015-03-04T20:21:48Z</DateUtc></StartTime><FrequencyChanges><FrequencyChange><Frequency dt:dt=""r8"">2825703</Frequency><Timestamp dt:dt=""r8"">123041372289</Timestamp><Current dt:dt=""r8"">0</Current><DateUtc dt:dt=""string"">2015-03-04T20:21:48Z</DateUtc></FrequencyChange></FrequencyChanges></Clock>\n"	Arrow Flanker 2014-12065-1	60.019	1.0.0.86	1	-1512137665	Professional	2.0.10.353	2.0.10.353	03-04-2015	3/4/2015 8:21:48 PM	15:21:48	2.0.10.248	3	1	1	1	NA	NA	NA	NA	NA	NA	NA	NA	NA	NA	NA	NA	NA	NA	NA	NA	NA	NA	NA	NA	NA	NA	NA	NA	BlockProc	BlockList	NA	18	{RIGHTARROW}	NA	-100	1963	congruent	NA	NA	NA	NA	NA	NA	NA	NA	NA	NA	NA	NA	NA	NA	NA	NA	NA	NA	NA	NA	NA	NA	TrialProc	TrialList	0	4	269825	16	0	17	267959	849	1	{RIGHTARROW}	-999999	0	269308	0	{RIGHTARROW}	513	269821	NA	NA	right	rrrrr.bmp	354	0	NA	0	0	0	0	NA	0	0	0	NA	0	0	0	0	NA	0	0	2	1	18
Arrow Flanker 2014	12065	1	"<?xml version=""1.0""?>\n<Clock xmlns:dt=""urn:schemas-microsoft-com:datatypes""><Description dt:dt=""string"">E-Prime Primary Realtime Clock</Description><StartTime><Timestamp dt:dt=""int"">0</Timestamp><DateUtc dt:dt=""string"">2015-03-04T20:21:48Z</DateUtc></StartTime><FrequencyChanges><FrequencyChange><Frequency dt:dt=""r8"">2825703</Frequency><Timestamp dt:dt=""r8"">123041372289</Timestamp><Current dt:dt=""r8"">0</Current><DateUtc dt:dt=""string"">2015-03-04T20:21:48Z</DateUtc></FrequencyChange></FrequencyChanges></Clock>\n"	Arrow Flanker 2014-12065-1	60.019	1.0.0.86	1	-1512137665	Professional	2.0.10.353	2.0.10.353	03-04-2015	3/4/2015 8:21:48 PM	15:21:48	2.0.10.248	3	1	1	1	NA	NA	NA	NA	NA	NA	NA	NA	NA	NA	NA	NA	NA	NA	NA	NA	NA	NA	NA	NA	NA	NA	NA	NA	BlockProc	BlockList	NA	19	{RIGHTARROW}	NA	-100	1526	congruent	NA	NA	NA	NA	NA	NA	NA	NA	NA	NA	NA	NA	NA	NA	NA	NA	NA	NA	NA	NA	NA	NA	TrialProc	TrialList	0	6	272074	17	0	17	270358	700	1	{RIGHTARROW}	-999999	16	271574	0	{RIGHTARROW}	494	272068	NA	NA	right	rrrrr.bmp	354	0	NA	0	0	0	0	NA	0	0	0	NA	0	0	0	0	NA	0	0	2	1	19
Arrow Flanker 2014	12065	1	"<?xml version=""1.0""?>\n<Clock xmlns:dt=""urn:schemas-microsoft-com:datatypes""><Description dt:dt=""string"">E-Prime Primary Realtime Clock</Description><StartTime><Timestamp dt:dt=""int"">0</Timestamp><DateUtc dt:dt=""string"">2015-03-04T20:21:48Z</DateUtc></StartTime><FrequencyChanges><FrequencyChange><Frequency dt:dt=""r8"">2825703</Frequency><Timestamp dt:dt=""r8"">123041372289</Timestamp><Current dt:dt=""r8"">0</Current><DateUtc dt:dt=""string"">2015-03-04T20:21:48Z</DateUtc></FrequencyChange></FrequencyChanges></Clock>\n"	Arrow Flanker 2014-12065-1	60.019	1.0.0.86	1	-1512137665	Professional	2.0.10.353	2.0.10.353	03-04-2015	3/4/2015 8:21:48 PM	15:21:48	2.0.10.248	3	1	1	1	NA	NA	NA	NA	NA	NA	NA	NA	NA	NA	NA	NA	NA	NA	NA	NA	NA	NA	NA	NA	NA	NA	NA	NA	BlockProc	BlockList	NA	20	{RIGHTARROW}	NA	-100	2392	congruent	NA	NA	NA	NA	NA	NA	NA	NA	NA	NA	NA	NA	NA	NA	NA	NA	NA	NA	NA	NA	NA	NA	TrialProc	TrialList	0	10	274790	16	0	16	272607	1266	1	{RIGHTARROW}	-999999	0	274373	0	{RIGHTARROW}	407	274780	NA	NA	right	rrrrr.bmp	354	0	NA	0	0	0	0	NA	0	0	0	NA	0	0	0	0	NA	0	0	2	1	20
Arrow Flanker 2014	12065	1	"<?xml version=""1.0""?>\n<Clock xmlns:dt=""urn:schemas-microsoft-com:datatypes""><Description dt:dt=""string"">E-Prime Primary Realtime Clock</Description><StartTime><Timestamp dt:dt=""int"">0</Timestamp><DateUtc dt:dt=""string"">2015-03-04T20:21:48Z</DateUtc></StartTime><FrequencyChanges><FrequencyChange><Frequency dt:dt=""r8"">2825703</Frequency><Timestamp dt:dt=""r8"">123041372289</Timestamp><Current dt:dt=""r8"">0</Current><DateUtc dt:dt=""string"">2015-03-04T20:21:48Z</DateUtc></FrequencyChange></FrequencyChanges></Clock>\n"	Arrow Flanker 2014-12065-1	60.019	1.0.0.86	1	-1512137665	Professional	2.0.10.353	2.0.10.353	03-04-2015	3/4/2015 8:21:48 PM	15:21:48	2.0.10.248	3	1	1	1	NA	NA	NA	NA	NA	NA	NA	NA	NA	NA	NA	NA	NA	NA	NA	NA	NA	NA	NA	NA	NA	NA	NA	NA	BlockProc	BlockList	NA	21	{RIGHTARROW}	NA	-100	1760	incongruent	NA	NA	NA	NA	NA	NA	NA	NA	NA	NA	NA	NA	NA	NA	NA	NA	NA	NA	NA	NA	NA	NA	TrialProc	TrialList	0	15	277939	16	0	17	275323	1483	1	{RIGHTARROW}	-999999	0	277306	0	{RIGHTARROW}	618	277924	NA	NA	right	llrll.bmp	354	0	NA	0	0	0	0	NA	0	0	0	NA	0	0	0	0	NA	0	0	4	1	21
Arrow Flanker 2014	12065	1	"<?xml version=""1.0""?>\n<Clock xmlns:dt=""urn:schemas-microsoft-com:datatypes""><Description dt:dt=""string"">E-Prime Primary Realtime Clock</Description><StartTime><Timestamp dt:dt=""int"">0</Timestamp><DateUtc dt:dt=""string"">2015-03-04T20:21:48Z</DateUtc></StartTime><FrequencyChanges><FrequencyChange><Frequency dt:dt=""r8"">2825703</Frequency><Timestamp dt:dt=""r8"">123041372289</Timestamp><Current dt:dt=""r8"">0</Current><DateUtc dt:dt=""string"">2015-03-04T20:21:48Z</DateUtc></FrequencyChange></FrequencyChanges></Clock>\n"	Arrow Flanker 2014-12065-1	60.019	1.0.0.86	1	-1512137665	Professional	2.0.10.353	2.0.10.353	03-04-2015	3/4/2015 8:21:48 PM	15:21:48	2.0.10.248	3	1	1	1	NA	NA	NA	NA	NA	NA	NA	NA	NA	NA	NA	NA	NA	NA	NA	NA	NA	NA	NA	NA	NA	NA	NA	NA	BlockProc	BlockList	NA	22	{LEFTARROW}	NA	-100	1501	neutral	NA	NA	NA	NA	NA	NA	NA	NA	NA	NA	NA	NA	NA	NA	NA	NA	NA	NA	NA	NA	2	1	TrialProc	TrialList	0	6	280338	17	0	17	278472	850	1	{LEFTARROW}	-999999	16	279838	0	{LEFTARROW}	494	280332	NA	NA	left	ooloo.bmp	354	0	NA	-999999	16	280871	0	1	8728	289599	0	NA	-999999	19	289618	0	1	2789	292407	5	1	22
Arrow Flanker 2014	12065	1	"<?xml version=""1.0""?>\n<Clock xmlns:dt=""urn:schemas-microsoft-com:datatypes""><Description dt:dt=""string"">E-Prime Primary Realtime Clock</Description><StartTime><Timestamp dt:dt=""int"">0</Timestamp><DateUtc dt:dt=""string"">2015-03-04T20:21:48Z</DateUtc></StartTime><FrequencyChanges><FrequencyChange><Frequency dt:dt=""r8"">2825703</Frequency><Timestamp dt:dt=""r8"">123041372289</Timestamp><Current dt:dt=""r8"">0</Current><DateUtc dt:dt=""string"">2015-03-04T20:21:48Z</DateUtc></FrequencyChange></FrequencyChanges></Clock>\n"	Arrow Flanker 2014-12065-1	60.019	1.0.0.86	1	-1512137665	Professional	2.0.10.353	2.0.10.353	03-04-2015	3/4/2015 8:21:48 PM	15:21:48	2.0.10.248	3	1	1	1	NA	NA	NA	NA	NA	NA	NA	NA	NA	NA	NA	NA	NA	NA	NA	NA	NA	NA	NA	NA	NA	NA	NA	NA	BlockProc	BlockList	NA	23	{RIGHTARROW}	NA	-100	1804	congruent	NA	NA	NA	NA	NA	NA	NA	NA	NA	NA	NA	NA	NA	NA	NA	NA	NA	NA	NA	NA	NA	NA	TrialProc	TrialList	0	3	296750	16	0	16	294067	1166	1	{RIGHTARROW}	-999999	0	295733	0	{RIGHTARROW}	1014	296747	NA	NA	right	rrrrr.bmp	354	0	NA	0	0	0	0	NA	0	0	0	NA	0	0	0	0	NA	0	0	2	1	23
Arrow Flanker 2014	12065	1	"<?xml version=""1.0""?>\n<Clock xmlns:dt=""urn:schemas-microsoft-com:datatypes""><Description dt:dt=""string"">E-Prime Primary Realtime Clock</Description><StartTime><Timestamp dt:dt=""int"">0</Timestamp><DateUtc dt:dt=""string"">2015-03-04T20:21:48Z</DateUtc></StartTime><FrequencyChanges><FrequencyChange><Frequency dt:dt=""r8"">2825703</Frequency><Timestamp dt:dt=""r8"">123041372289</Timestamp><Current dt:dt=""r8"">0</Current><DateUtc dt:dt=""string"">2015-03-04T20:21:48Z</DateUtc></FrequencyChange></FrequencyChanges></Clock>\n"	Arrow Flanker 2014-12065-1	60.019	1.0.0.86	1	-1512137665	Professional	2.0.10.353	2.0.10.353	03-04-2015	3/4/2015 8:21:48 PM	15:21:48	2.0.10.248	3	1	1	1	NA	NA	NA	NA	NA	NA	NA	NA	NA	NA	NA	NA	NA	NA	NA	NA	NA	NA	NA	NA	NA	NA	NA	NA	BlockProc	BlockList	NA	24	{LEFTARROW}	NA	-100	1131	congruent	NA	NA	NA	NA	NA	NA	NA	NA	NA	NA	NA	NA	NA	NA	NA	NA	NA	NA	NA	NA	NA	NA	TrialProc	TrialList	1	9	298915	17	0	17	297283	666	1	{LEFTARROW}	-999999	0	298449	0	{LEFTARROW}	457	298906	NA	NA	left	lllll.bmp	354	0	NA	0	0	0	0	NA	0	0	0	NA	0	0	0	0	NA	0	0	1	1	24
Arrow Flanker 2014	12065	1	"<?xml version=""1.0""?>\n<Clock xmlns:dt=""urn:schemas-microsoft-com:datatypes""><Description dt:dt=""string"">E-Prime Primary Realtime Clock</Description><StartTime><Timestamp dt:dt=""int"">0</Timestamp><DateUtc dt:dt=""string"">2015-03-04T20:21:48Z</DateUtc></StartTime><FrequencyChanges><FrequencyChange><Frequency dt:dt=""r8"">2825703</Frequency><Timestamp dt:dt=""r8"">123041372289</Timestamp><Current dt:dt=""r8"">0</Current><DateUtc dt:dt=""string"">2015-03-04T20:21:48Z</DateUtc></FrequencyChange></FrequencyChanges></Clock>\n"	Arrow Flanker 2014-12065-1	60.019	1.0.0.86	1	-1512137665	Professional	2.0.10.353	2.0.10.353	03-04-2015	3/4/2015 8:21:48 PM	15:21:48	2.0.10.248	3	1	1	1	NA	NA	NA	NA	NA	NA	NA	NA	NA	NA	NA	NA	NA	NA	NA	NA	NA	NA	NA	NA	NA	NA	NA	NA	BlockProc	BlockList	NA	25	{LEFTARROW}	NA	-100	1378	neutral	NA	NA	NA	NA	NA	NA	NA	NA	NA	NA	NA	NA	NA	NA	NA	NA	NA	NA	NA	NA	NA	NA	TrialProc	TrialList	0	11	300965	17	0	17	299449	533	1	{LEFTARROW}	-999999	0	300482	0	{LEFTARROW}	472	300954	NA	NA	left	ooloo.bmp	354	0	NA	0	0	0	0	NA	0	0	0	NA	0	0	0	0	NA	0	0	5	1	25
Arrow Flanker 2014	12065	1	"<?xml version=""1.0""?>\n<Clock xmlns:dt=""urn:schemas-microsoft-com:datatypes""><Description dt:dt=""string"">E-Prime Primary Realtime Clock</Description><StartTime><Timestamp dt:dt=""int"">0</Timestamp><DateUtc dt:dt=""string"">2015-03-04T20:21:48Z</DateUtc></StartTime><FrequencyChanges><FrequencyChange><Frequency dt:dt=""r8"">2825703</Frequency><Timestamp dt:dt=""r8"">123041372289</Timestamp><Current dt:dt=""r8"">0</Current><DateUtc dt:dt=""string"">2015-03-04T20:21:48Z</DateUtc></FrequencyChange></FrequencyChanges></Clock>\n"	Arrow Flanker 2014-12065-1	60.019	1.0.0.86	1	-1512137665	Professional	2.0.10.353	2.0.10.353	03-04-2015	3/4/2015 8:21:48 PM	15:21:48	2.0.10.248	3	1	1	1	NA	NA	NA	NA	NA	NA	NA	NA	NA	NA	NA	NA	NA	NA	NA	NA	NA	NA	NA	NA	NA	NA	NA	NA	BlockProc	BlockList	NA	26	{LEFTARROW}	NA	-100	1619	congruent	NA	NA	NA	NA	NA	NA	NA	NA	NA	NA	NA	NA	NA	NA	NA	NA	NA	NA	NA	NA	NA	NA	TrialProc	TrialList	1	7	303697	17	0	16	301498	0	1	{LEFTARROW}	-999999	0	303264	0	{LEFTARROW}	426	303690	NA	NA	left	lllll.bmp	354	0	NA	0	0	0	0	NA	0	0	0	NA	0	0	0	0	NA	0	0	1	1	26
Arrow Flanker 2014	12065	1	"<?xml version=""1.0""?>\n<Clock xmlns:dt=""urn:schemas-microsoft-com:datatypes""><Description dt:dt=""string"">E-Prime Primary Realtime Clock</Description><StartTime><Timestamp dt:dt=""int"">0</Timestamp><DateUtc dt:dt=""string"">2015-03-04T20:21:48Z</DateUtc></StartTime><FrequencyChanges><FrequencyChange><Frequency dt:dt=""r8"">2825703</Frequency><Timestamp dt:dt=""r8"">123041372289</Timestamp><Current dt:dt=""r8"">0</Current><DateUtc dt:dt=""string"">2015-03-04T20:21:48Z</DateUtc></FrequencyChange></FrequencyChanges></Clock>\n"	Arrow Flanker 2014-12065-1	60.019	1.0.0.86	1	-1512137665	Professional	2.0.10.353	2.0.10.353	03-04-2015	3/4/2015 8:21:48 PM	15:21:48	2.0.10.248	3	1	1	1	NA	NA	NA	NA	NA	NA	NA	NA	NA	NA	NA	NA	NA	NA	NA	NA	NA	NA	NA	NA	NA	NA	NA	NA	BlockProc	BlockList	NA	27	{RIGHTARROW}	NA	-100	1804	congruent	NA	NA	NA	NA	NA	NA	NA	NA	NA	NA	NA	NA	NA	NA	NA	NA	NA	NA	NA	NA	NA	NA	TrialProc	TrialList	0	6	306080	17	0	17	304231	0	1	{RIGHTARROW}	-999999	0	305680	0	{RIGHTARROW}	394	306074	NA	NA	right	rrrrr.bmp	354	0	NA	0	0	0	0	NA	0	0	0	NA	0	0	0	0	NA	0	0	2	1	27
Arrow Flanker 2014	12065	1	"<?xml version=""1.0""?>\n<Clock xmlns:dt=""urn:schemas-microsoft-com:datatypes""><Description dt:dt=""string"">E-Prime Primary Realtime Clock</Description><StartTime><Timestamp dt:dt=""int"">0</Timestamp><DateUtc dt:dt=""string"">2015-03-04T20:21:48Z</DateUtc></StartTime><FrequencyChanges><FrequencyChange><Frequency dt:dt=""r8"">2825703</Frequency><Timestamp dt:dt=""r8"">123041372289</Timestamp><Current dt:dt=""r8"">0</Current><DateUtc dt:dt=""string"">2015-03-04T20:21:48Z</DateUtc></FrequencyChange></FrequencyChanges></Clock>\n"	Arrow Flanker 2014-12065-1	60.019	1.0.0.86	1	-1512137665	Professional	2.0.10.353	2.0.10.353	03-04-2015	3/4/2015 8:21:48 PM	15:21:48	2.0.10.248	3	1	1	1	NA	NA	NA	NA	NA	NA	NA	NA	NA	NA	NA	NA	NA	NA	NA	NA	NA	NA	NA	NA	NA	NA	NA	NA	BlockProc	BlockList	NA	28	{LEFTARROW}	NA	-100	2198	incongruent	NA	NA	NA	NA	NA	NA	NA	NA	NA	NA	NA	NA	NA	NA	NA	NA	NA	NA	NA	NA	NA	NA	TrialProc	TrialList	0	10	309196	16	0	16	306613	0	1	{LEFTARROW}	-999999	16	308679	0	{LEFTARROW}	507	309186	NA	NA	left	rrlrr.bmp	354	0	NA	0	0	0	0	NA	0	0	0	NA	0	0	0	0	NA	0	0	3	1	28
Arrow Flanker 2014	12065	1	"<?xml version=""1.0""?>\n<Clock xmlns:dt=""urn:schemas-microsoft-com:datatypes""><Description dt:dt=""string"">E-Prime Primary Realtime Clock</Description><StartTime><Timestamp dt:dt=""int"">0</Timestamp><DateUtc dt:dt=""string"">2015-03-04T20:21:48Z</DateUtc></StartTime><FrequencyChanges><FrequencyChange><Frequency dt:dt=""r8"">2825703</Frequency><Timestamp dt:dt=""r8"">123041372289</Timestamp><Current dt:dt=""r8"">0</Current><DateUtc dt:dt=""string"">2015-03-04T20:21:48Z</DateUtc></FrequencyChange></FrequencyChanges></Clock>\n"	Arrow Flanker 2014-12065-1	60.019	1.0.0.86	1	-1512137665	Professional	2.0.10.353	2.0.10.353	03-04-2015	3/4/2015 8:21:48 PM	15:21:48	2.0.10.248	3	1	1	1	NA	NA	NA	NA	NA	NA	NA	NA	NA	NA	NA	NA	NA	NA	NA	NA	NA	NA	NA	NA	NA	NA	NA	NA	BlockProc	BlockList	NA	29	{LEFTARROW}	NA	-100	1385	congruent	NA	NA	NA	NA	NA	NA	NA	NA	NA	NA	NA	NA	NA	NA	NA	NA	NA	NA	NA	NA	NA	NA	TrialProc	TrialList	1	6	311128	17	0	17	309729	0	1	{LEFTARROW}	-999999	0	310712	0	{LEFTARROW}	409	311121	NA	NA	left	lllll.bmp	354	0	NA	0	0	0	0	NA	0	0	0	NA	0	0	0	0	NA	0	0	1	1	29
Arrow Flanker 2014	12065	1	"<?xml version=""1.0""?>\n<Clock xmlns:dt=""urn:schemas-microsoft-com:datatypes""><Description dt:dt=""string"">E-Prime Primary Realtime Clock</Description><StartTime><Timestamp dt:dt=""int"">0</Timestamp><DateUtc dt:dt=""string"">2015-03-04T20:21:48Z</DateUtc></StartTime><FrequencyChanges><FrequencyChange><Frequency dt:dt=""r8"">2825703</Frequency><Timestamp dt:dt=""r8"">123041372289</Timestamp><Current dt:dt=""r8"">0</Current><DateUtc dt:dt=""string"">2015-03-04T20:21:48Z</DateUtc></FrequencyChange></FrequencyChanges></Clock>\n"	Arrow Flanker 2014-12065-1	60.019	1.0.0.86	1	-1512137665	Professional	2.0.10.353	2.0.10.353	03-04-2015	3/4/2015 8:21:48 PM	15:21:48	2.0.10.248	3	1	1	1	NA	NA	NA	NA	NA	NA	NA	NA	NA	NA	NA	NA	NA	NA	NA	NA	NA	NA	NA	NA	NA	NA	NA	NA	BlockProc	BlockList	NA	30	{LEFTARROW}	NA	-100	1516	incongruent	NA	NA	NA	NA	NA	NA	NA	NA	NA	NA	NA	NA	NA	NA	NA	NA	NA	NA	NA	NA	NA	NA	TrialProc	TrialList	1	10	313827	17	0	17	311662	0	1	{LEFTARROW}	-999999	0	313228	0	{LEFTARROW}	589	313817	NA	NA	left	rrlrr.bmp	354	0	NA	0	0	0	0	NA	0	0	0	NA	0	0	0	0	NA	0	0	3	1	30
Arrow Flanker 2014	12065	1	"<?xml version=""1.0""?>\n<Clock xmlns:dt=""urn:schemas-microsoft-com:datatypes""><Description dt:dt=""string"">E-Prime Primary Realtime Clock</Description><StartTime><Timestamp dt:dt=""int"">0</Timestamp><DateUtc dt:dt=""string"">2015-03-04T20:21:48Z</DateUtc></StartTime><FrequencyChanges><FrequencyChange><Frequency dt:dt=""r8"">2825703</Frequency><Timestamp dt:dt=""r8"">123041372289</Timestamp><Current dt:dt=""r8"">0</Current><DateUtc dt:dt=""string"">2015-03-04T20:21:48Z</DateUtc></FrequencyChange></FrequencyChanges></Clock>\n"	Arrow Flanker 2014-12065-1	60.019	1.0.0.86	1	-1512137665	Professional	2.0.10.353	2.0.10.353	03-04-2015	3/4/2015 8:21:48 PM	15:21:48	2.0.10.248	3	1	1	1	NA	NA	NA	NA	NA	NA	NA	NA	NA	NA	NA	NA	NA	NA	NA	NA	NA	NA	NA	NA	NA	NA	NA	NA	BlockProc	BlockList	NA	31	{RIGHTARROW}	NA	-100	1906	congruent	NA	NA	NA	NA	NA	NA	NA	NA	NA	NA	NA	NA	NA	NA	NA	NA	NA	NA	NA	NA	NA	NA	TrialProc	TrialList	0	11	316660	17	0	17	314361	0	1	{RIGHTARROW}	-999999	16	316210	0	{RIGHTARROW}	439	316649	NA	NA	right	rrrrr.bmp	354	0	NA	0	0	0	0	NA	0	0	0	NA	0	0	0	0	NA	0	0	2	1	31
Arrow Flanker 2014	12065	1	"<?xml version=""1.0""?>\n<Clock xmlns:dt=""urn:schemas-microsoft-com:datatypes""><Description dt:dt=""string"">E-Prime Primary Realtime Clock</Description><StartTime><Timestamp dt:dt=""int"">0</Timestamp><DateUtc dt:dt=""string"">2015-03-04T20:21:48Z</DateUtc></StartTime><FrequencyChanges><FrequencyChange><Frequency dt:dt=""r8"">2825703</Frequency><Timestamp dt:dt=""r8"">123041372289</Timestamp><Current dt:dt=""r8"">0</Current><DateUtc dt:dt=""string"">2015-03-04T20:21:48Z</DateUtc></FrequencyChange></FrequencyChanges></Clock>\n"	Arrow Flanker 2014-12065-1	60.019	1.0.0.86	1	-1512137665	Professional	2.0.10.353	2.0.10.353	03-04-2015	3/4/2015 8:21:48 PM	15:21:48	2.0.10.248	3	1	1	1	NA	NA	NA	NA	NA	NA	NA	NA	NA	NA	NA	NA	NA	NA	NA	NA	NA	NA	NA	NA	NA	NA	NA	NA	BlockProc	BlockList	NA	32	{LEFTARROW}	NA	-100	1087	neutral	NA	NA	NA	NA	NA	NA	NA	NA	NA	NA	NA	NA	NA	NA	NA	NA	NA	NA	NA	NA	NA	NA	TrialProc	TrialList	1	8	319009	17	0	16	317193	0	1	{LEFTARROW}	-999999	16	318476	0	{LEFTARROW}	525	319001	NA	NA	left	ooloo.bmp	354	0	NA	0	0	0	0	NA	0	0	0	NA	0	0	0	0	NA	0	0	5	1	32
Arrow Flanker 2014	12065	1	"<?xml version=""1.0""?>\n<Clock xmlns:dt=""urn:schemas-microsoft-com:datatypes""><Description dt:dt=""string"">E-Prime Primary Realtime Clock</Description><StartTime><Timestamp dt:dt=""int"">0</Timestamp><DateUtc dt:dt=""string"">2015-03-04T20:21:48Z</DateUtc></StartTime><FrequencyChanges><FrequencyChange><Frequency dt:dt=""r8"">2825703</Frequency><Timestamp dt:dt=""r8"">123041372289</Timestamp><Current dt:dt=""r8"">0</Current><DateUtc dt:dt=""string"">2015-03-04T20:21:48Z</DateUtc></FrequencyChange></FrequencyChanges></Clock>\n"	Arrow Flanker 2014-12065-1	60.019	1.0.0.86	1	-1512137665	Professional	2.0.10.353	2.0.10.353	03-04-2015	3/4/2015 8:21:48 PM	15:21:48	2.0.10.248	3	1	1	1	NA	NA	NA	NA	NA	NA	NA	NA	NA	NA	NA	NA	NA	NA	NA	NA	NA	NA	NA	NA	NA	NA	NA	NA	BlockProc	BlockList	NA	33	{RIGHTARROW}	NA	-100	1705	neutral	NA	NA	NA	NA	NA	NA	NA	NA	NA	NA	NA	NA	NA	NA	NA	NA	NA	NA	NA	NA	NA	NA	TrialProc	TrialList	1	11	321908	17	0	16	319542	0	1	{RIGHTARROW}	-999999	0	321475	0	{RIGHTARROW}	422	321897	NA	NA	right	ooroo.bmp	354	0	NA	0	0	0	0	NA	0	0	0	NA	0	0	0	0	NA	0	0	6	1	33
Arrow Flanker 2014	12065	1	"<?xml version=""1.0""?>\n<Clock xmlns:dt=""urn:schemas-microsoft-com:datatypes""><Description dt:dt=""string"">E-Prime Primary Realtime Clock</Description><StartTime><Timestamp dt:dt=""int"">0</Timestamp><DateUtc dt:dt=""string"">2015-03-04T20:21:48Z</DateUtc></StartTime><FrequencyChanges><FrequencyChange><Frequency dt:dt=""r8"">2825703</Frequency><Timestamp dt:dt=""r8"">123041372289</Timestamp><Current dt:dt=""r8"">0</Current><DateUtc dt:dt=""string"">2015-03-04T20:21:48Z</DateUtc></FrequencyChange></FrequencyChanges></Clock>\n"	Arrow Flanker 2014-12065-1	60.019	1.0.0.86	1	-1512137665	Professional	2.0.10.353	2.0.10.353	03-04-2015	3/4/2015 8:21:48 PM	15:21:48	2.0.10.248	3	1	1	1	NA	NA	NA	NA	NA	NA	NA	NA	NA	NA	NA	NA	NA	NA	NA	NA	NA	NA	NA	NA	NA	NA	NA	NA	BlockProc	BlockList	NA	34	{RIGHTARROW}	NA	-100	1759	incongruent	NA	NA	NA	NA	NA	NA	NA	NA	NA	NA	NA	NA	NA	NA	NA	NA	NA	NA	NA	NA	NA	NA	TrialProc	TrialList	1	3	324124	17	0	16	322441	0	1	{RIGHTARROW}	-999999	0	323608	0	{RIGHTARROW}	513	324121	NA	NA	right	llrll.bmp	354	0	NA	0	0	0	0	NA	0	0	0	NA	0	0	0	0	NA	0	0	4	1	34
Arrow Flanker 2014	12065	1	"<?xml version=""1.0""?>\n<Clock xmlns:dt=""urn:schemas-microsoft-com:datatypes""><Description dt:dt=""string"">E-Prime Primary Realtime Clock</Description><StartTime><Timestamp dt:dt=""int"">0</Timestamp><DateUtc dt:dt=""string"">2015-03-04T20:21:48Z</DateUtc></StartTime><FrequencyChanges><FrequencyChange><Frequency dt:dt=""r8"">2825703</Frequency><Timestamp dt:dt=""r8"">123041372289</Timestamp><Current dt:dt=""r8"">0</Current><DateUtc dt:dt=""string"">2015-03-04T20:21:48Z</DateUtc></FrequencyChange></FrequencyChanges></Clock>\n"	Arrow Flanker 2014-12065-1	60.019	1.0.0.86	1	-1512137665	Professional	2.0.10.353	2.0.10.353	03-04-2015	3/4/2015 8:21:48 PM	15:21:48	2.0.10.248	3	1	1	1	NA	NA	NA	NA	NA	NA	NA	NA	NA	NA	NA	NA	NA	NA	NA	NA	NA	NA	NA	NA	NA	NA	NA	NA	BlockProc	BlockList	NA	35	{LEFTARROW}	NA	-100	1735	incongruent	NA	NA	NA	NA	NA	NA	NA	NA	NA	NA	NA	NA	NA	NA	NA	NA	NA	NA	NA	NA	NA	NA	TrialProc	TrialList	1	6	326390	17	0	16	324657	0	1	{LEFTARROW}	-999999	0	325907	0	{LEFTARROW}	477	326384	NA	NA	left	rrlrr.bmp	354	0	NA	0	0	0	0	NA	0	0	0	NA	0	0	0	0	NA	0	0	3	1	35
Arrow Flanker 2014	12065	1	"<?xml version=""1.0""?>\n<Clock xmlns:dt=""urn:schemas-microsoft-com:datatypes""><Description dt:dt=""string"">E-Prime Primary Realtime Clock</Description><StartTime><Timestamp dt:dt=""int"">0</Timestamp><DateUtc dt:dt=""string"">2015-03-04T20:21:48Z</DateUtc></StartTime><FrequencyChanges><FrequencyChange><Frequency dt:dt=""r8"">2825703</Frequency><Timestamp dt:dt=""r8"">123041372289</Timestamp><Current dt:dt=""r8"">0</Current><DateUtc dt:dt=""string"">2015-03-04T20:21:48Z</DateUtc></FrequencyChange></FrequencyChanges></Clock>\n"	Arrow Flanker 2014-12065-1	60.019	1.0.0.86	1	-1512137665	Professional	2.0.10.353	2.0.10.353	03-04-2015	3/4/2015 8:21:48 PM	15:21:48	2.0.10.248	3	1	1	1	NA	NA	NA	NA	NA	NA	NA	NA	NA	NA	NA	NA	NA	NA	NA	NA	NA	NA	NA	NA	NA	NA	NA	NA	BlockProc	BlockList	NA	36	{RIGHTARROW}	NA	-100	2159	congruent	NA	NA	NA	NA	NA	NA	NA	NA	NA	NA	NA	NA	NA	NA	NA	NA	NA	NA	NA	NA	NA	NA	TrialProc	TrialList	1	9	328889	17	0	16	326923	0	1	{RIGHTARROW}	-999999	0	328523	0	{RIGHTARROW}	357	328880	NA	NA	right	rrrrr.bmp	354	0	NA	0	0	0	0	NA	0	0	0	NA	0	0	0	0	NA	0	0	2	1	36
Arrow Flanker 2014	12065	1	"<?xml version=""1.0""?>\n<Clock xmlns:dt=""urn:schemas-microsoft-com:datatypes""><Description dt:dt=""string"">E-Prime Primary Realtime Clock</Description><StartTime><Timestamp dt:dt=""int"">0</Timestamp><DateUtc dt:dt=""string"">2015-03-04T20:21:48Z</DateUtc></StartTime><FrequencyChanges><FrequencyChange><Frequency dt:dt=""r8"">2825703</Frequency><Timestamp dt:dt=""r8"">123041372289</Timestamp><Current dt:dt=""r8"">0</Current><DateUtc dt:dt=""string"">2015-03-04T20:21:48Z</DateUtc></FrequencyChange></FrequencyChanges></Clock>\n"	Arrow Flanker 2014-12065-1	60.019	1.0.0.86	1	-1512137665	Professional	2.0.10.353	2.0.10.353	03-04-2015	3/4/2015 8:21:48 PM	15:21:48	2.0.10.248	3	1	1	1	NA	NA	NA	NA	NA	NA	NA	NA	NA	NA	NA	NA	NA	NA	NA	NA	NA	NA	NA	NA	NA	NA	NA	NA	BlockProc	BlockList	NA	37	{LEFTARROW}	NA	-100	1072	congruent	NA	NA	NA	NA	NA	NA	NA	NA	NA	NA	NA	NA	NA	NA	NA	NA	NA	NA	NA	NA	2	1	TrialProc	TrialList	0	14	331222	17	0	17	329423	0	1	{LEFTARROW}	-999999	0	330822	0	{LEFTARROW}	386	331208	NA	NA	left	lllll.bmp	354	0	NA	-999999	16	331755	0	1	2649	334404	0	NA	-999999	17	334421	0	1	2311	336732	1	1	37
Arrow Flanker 2014	12065	1	"<?xml version=""1.0""?>\n<Clock xmlns:dt=""urn:schemas-microsoft-com:datatypes""><Description dt:dt=""string"">E-Prime Primary Realtime Clock</Description><StartTime><Timestamp dt:dt=""int"">0</Timestamp><DateUtc dt:dt=""string"">2015-03-04T20:21:48Z</DateUtc></StartTime><FrequencyChanges><FrequencyChange><Frequency dt:dt=""r8"">2825703</Frequency><Timestamp dt:dt=""r8"">123041372289</Timestamp><Current dt:dt=""r8"">0</Current><DateUtc dt:dt=""string"">2015-03-04T20:21:48Z</DateUtc></FrequencyChange></FrequencyChanges></Clock>\n"	Arrow Flanker 2014-12065-1	60.019	1.0.0.86	1	-1512137665	Professional	2.0.10.353	2.0.10.353	03-04-2015	3/4/2015 8:21:48 PM	15:21:48	2.0.10.248	3	1	1	1	NA	NA	NA	NA	NA	NA	NA	NA	NA	NA	NA	NA	NA	NA	NA	NA	NA	NA	NA	NA	NA	NA	NA	NA	BlockProc	BlockList	NA	38	{RIGHTARROW}	NA	-100	1867	incongruent	NA	NA	NA	NA	NA	NA	NA	NA	NA	NA	NA	NA	NA	NA	NA	NA	NA	NA	NA	NA	NA	NA	TrialProc	TrialList	0	12	340819	17	0	5	338220	0	1	{RIGHTARROW}	-999999	0	340236	0	{RIGHTARROW}	571	340807	NA	NA	right	llrll.bmp	354	0	NA	0	0	0	0	NA	0	0	0	NA	0	0	0	0	NA	0	0	4	1	38
Arrow Flanker 2014	12065	1	"<?xml version=""1.0""?>\n<Clock xmlns:dt=""urn:schemas-microsoft-com:datatypes""><Description dt:dt=""string"">E-Prime Primary Realtime Clock</Description><StartTime><Timestamp dt:dt=""int"">0</Timestamp><DateUtc dt:dt=""string"">2015-03-04T20:21:48Z</DateUtc></StartTime><FrequencyChanges><FrequencyChange><Frequency dt:dt=""r8"">2825703</Frequency><Timestamp dt:dt=""r8"">123041372289</Timestamp><Current dt:dt=""r8"">0</Current><DateUtc dt:dt=""string"">2015-03-04T20:21:48Z</DateUtc></FrequencyChange></FrequencyChanges></Clock>\n"	Arrow Flanker 2014-12065-1	60.019	1.0.0.86	1	-1512137665	Professional	2.0.10.353	2.0.10.353	03-04-2015	3/4/2015 8:21:48 PM	15:21:48	2.0.10.248	3	1	1	1	NA	NA	NA	NA	NA	NA	NA	NA	NA	NA	NA	NA	NA	NA	NA	NA	NA	NA	NA	NA	NA	NA	NA	NA	BlockProc	BlockList	NA	39	{LEFTARROW}	NA	-100	2064	congruent	NA	NA	NA	NA	NA	NA	NA	NA	NA	NA	NA	NA	NA	NA	NA	NA	NA	NA	NA	NA	NA	NA	TrialProc	TrialList	0	18	343185	17	0	16	341352	0	1	{LEFTARROW}	-999999	0	342835	0	{LEFTARROW}	332	343167	NA	NA	left	lllll.bmp	354	0	NA	0	0	0	0	NA	0	0	0	NA	0	0	0	0	NA	0	0	1	1	39
Arrow Flanker 2014	12065	1	"<?xml version=""1.0""?>\n<Clock xmlns:dt=""urn:schemas-microsoft-com:datatypes""><Description dt:dt=""string"">E-Prime Primary Realtime Clock</Description><StartTime><Timestamp dt:dt=""int"">0</Timestamp><DateUtc dt:dt=""string"">2015-03-04T20:21:48Z</DateUtc></StartTime><FrequencyChanges><FrequencyChange><Frequency dt:dt=""r8"">2825703</Frequency><Timestamp dt:dt=""r8"">123041372289</Timestamp><Current dt:dt=""r8"">0</Current><DateUtc dt:dt=""string"">2015-03-04T20:21:48Z</DateUtc></FrequencyChange></FrequencyChanges></Clock>\n"	Arrow Flanker 2014-12065-1	60.019	1.0.0.86	1	-1512137665	Professional	2.0.10.353	2.0.10.353	03-04-2015	3/4/2015 8:21:48 PM	15:21:48	2.0.10.248	3	1	1	1	NA	NA	NA	NA	NA	NA	NA	NA	NA	NA	NA	NA	NA	NA	NA	NA	NA	NA	NA	NA	NA	NA	NA	NA	BlockProc	BlockList	NA	40	{RIGHTARROW}	NA	-100	2388	neutral	NA	NA	NA	NA	NA	NA	NA	NA	NA	NA	NA	NA	NA	NA	NA	NA	NA	NA	NA	NA	NA	NA	TrialProc	TrialList	0	10	346001	16	0	16	343718	0	1	{RIGHTARROW}	-999999	0	345684	0	{RIGHTARROW}	307	345991	NA	NA	right	ooroo.bmp	354	0	NA	0	0	0	0	NA	0	0	0	NA	0	0	0	0	NA	0	0	6	1	40
Arrow Flanker 2014	12065	1	"<?xml version=""1.0""?>\n<Clock xmlns:dt=""urn:schemas-microsoft-com:datatypes""><Description dt:dt=""string"">E-Prime Primary Realtime Clock</Description><StartTime><Timestamp dt:dt=""int"">0</Timestamp><DateUtc dt:dt=""string"">2015-03-04T20:21:48Z</DateUtc></StartTime><FrequencyChanges><FrequencyChange><Frequency dt:dt=""r8"">2825703</Frequency><Timestamp dt:dt=""r8"">123041372289</Timestamp><Current dt:dt=""r8"">0</Current><DateUtc dt:dt=""string"">2015-03-04T20:21:48Z</DateUtc></FrequencyChange></FrequencyChanges></Clock>\n"	Arrow Flanker 2014-12065-1	60.019	1.0.0.86	1	-1512137665	Professional	2.0.10.353	2.0.10.353	03-04-2015	3/4/2015 8:21:48 PM	15:21:48	2.0.10.248	3	1	1	1	NA	NA	NA	NA	NA	NA	NA	NA	NA	NA	NA	NA	NA	NA	NA	NA	NA	NA	NA	NA	NA	NA	NA	NA	BlockProc	BlockList	NA	41	{LEFTARROW}	NA	-100	2210	incongruent	NA	NA	NA	NA	NA	NA	NA	NA	NA	NA	NA	NA	NA	NA	NA	NA	NA	NA	NA	NA	NA	NA	TrialProc	TrialList	0	15	348950	17	0	17	346534	0	1	{LEFTARROW}	-999999	0	348467	0	{LEFTARROW}	468	348935	NA	NA	left	rrlrr.bmp	354	0	NA	0	0	0	0	NA	0	0	0	NA	0	0	0	0	NA	0	0	3	1	41
Arrow Flanker 2014	12065	1	"<?xml version=""1.0""?>\n<Clock xmlns:dt=""urn:schemas-microsoft-com:datatypes""><Description dt:dt=""string"">E-Prime Primary Realtime Clock</Description><StartTime><Timestamp dt:dt=""int"">0</Timestamp><DateUtc dt:dt=""string"">2015-03-04T20:21:48Z</DateUtc></StartTime><FrequencyChanges><FrequencyChange><Frequency dt:dt=""r8"">2825703</Frequency><Timestamp dt:dt=""r8"">123041372289</Timestamp><Current dt:dt=""r8"">0</Current><DateUtc dt:dt=""string"">2015-03-04T20:21:48Z</DateUtc></FrequencyChange></FrequencyChanges></Clock>\n"	Arrow Flanker 2014-12065-1	60.019	1.0.0.86	1	-1512137665	Professional	2.0.10.353	2.0.10.353	03-04-2015	3/4/2015 8:21:48 PM	15:21:48	2.0.10.248	3	1	1	1	NA	NA	NA	NA	NA	NA	NA	NA	NA	NA	NA	NA	NA	NA	NA	NA	NA	NA	NA	NA	NA	NA	NA	NA	BlockProc	BlockList	NA	42	{RIGHTARROW}	NA	-100	812	congruent	NA	NA	NA	NA	NA	NA	NA	NA	NA	NA	NA	NA	NA	NA	NA	NA	NA	NA	NA	NA	NA	NA	TrialProc	TrialList	0	3	350866	17	0	16	349483	0	1	{RIGHTARROW}	-999999	0	350533	0	{RIGHTARROW}	330	350863	NA	NA	right	rrrrr.bmp	354	0	NA	0	0	0	0	NA	0	0	0	NA	0	0	0	0	NA	0	0	2	1	42
Arrow Flanker 2014	12065	1	"<?xml version=""1.0""?>\n<Clock xmlns:dt=""urn:schemas-microsoft-com:datatypes""><Description dt:dt=""string"">E-Prime Primary Realtime Clock</Description><StartTime><Timestamp dt:dt=""int"">0</Timestamp><DateUtc dt:dt=""string"">2015-03-04T20:21:48Z</DateUtc></StartTime><FrequencyChanges><FrequencyChange><Frequency dt:dt=""r8"">2825703</Frequency><Timestamp dt:dt=""r8"">123041372289</Timestamp><Current dt:dt=""r8"">0</Current><DateUtc dt:dt=""string"">2015-03-04T20:21:48Z</DateUtc></FrequencyChange></FrequencyChanges></Clock>\n"	Arrow Flanker 2014-12065-1	60.019	1.0.0.86	1	-1512137665	Professional	2.0.10.353	2.0.10.353	03-04-2015	3/4/2015 8:21:48 PM	15:21:48	2.0.10.248	3	1	1	1	NA	NA	NA	NA	NA	NA	NA	NA	NA	NA	NA	NA	NA	NA	NA	NA	NA	NA	NA	NA	NA	NA	NA	NA	BlockProc	BlockList	NA	43	{RIGHTARROW}	NA	-100	2433	incongruent	NA	NA	NA	NA	NA	NA	NA	NA	NA	NA	NA	NA	NA	NA	NA	NA	NA	NA	NA	NA	NA	NA	TrialProc	TrialList	0	3	353465	17	0	16	351399	0	0	{RIGHTARROW}	-999999	0	353149	0	{LEFTARROW}	313	353462	NA	NA	right	llrll.bmp	354	0	NA	0	0	0	0	NA	0	0	0	NA	0	0	0	0	NA	0	0	4	1	43
Arrow Flanker 2014	12065	1	"<?xml version=""1.0""?>\n<Clock xmlns:dt=""urn:schemas-microsoft-com:datatypes""><Description dt:dt=""string"">E-Prime Primary Realtime Clock</Description><StartTime><Timestamp dt:dt=""int"">0</Timestamp><DateUtc dt:dt=""string"">2015-03-04T20:21:48Z</DateUtc></StartTime><FrequencyChanges><FrequencyChange><Frequency dt:dt=""r8"">2825703</Frequency><Timestamp dt:dt=""r8"">123041372289</Timestamp><Current dt:dt=""r8"">0</Current><DateUtc dt:dt=""string"">2015-03-04T20:21:48Z</DateUtc></FrequencyChange></FrequencyChanges></Clock>\n"	Arrow Flanker 2014-12065-1	60.019	1.0.0.86	1	-1512137665	Professional	2.0.10.353	2.0.10.353	03-04-2015	3/4/2015 8:21:48 PM	15:21:48	2.0.10.248	3	1	1	1	NA	NA	NA	NA	NA	NA	NA	NA	NA	NA	NA	NA	NA	NA	NA	NA	NA	NA	NA	NA	NA	NA	NA	NA	BlockProc	BlockList	NA	44	{RIGHTARROW}	NA	-100	1805	neutral	NA	NA	NA	NA	NA	NA	NA	NA	NA	NA	NA	NA	NA	NA	NA	NA	NA	NA	NA	NA	NA	NA	TrialProc	TrialList	1	14	355964	17	0	16	353998	1033	1	{RIGHTARROW}	-999999	0	355531	0	{RIGHTARROW}	419	355950	NA	NA	right	ooroo.bmp	354	0	NA	0	0	0	0	NA	0	0	0	NA	0	0	0	0	NA	0	0	6	1	44
Arrow Flanker 2014	12065	1	"<?xml version=""1.0""?>\n<Clock xmlns:dt=""urn:schemas-microsoft-com:datatypes""><Description dt:dt=""string"">E-Prime Primary Realtime Clock</Description><StartTime><Timestamp dt:dt=""int"">0</Timestamp><DateUtc dt:dt=""string"">2015-03-04T20:21:48Z</DateUtc></StartTime><FrequencyChanges><FrequencyChange><Frequency dt:dt=""r8"">2825703</Frequency><Timestamp dt:dt=""r8"">123041372289</Timestamp><Current dt:dt=""r8"">0</Current><DateUtc dt:dt=""string"">2015-03-04T20:21:48Z</DateUtc></FrequencyChange></FrequencyChanges></Clock>\n"	Arrow Flanker 2014-12065-1	60.019	1.0.0.86	1	-1512137665	Professional	2.0.10.353	2.0.10.353	03-04-2015	3/4/2015 8:21:48 PM	15:21:48	2.0.10.248	3	1	1	1	NA	NA	NA	NA	NA	NA	NA	NA	NA	NA	NA	NA	NA	NA	NA	NA	NA	NA	NA	NA	NA	NA	NA	NA	BlockProc	BlockList	NA	45	{LEFTARROW}	NA	-100	2003	neutral	NA	NA	NA	NA	NA	NA	NA	NA	NA	NA	NA	NA	NA	NA	NA	NA	NA	NA	NA	NA	NA	NA	TrialProc	TrialList	0	13	358747	16	0	16	356497	0	1	{LEFTARROW}	-999999	0	358280	0	{LEFTARROW}	454	358734	NA	NA	left	ooloo.bmp	354	0	NA	0	0	0	0	NA	0	0	0	NA	0	0	0	0	NA	0	0	5	1	45
Arrow Flanker 2014	12065	1	"<?xml version=""1.0""?>\n<Clock xmlns:dt=""urn:schemas-microsoft-com:datatypes""><Description dt:dt=""string"">E-Prime Primary Realtime Clock</Description><StartTime><Timestamp dt:dt=""int"">0</Timestamp><DateUtc dt:dt=""string"">2015-03-04T20:21:48Z</DateUtc></StartTime><FrequencyChanges><FrequencyChange><Frequency dt:dt=""r8"">2825703</Frequency><Timestamp dt:dt=""r8"">123041372289</Timestamp><Current dt:dt=""r8"">0</Current><DateUtc dt:dt=""string"">2015-03-04T20:21:48Z</DateUtc></FrequencyChange></FrequencyChanges></Clock>\n"	Arrow Flanker 2014-12065-1	60.019	1.0.0.86	1	-1512137665	Professional	2.0.10.353	2.0.10.353	03-04-2015	3/4/2015 8:21:48 PM	15:21:48	2.0.10.248	3	1	1	1	NA	NA	NA	NA	NA	NA	NA	NA	NA	NA	NA	NA	NA	NA	NA	NA	NA	NA	NA	NA	NA	NA	NA	NA	BlockProc	BlockList	NA	46	{RIGHTARROW}	NA	-100	1672	incongruent	NA	NA	NA	NA	NA	NA	NA	NA	NA	NA	NA	NA	NA	NA	NA	NA	NA	NA	NA	NA	NA	NA	TrialProc	TrialList	1	9	360879	17	0	17	359280	0	1	{RIGHTARROW}	-999999	0	360363	0	{RIGHTARROW}	507	360870	NA	NA	right	llrll.bmp	354	0	NA	0	0	0	0	NA	0	0	0	NA	0	0	0	0	NA	0	0	4	1	46
Arrow Flanker 2014	12065	1	"<?xml version=""1.0""?>\n<Clock xmlns:dt=""urn:schemas-microsoft-com:datatypes""><Description dt:dt=""string"">E-Prime Primary Realtime Clock</Description><StartTime><Timestamp dt:dt=""int"">0</Timestamp><DateUtc dt:dt=""string"">2015-03-04T20:21:48Z</DateUtc></StartTime><FrequencyChanges><FrequencyChange><Frequency dt:dt=""r8"">2825703</Frequency><Timestamp dt:dt=""r8"">123041372289</Timestamp><Current dt:dt=""r8"">0</Current><DateUtc dt:dt=""string"">2015-03-04T20:21:48Z</DateUtc></FrequencyChange></FrequencyChanges></Clock>\n"	Arrow Flanker 2014-12065-1	60.019	1.0.0.86	1	-1512137665	Professional	2.0.10.353	2.0.10.353	03-04-2015	3/4/2015 8:21:48 PM	15:21:48	2.0.10.248	3	1	1	1	NA	NA	NA	NA	NA	NA	NA	NA	NA	NA	NA	NA	NA	NA	NA	NA	NA	NA	NA	NA	NA	NA	NA	NA	BlockProc	BlockList	NA	47	{LEFTARROW}	NA	-100	773	congruent	NA	NA	NA	NA	NA	NA	NA	NA	NA	NA	NA	NA	NA	NA	NA	NA	NA	NA	NA	NA	NA	NA	TrialProc	TrialList	1	11	362945	17	0	17	361413	0	1	{LEFTARROW}	-999999	0	362562	0	{LEFTARROW}	372	362934	NA	NA	left	lllll.bmp	354	0	NA	0	0	0	0	NA	0	0	0	NA	0	0	0	0	NA	0	0	1	1	47
Arrow Flanker 2014	12065	1	"<?xml version=""1.0""?>\n<Clock xmlns:dt=""urn:schemas-microsoft-com:datatypes""><Description dt:dt=""string"">E-Prime Primary Realtime Clock</Description><StartTime><Timestamp dt:dt=""int"">0</Timestamp><DateUtc dt:dt=""string"">2015-03-04T20:21:48Z</DateUtc></StartTime><FrequencyChanges><FrequencyChange><Frequency dt:dt=""r8"">2825703</Frequency><Timestamp dt:dt=""r8"">123041372289</Timestamp><Current dt:dt=""r8"">0</Current><DateUtc dt:dt=""string"">2015-03-04T20:21:48Z</DateUtc></FrequencyChange></FrequencyChanges></Clock>\n"	Arrow Flanker 2014-12065-1	60.019	1.0.0.86	1	-1512137665	Professional	2.0.10.353	2.0.10.353	03-04-2015	3/4/2015 8:21:48 PM	15:21:48	2.0.10.248	3	1	1	1	NA	NA	NA	NA	NA	NA	NA	NA	NA	NA	NA	NA	NA	NA	NA	NA	NA	NA	NA	NA	NA	NA	NA	NA	BlockProc	BlockList	NA	48	{LEFTARROW}	NA	-100	2411	congruent	NA	NA	NA	NA	NA	NA	NA	NA	NA	NA	NA	NA	NA	NA	NA	NA	NA	NA	NA	NA	NA	NA	TrialProc	TrialList	1	14	365811	17	0	17	363479	0	1	{LEFTARROW}	-999999	0	365295	0	{LEFTARROW}	502	365797	NA	NA	left	lllll.bmp	354	0	NA	0	0	0	0	NA	0	0	0	NA	0	0	0	0	NA	0	0	1	1	48
Arrow Flanker 2014	12065	1	"<?xml version=""1.0""?>\n<Clock xmlns:dt=""urn:schemas-microsoft-com:datatypes""><Description dt:dt=""string"">E-Prime Primary Realtime Clock</Description><StartTime><Timestamp dt:dt=""int"">0</Timestamp><DateUtc dt:dt=""string"">2015-03-04T20:21:48Z</DateUtc></StartTime><FrequencyChanges><FrequencyChange><Frequency dt:dt=""r8"">2825703</Frequency><Timestamp dt:dt=""r8"">123041372289</Timestamp><Current dt:dt=""r8"">0</Current><DateUtc dt:dt=""string"">2015-03-04T20:21:48Z</DateUtc></FrequencyChange></FrequencyChanges></Clock>\n"	Arrow Flanker 2014-12065-1	60.019	1.0.0.86	1	-1512137665	Professional	2.0.10.353	2.0.10.353	03-04-2015	3/4/2015 8:21:48 PM	15:21:48	2.0.10.248	3	1	1	1	NA	NA	NA	NA	NA	NA	NA	NA	NA	NA	NA	NA	NA	NA	NA	NA	NA	NA	NA	NA	NA	NA	NA	NA	BlockProc	BlockList	NA	49	{RIGHTARROW}	NA	-100	668	neutral	NA	NA	NA	NA	NA	NA	NA	NA	NA	NA	NA	NA	NA	NA	NA	NA	NA	NA	NA	NA	NA	NA	TrialProc	TrialList	0	8	367861	16	0	16	366344	0	1	{RIGHTARROW}	-999999	0	367494	0	{RIGHTARROW}	359	367853	NA	NA	right	ooroo.bmp	354	0	NA	0	0	0	0	NA	0	0	0	NA	0	0	0	0	NA	0	0	6	1	49
Arrow Flanker 2014	12065	1	"<?xml version=""1.0""?>\n<Clock xmlns:dt=""urn:schemas-microsoft-com:datatypes""><Description dt:dt=""string"">E-Prime Primary Realtime Clock</Description><StartTime><Timestamp dt:dt=""int"">0</Timestamp><DateUtc dt:dt=""string"">2015-03-04T20:21:48Z</DateUtc></StartTime><FrequencyChanges><FrequencyChange><Frequency dt:dt=""r8"">2825703</Frequency><Timestamp dt:dt=""r8"">123041372289</Timestamp><Current dt:dt=""r8"">0</Current><DateUtc dt:dt=""string"">2015-03-04T20:21:48Z</DateUtc></FrequencyChange></FrequencyChanges></Clock>\n"	Arrow Flanker 2014-12065-1	60.019	1.0.0.86	1	-1512137665	Professional	2.0.10.353	2.0.10.353	03-04-2015	3/4/2015 8:21:48 PM	15:21:48	2.0.10.248	3	1	1	1	NA	NA	NA	NA	NA	NA	NA	NA	NA	NA	NA	NA	NA	NA	NA	NA	NA	NA	NA	NA	NA	NA	NA	NA	BlockProc	BlockList	NA	50	{RIGHTARROW}	NA	-100	1104	incongruent	NA	NA	NA	NA	NA	NA	NA	NA	NA	NA	NA	NA	NA	NA	NA	NA	NA	NA	NA	NA	NA	NA	TrialProc	TrialList	0	11	369960	17	0	17	368394	0	1	{RIGHTARROW}	-999999	0	369460	0	{RIGHTARROW}	489	369949	NA	NA	right	llrll.bmp	354	0	NA	0	0	0	0	NA	0	0	0	NA	0	0	0	0	NA	0	0	4	1	50
Arrow Flanker 2014	12065	1	"<?xml version=""1.0""?>\n<Clock xmlns:dt=""urn:schemas-microsoft-com:datatypes""><Description dt:dt=""string"">E-Prime Primary Realtime Clock</Description><StartTime><Timestamp dt:dt=""int"">0</Timestamp><DateUtc dt:dt=""string"">2015-03-04T20:21:48Z</DateUtc></StartTime><FrequencyChanges><FrequencyChange><Frequency dt:dt=""r8"">2825703</Frequency><Timestamp dt:dt=""r8"">123041372289</Timestamp><Current dt:dt=""r8"">0</Current><DateUtc dt:dt=""string"">2015-03-04T20:21:48Z</DateUtc></FrequencyChange></FrequencyChanges></Clock>\n"	Arrow Flanker 2014-12065-1	60.019	1.0.0.86	1	-1512137665	Professional	2.0.10.353	2.0.10.353	03-04-2015	3/4/2015 8:21:48 PM	15:21:48	2.0.10.248	3	1	1	1	NA	NA	NA	NA	NA	NA	NA	NA	NA	NA	NA	NA	NA	NA	NA	NA	NA	NA	NA	NA	NA	NA	NA	NA	BlockProc	BlockList	NA	51	{LEFTARROW}	NA	-100	1530	incongruent	NA	NA	NA	NA	NA	NA	NA	NA	NA	NA	NA	NA	NA	NA	NA	NA	NA	NA	NA	NA	NA	NA	TrialProc	TrialList	1	16	372109	17	0	16	370493	0	1	{LEFTARROW}	-999999	16	371626	0	{LEFTARROW}	467	372093	NA	NA	left	rrlrr.bmp	354	0	NA	0	0	0	0	NA	0	0	0	NA	0	0	0	0	NA	0	0	3	1	51
Arrow Flanker 2014	12065	1	"<?xml version=""1.0""?>\n<Clock xmlns:dt=""urn:schemas-microsoft-com:datatypes""><Description dt:dt=""string"">E-Prime Primary Realtime Clock</Description><StartTime><Timestamp dt:dt=""int"">0</Timestamp><DateUtc dt:dt=""string"">2015-03-04T20:21:48Z</DateUtc></StartTime><FrequencyChanges><FrequencyChange><Frequency dt:dt=""r8"">2825703</Frequency><Timestamp dt:dt=""r8"">123041372289</Timestamp><Current dt:dt=""r8"">0</Current><DateUtc dt:dt=""string"">2015-03-04T20:21:48Z</DateUtc></FrequencyChange></FrequencyChanges></Clock>\n"	Arrow Flanker 2014-12065-1	60.019	1.0.0.86	1	-1512137665	Professional	2.0.10.353	2.0.10.353	03-04-2015	3/4/2015 8:21:48 PM	15:21:48	2.0.10.248	3	1	1	1	NA	NA	NA	NA	NA	NA	NA	NA	NA	NA	NA	NA	NA	NA	NA	NA	NA	NA	NA	NA	NA	NA	NA	NA	BlockProc	BlockList	NA	52	{RIGHTARROW}	NA	-100	1802	congruent	NA	NA	NA	NA	NA	NA	NA	NA	NA	NA	NA	NA	NA	NA	NA	NA	NA	NA	NA	NA	NA	NA	TrialProc	TrialList	0	12	374409	16	0	16	372642	0	1	{RIGHTARROW}	-999999	0	373942	0	{RIGHTARROW}	455	374397	NA	NA	right	rrrrr.bmp	354	0	NA	0	0	0	0	NA	0	0	0	NA	0	0	0	0	NA	0	0	2	1	52
Arrow Flanker 2014	12065	1	"<?xml version=""1.0""?>\n<Clock xmlns:dt=""urn:schemas-microsoft-com:datatypes""><Description dt:dt=""string"">E-Prime Primary Realtime Clock</Description><StartTime><Timestamp dt:dt=""int"">0</Timestamp><DateUtc dt:dt=""string"">2015-03-04T20:21:48Z</DateUtc></StartTime><FrequencyChanges><FrequencyChange><Frequency dt:dt=""r8"">2825703</Frequency><Timestamp dt:dt=""r8"">123041372289</Timestamp><Current dt:dt=""r8"">0</Current><DateUtc dt:dt=""string"">2015-03-04T20:21:48Z</DateUtc></FrequencyChange></FrequencyChanges></Clock>\n"	Arrow Flanker 2014-12065-1	60.019	1.0.0.86	1	-1512137665	Professional	2.0.10.353	2.0.10.353	03-04-2015	3/4/2015 8:21:48 PM	15:21:48	2.0.10.248	3	1	1	1	NA	NA	NA	NA	NA	NA	NA	NA	NA	NA	NA	NA	NA	NA	NA	NA	NA	NA	NA	NA	NA	NA	NA	NA	BlockProc	BlockList	NA	53	{LEFTARROW}	NA	-100	1121	neutral	NA	NA	NA	NA	NA	NA	NA	NA	NA	NA	NA	NA	NA	NA	NA	NA	NA	NA	NA	NA	NA	NA	TrialProc	TrialList	1	14	376491	17	0	17	374942	0	1	{LEFTARROW}	-999999	0	376075	0	{LEFTARROW}	402	376477	NA	NA	left	ooloo.bmp	354	0	NA	0	0	0	0	NA	0	0	0	NA	0	0	0	0	NA	0	0	5	1	53
Arrow Flanker 2014	12065	1	"<?xml version=""1.0""?>\n<Clock xmlns:dt=""urn:schemas-microsoft-com:datatypes""><Description dt:dt=""string"">E-Prime Primary Realtime Clock</Description><StartTime><Timestamp dt:dt=""int"">0</Timestamp><DateUtc dt:dt=""string"">2015-03-04T20:21:48Z</DateUtc></StartTime><FrequencyChanges><FrequencyChange><Frequency dt:dt=""r8"">2825703</Frequency><Timestamp dt:dt=""r8"">123041372289</Timestamp><Current dt:dt=""r8"">0</Current><DateUtc dt:dt=""string"">2015-03-04T20:21:48Z</DateUtc></FrequencyChange></FrequencyChanges></Clock>\n"	Arrow Flanker 2014-12065-1	60.019	1.0.0.86	1	-1512137665	Professional	2.0.10.353	2.0.10.353	03-04-2015	3/4/2015 8:21:48 PM	15:21:48	2.0.10.248	3	1	1	1	NA	NA	NA	NA	NA	NA	NA	NA	NA	NA	NA	NA	NA	NA	NA	NA	NA	NA	NA	NA	NA	NA	NA	NA	BlockProc	BlockList	NA	54	{LEFTARROW}	NA	-100	2184	congruent	NA	NA	NA	NA	NA	NA	NA	NA	NA	NA	NA	NA	NA	NA	NA	NA	NA	NA	NA	NA	2	1	TrialProc	TrialList	1	6	379090	17	0	16	377024	0	1	{LEFTARROW}	-999999	0	378591	0	{LEFTARROW}	493	379084	NA	NA	left	lllll.bmp	354	0	NA	-999999	17	379624	0	1	1824	381448	0	NA	-999999	8	381456	0	1	848	382304	1	1	54
Arrow Flanker 2014	12065	1	"<?xml version=""1.0""?>\n<Clock xmlns:dt=""urn:schemas-microsoft-com:datatypes""><Description dt:dt=""string"">E-Prime Primary Realtime Clock</Description><StartTime><Timestamp dt:dt=""int"">0</Timestamp><DateUtc dt:dt=""string"">2015-03-04T20:21:48Z</DateUtc></StartTime><FrequencyChanges><FrequencyChange><Frequency dt:dt=""r8"">2825703</Frequency><Timestamp dt:dt=""r8"">123041372289</Timestamp><Current dt:dt=""r8"">0</Current><DateUtc dt:dt=""string"">2015-03-04T20:21:48Z</DateUtc></FrequencyChange></FrequencyChanges></Clock>\n"	Arrow Flanker 2014-12065-1	60.019	1.0.0.86	1	-1512137665	Professional	2.0.10.353	2.0.10.353	03-04-2015	3/4/2015 8:21:48 PM	15:21:48	2.0.10.248	3	1	1	1	NA	NA	NA	NA	NA	NA	NA	NA	NA	NA	NA	NA	NA	NA	NA	NA	NA	NA	NA	NA	NA	NA	NA	NA	BlockProc	BlockList	NA	55	{RIGHTARROW}	NA	-100	1846	neutral	NA	NA	NA	NA	NA	NA	NA	NA	NA	NA	NA	NA	NA	NA	NA	NA	NA	NA	NA	NA	NA	NA	TrialProc	TrialList	0	16	386172	16	0	13	383689	0	1	{RIGHTARROW}	-999999	16	385555	0	{RIGHTARROW}	601	386156	NA	NA	right	ooroo.bmp	354	0	NA	0	0	0	0	NA	0	0	0	NA	0	0	0	0	NA	0	0	6	1	55
Arrow Flanker 2014	12065	1	"<?xml version=""1.0""?>\n<Clock xmlns:dt=""urn:schemas-microsoft-com:datatypes""><Description dt:dt=""string"">E-Prime Primary Realtime Clock</Description><StartTime><Timestamp dt:dt=""int"">0</Timestamp><DateUtc dt:dt=""string"">2015-03-04T20:21:48Z</DateUtc></StartTime><FrequencyChanges><FrequencyChange><Frequency dt:dt=""r8"">2825703</Frequency><Timestamp dt:dt=""r8"">123041372289</Timestamp><Current dt:dt=""r8"">0</Current><DateUtc dt:dt=""string"">2015-03-04T20:21:48Z</DateUtc></FrequencyChange></FrequencyChanges></Clock>\n"	Arrow Flanker 2014-12065-1	60.019	1.0.0.86	1	-1512137665	Professional	2.0.10.353	2.0.10.353	03-04-2015	3/4/2015 8:21:48 PM	15:21:48	2.0.10.248	3	1	1	1	NA	NA	NA	NA	NA	NA	NA	NA	NA	NA	NA	NA	NA	NA	NA	NA	NA	NA	NA	NA	NA	NA	NA	NA	BlockProc	BlockList	NA	56	{RIGHTARROW}	NA	-100	2104	incongruent	NA	NA	NA	NA	NA	NA	NA	NA	NA	NA	NA	NA	NA	NA	NA	NA	NA	NA	NA	NA	NA	NA	TrialProc	TrialList	0	13	389321	16	0	17	386705	0	1	{RIGHTARROW}	-999999	16	388704	0	{RIGHTARROW}	604	389308	NA	NA	right	llrll.bmp	354	0	NA	0	0	0	0	NA	0	0	0	NA	0	0	0	0	NA	0	0	4	1	56
Arrow Flanker 2014	12065	1	"<?xml version=""1.0""?>\n<Clock xmlns:dt=""urn:schemas-microsoft-com:datatypes""><Description dt:dt=""string"">E-Prime Primary Realtime Clock</Description><StartTime><Timestamp dt:dt=""int"">0</Timestamp><DateUtc dt:dt=""string"">2015-03-04T20:21:48Z</DateUtc></StartTime><FrequencyChanges><FrequencyChange><Frequency dt:dt=""r8"">2825703</Frequency><Timestamp dt:dt=""r8"">123041372289</Timestamp><Current dt:dt=""r8"">0</Current><DateUtc dt:dt=""string"">2015-03-04T20:21:48Z</DateUtc></FrequencyChange></FrequencyChanges></Clock>\n"	Arrow Flanker 2014-12065-1	60.019	1.0.0.86	1	-1512137665	Professional	2.0.10.353	2.0.10.353	03-04-2015	3/4/2015 8:21:48 PM	15:21:48	2.0.10.248	3	1	1	1	NA	NA	NA	NA	NA	NA	NA	NA	NA	NA	NA	NA	NA	NA	NA	NA	NA	NA	NA	NA	NA	NA	NA	NA	BlockProc	BlockList	NA	57	{RIGHTARROW}	NA	-100	1289	incongruent	NA	NA	NA	NA	NA	NA	NA	NA	NA	NA	NA	NA	NA	NA	NA	NA	NA	NA	NA	NA	NA	NA	TrialProc	TrialList	0	18	391853	17	0	17	389854	0	1	{RIGHTARROW}	-999999	0	391370	0	{RIGHTARROW}	465	391835	NA	NA	right	llrll.bmp	354	0	NA	0	0	0	0	NA	0	0	0	NA	0	0	0	0	NA	0	0	4	1	57
Arrow Flanker 2014	12065	1	"<?xml version=""1.0""?>\n<Clock xmlns:dt=""urn:schemas-microsoft-com:datatypes""><Description dt:dt=""string"">E-Prime Primary Realtime Clock</Description><StartTime><Timestamp dt:dt=""int"">0</Timestamp><DateUtc dt:dt=""string"">2015-03-04T20:21:48Z</DateUtc></StartTime><FrequencyChanges><FrequencyChange><Frequency dt:dt=""r8"">2825703</Frequency><Timestamp dt:dt=""r8"">123041372289</Timestamp><Current dt:dt=""r8"">0</Current><DateUtc dt:dt=""string"">2015-03-04T20:21:48Z</DateUtc></FrequencyChange></FrequencyChanges></Clock>\n"	Arrow Flanker 2014-12065-1	60.019	1.0.0.86	1	-1512137665	Professional	2.0.10.353	2.0.10.353	03-04-2015	3/4/2015 8:21:48 PM	15:21:48	2.0.10.248	3	1	1	1	NA	NA	NA	NA	NA	NA	NA	NA	NA	NA	NA	NA	NA	NA	NA	NA	NA	NA	NA	NA	NA	NA	NA	NA	BlockProc	BlockList	NA	58	{RIGHTARROW}	NA	-100	1850	neutral	NA	NA	NA	NA	NA	NA	NA	NA	NA	NA	NA	NA	NA	NA	NA	NA	NA	NA	NA	NA	NA	NA	TrialProc	TrialList	1	7	394202	17	0	16	392386	0	1	{RIGHTARROW}	-999999	0	393836	0	{RIGHTARROW}	359	394195	NA	NA	right	ooroo.bmp	354	0	NA	0	0	0	0	NA	0	0	0	NA	0	0	0	0	NA	0	0	6	1	58
Arrow Flanker 2014	12065	1	"<?xml version=""1.0""?>\n<Clock xmlns:dt=""urn:schemas-microsoft-com:datatypes""><Description dt:dt=""string"">E-Prime Primary Realtime Clock</Description><StartTime><Timestamp dt:dt=""int"">0</Timestamp><DateUtc dt:dt=""string"">2015-03-04T20:21:48Z</DateUtc></StartTime><FrequencyChanges><FrequencyChange><Frequency dt:dt=""r8"">2825703</Frequency><Timestamp dt:dt=""r8"">123041372289</Timestamp><Current dt:dt=""r8"">0</Current><DateUtc dt:dt=""string"">2015-03-04T20:21:48Z</DateUtc></FrequencyChange></FrequencyChanges></Clock>\n"	Arrow Flanker 2014-12065-1	60.019	1.0.0.86	1	-1512137665	Professional	2.0.10.353	2.0.10.353	03-04-2015	3/4/2015 8:21:48 PM	15:21:48	2.0.10.248	3	1	1	1	NA	NA	NA	NA	NA	NA	NA	NA	NA	NA	NA	NA	NA	NA	NA	NA	NA	NA	NA	NA	NA	NA	NA	NA	BlockProc	BlockList	NA	59	{LEFTARROW}	NA	-100	1858	congruent	NA	NA	NA	NA	NA	NA	NA	NA	NA	NA	NA	NA	NA	NA	NA	NA	NA	NA	NA	NA	NA	NA	TrialProc	TrialList	1	13	396968	17	0	17	394736	0	1	{LEFTARROW}	-999999	0	396518	0	{LEFTARROW}	437	396955	NA	NA	left	lllll.bmp	354	0	NA	0	0	0	0	NA	0	0	0	NA	0	0	0	0	NA	0	0	1	1	59
Arrow Flanker 2014	12065	1	"<?xml version=""1.0""?>\n<Clock xmlns:dt=""urn:schemas-microsoft-com:datatypes""><Description dt:dt=""string"">E-Prime Primary Realtime Clock</Description><StartTime><Timestamp dt:dt=""int"">0</Timestamp><DateUtc dt:dt=""string"">2015-03-04T20:21:48Z</DateUtc></StartTime><FrequencyChanges><FrequencyChange><Frequency dt:dt=""r8"">2825703</Frequency><Timestamp dt:dt=""r8"">123041372289</Timestamp><Current dt:dt=""r8"">0</Current><DateUtc dt:dt=""string"">2015-03-04T20:21:48Z</DateUtc></FrequencyChange></FrequencyChanges></Clock>\n"	Arrow Flanker 2014-12065-1	60.019	1.0.0.86	1	-1512137665	Professional	2.0.10.353	2.0.10.353	03-04-2015	3/4/2015 8:21:48 PM	15:21:48	2.0.10.248	3	1	1	1	NA	NA	NA	NA	NA	NA	NA	NA	NA	NA	NA	NA	NA	NA	NA	NA	NA	NA	NA	NA	NA	NA	NA	NA	BlockProc	BlockList	NA	60	{LEFTARROW}	NA	-100	1700	congruent	NA	NA	NA	NA	NA	NA	NA	NA	NA	NA	NA	NA	NA	NA	NA	NA	NA	NA	NA	NA	NA	NA	TrialProc	TrialList	0	12	399551	16	0	16	397501	0	1	{LEFTARROW}	-999999	16	399184	0	{LEFTARROW}	355	399539	NA	NA	left	lllll.bmp	354	0	NA	0	0	0	0	NA	0	0	0	NA	0	0	0	0	NA	0	0	1	1	60
Arrow Flanker 2014	12065	1	"<?xml version=""1.0""?>\n<Clock xmlns:dt=""urn:schemas-microsoft-com:datatypes""><Description dt:dt=""string"">E-Prime Primary Realtime Clock</Description><StartTime><Timestamp dt:dt=""int"">0</Timestamp><DateUtc dt:dt=""string"">2015-03-04T20:21:48Z</DateUtc></StartTime><FrequencyChanges><FrequencyChange><Frequency dt:dt=""r8"">2825703</Frequency><Timestamp dt:dt=""r8"">123041372289</Timestamp><Current dt:dt=""r8"">0</Current><DateUtc dt:dt=""string"">2015-03-04T20:21:48Z</DateUtc></FrequencyChange></FrequencyChanges></Clock>\n"	Arrow Flanker 2014-12065-1	60.019	1.0.0.86	1	-1512137665	Professional	2.0.10.353	2.0.10.353	03-04-2015	3/4/2015 8:21:48 PM	15:21:48	2.0.10.248	3	1	1	1	NA	NA	NA	NA	NA	NA	NA	NA	NA	NA	NA	NA	NA	NA	NA	NA	NA	NA	NA	NA	NA	NA	NA	NA	BlockProc	BlockList	NA	61	{LEFTARROW}	NA	-100	941	congruent	NA	NA	NA	NA	NA	NA	NA	NA	NA	NA	NA	NA	NA	NA	NA	NA	NA	NA	NA	NA	NA	NA	TrialProc	TrialList	0	7	401650	17	0	17	400084	0	1	{LEFTARROW}	-999999	-1	401283	0	{LEFTARROW}	360	401643	NA	NA	left	lllll.bmp	354	0	NA	0	0	0	0	NA	0	0	0	NA	0	0	0	0	NA	0	0	1	1	61
Arrow Flanker 2014	12065	1	"<?xml version=""1.0""?>\n<Clock xmlns:dt=""urn:schemas-microsoft-com:datatypes""><Description dt:dt=""string"">E-Prime Primary Realtime Clock</Description><StartTime><Timestamp dt:dt=""int"">0</Timestamp><DateUtc dt:dt=""string"">2015-03-04T20:21:48Z</DateUtc></StartTime><FrequencyChanges><FrequencyChange><Frequency dt:dt=""r8"">2825703</Frequency><Timestamp dt:dt=""r8"">123041372289</Timestamp><Current dt:dt=""r8"">0</Current><DateUtc dt:dt=""string"">2015-03-04T20:21:48Z</DateUtc></FrequencyChange></FrequencyChanges></Clock>\n"	Arrow Flanker 2014-12065-1	60.019	1.0.0.86	1	-1512137665	Professional	2.0.10.353	2.0.10.353	03-04-2015	3/4/2015 8:21:48 PM	15:21:48	2.0.10.248	3	1	1	1	NA	NA	NA	NA	NA	NA	NA	NA	NA	NA	NA	NA	NA	NA	NA	NA	NA	NA	NA	NA	NA	NA	NA	NA	BlockProc	BlockList	NA	62	{RIGHTARROW}	NA	-100	1675	neutral	NA	NA	NA	NA	NA	NA	NA	NA	NA	NA	NA	NA	NA	NA	NA	NA	NA	NA	NA	NA	NA	NA	TrialProc	TrialList	0	12	404599	17	0	16	402183	0	1	{RIGHTARROW}	-999999	0	404133	0	{RIGHTARROW}	453	404586	NA	NA	right	ooroo.bmp	354	0	NA	0	0	0	0	NA	0	0	0	NA	0	0	0	0	NA	0	0	6	1	62
Arrow Flanker 2014	12065	1	"<?xml version=""1.0""?>\n<Clock xmlns:dt=""urn:schemas-microsoft-com:datatypes""><Description dt:dt=""string"">E-Prime Primary Realtime Clock</Description><StartTime><Timestamp dt:dt=""int"">0</Timestamp><DateUtc dt:dt=""string"">2015-03-04T20:21:48Z</DateUtc></StartTime><FrequencyChanges><FrequencyChange><Frequency dt:dt=""r8"">2825703</Frequency><Timestamp dt:dt=""r8"">123041372289</Timestamp><Current dt:dt=""r8"">0</Current><DateUtc dt:dt=""string"">2015-03-04T20:21:48Z</DateUtc></FrequencyChange></FrequencyChanges></Clock>\n"	Arrow Flanker 2014-12065-1	60.019	1.0.0.86	1	-1512137665	Professional	2.0.10.353	2.0.10.353	03-04-2015	3/4/2015 8:21:48 PM	15:21:48	2.0.10.248	3	1	1	1	NA	NA	NA	NA	NA	NA	NA	NA	NA	NA	NA	NA	NA	NA	NA	NA	NA	NA	NA	NA	NA	NA	NA	NA	BlockProc	BlockList	NA	63	{RIGHTARROW}	NA	-100	1594	incongruent	NA	NA	NA	NA	NA	NA	NA	NA	NA	NA	NA	NA	NA	NA	NA	NA	NA	NA	NA	NA	NA	NA	TrialProc	TrialList	0	9	407515	17	0	16	405132	0	0	{RIGHTARROW}	-999999	0	407198	0	{LEFTARROW}	308	407506	NA	NA	right	llrll.bmp	354	0	NA	0	0	0	0	NA	0	0	0	NA	0	0	0	0	NA	0	0	4	1	63
Arrow Flanker 2014	12065	1	"<?xml version=""1.0""?>\n<Clock xmlns:dt=""urn:schemas-microsoft-com:datatypes""><Description dt:dt=""string"">E-Prime Primary Realtime Clock</Description><StartTime><Timestamp dt:dt=""int"">0</Timestamp><DateUtc dt:dt=""string"">2015-03-04T20:21:48Z</DateUtc></StartTime><FrequencyChanges><FrequencyChange><Frequency dt:dt=""r8"">2825703</Frequency><Timestamp dt:dt=""r8"">123041372289</Timestamp><Current dt:dt=""r8"">0</Current><DateUtc dt:dt=""string"">2015-03-04T20:21:48Z</DateUtc></FrequencyChange></FrequencyChanges></Clock>\n"	Arrow Flanker 2014-12065-1	60.019	1.0.0.86	1	-1512137665	Professional	2.0.10.353	2.0.10.353	03-04-2015	3/4/2015 8:21:48 PM	15:21:48	2.0.10.248	3	1	1	1	NA	NA	NA	NA	NA	NA	NA	NA	NA	NA	NA	NA	NA	NA	NA	NA	NA	NA	NA	NA	NA	NA	NA	NA	BlockProc	BlockList	NA	64	{RIGHTARROW}	NA	-100	1678	incongruent	NA	NA	NA	NA	NA	NA	NA	NA	NA	NA	NA	NA	NA	NA	NA	NA	NA	NA	NA	NA	NA	NA	TrialProc	TrialList	0	8	410114	17	0	16	408048	0	1	{RIGHTARROW}	-999999	0	409648	0	{RIGHTARROW}	458	410106	NA	NA	right	llrll.bmp	354	0	NA	0	0	0	0	NA	0	0	0	NA	0	0	0	0	NA	0	0	4	1	64
Arrow Flanker 2014	12065	1	"<?xml version=""1.0""?>\n<Clock xmlns:dt=""urn:schemas-microsoft-com:datatypes""><Description dt:dt=""string"">E-Prime Primary Realtime Clock</Description><StartTime><Timestamp dt:dt=""int"">0</Timestamp><DateUtc dt:dt=""string"">2015-03-04T20:21:48Z</DateUtc></StartTime><FrequencyChanges><FrequencyChange><Frequency dt:dt=""r8"">2825703</Frequency><Timestamp dt:dt=""r8"">123041372289</Timestamp><Current dt:dt=""r8"">0</Current><DateUtc dt:dt=""string"">2015-03-04T20:21:48Z</DateUtc></FrequencyChange></FrequencyChanges></Clock>\n"	Arrow Flanker 2014-12065-1	60.019	1.0.0.86	1	-1512137665	Professional	2.0.10.353	2.0.10.353	03-04-2015	3/4/2015 8:21:48 PM	15:21:48	2.0.10.248	3	1	1	1	NA	NA	NA	NA	NA	NA	NA	NA	NA	NA	NA	NA	NA	NA	NA	NA	NA	NA	NA	NA	NA	NA	NA	NA	BlockProc	BlockList	NA	65	{RIGHTARROW}	NA	-100	643	neutral	NA	NA	NA	NA	NA	NA	NA	NA	NA	NA	NA	NA	NA	NA	NA	NA	NA	NA	NA	NA	NA	NA	TrialProc	TrialList	0	4	412030	17	0	16	410647	0	1	{RIGHTARROW}	-999999	0	411597	0	{RIGHTARROW}	429	412026	NA	NA	right	ooroo.bmp	354	0	NA	0	0	0	0	NA	0	0	0	NA	0	0	0	0	NA	0	0	6	1	65
Arrow Flanker 2014	12065	1	"<?xml version=""1.0""?>\n<Clock xmlns:dt=""urn:schemas-microsoft-com:datatypes""><Description dt:dt=""string"">E-Prime Primary Realtime Clock</Description><StartTime><Timestamp dt:dt=""int"">0</Timestamp><DateUtc dt:dt=""string"">2015-03-04T20:21:48Z</DateUtc></StartTime><FrequencyChanges><FrequencyChange><Frequency dt:dt=""r8"">2825703</Frequency><Timestamp dt:dt=""r8"">123041372289</Timestamp><Current dt:dt=""r8"">0</Current><DateUtc dt:dt=""string"">2015-03-04T20:21:48Z</DateUtc></FrequencyChange></FrequencyChanges></Clock>\n"	Arrow Flanker 2014-12065-1	60.019	1.0.0.86	1	-1512137665	Professional	2.0.10.353	2.0.10.353	03-04-2015	3/4/2015 8:21:48 PM	15:21:48	2.0.10.248	3	1	1	1	NA	NA	NA	NA	NA	NA	NA	NA	NA	NA	NA	NA	NA	NA	NA	NA	NA	NA	NA	NA	NA	NA	NA	NA	BlockProc	BlockList	NA	66	{LEFTARROW}	NA	-100	1802	congruent	NA	NA	NA	NA	NA	NA	NA	NA	NA	NA	NA	NA	NA	NA	NA	NA	NA	NA	NA	NA	NA	NA	TrialProc	TrialList	1	7	414929	17	0	16	412563	0	1	{LEFTARROW}	-999999	0	414446	0	{LEFTARROW}	476	414922	NA	NA	left	lllll.bmp	354	0	NA	0	0	0	0	NA	0	0	0	NA	0	0	0	0	NA	0	0	1	1	66
Arrow Flanker 2014	12065	1	"<?xml version=""1.0""?>\n<Clock xmlns:dt=""urn:schemas-microsoft-com:datatypes""><Description dt:dt=""string"">E-Prime Primary Realtime Clock</Description><StartTime><Timestamp dt:dt=""int"">0</Timestamp><DateUtc dt:dt=""string"">2015-03-04T20:21:48Z</DateUtc></StartTime><FrequencyChanges><FrequencyChange><Frequency dt:dt=""r8"">2825703</Frequency><Timestamp dt:dt=""r8"">123041372289</Timestamp><Current dt:dt=""r8"">0</Current><DateUtc dt:dt=""string"">2015-03-04T20:21:48Z</DateUtc></FrequencyChange></FrequencyChanges></Clock>\n"	Arrow Flanker 2014-12065-1	60.019	1.0.0.86	1	-1512137665	Professional	2.0.10.353	2.0.10.353	03-04-2015	3/4/2015 8:21:48 PM	15:21:48	2.0.10.248	3	1	1	1	NA	NA	NA	NA	NA	NA	NA	NA	NA	NA	NA	NA	NA	NA	NA	NA	NA	NA	NA	NA	NA	NA	NA	NA	BlockProc	BlockList	NA	67	{RIGHTARROW}	NA	-100	1821	neutral	NA	NA	NA	NA	NA	NA	NA	NA	NA	NA	NA	NA	NA	NA	NA	NA	NA	NA	NA	NA	NA	NA	TrialProc	TrialList	0	16	417562	16	0	16	415462	0	1	{RIGHTARROW}	-999999	0	417162	0	{RIGHTARROW}	383	417545	NA	NA	right	ooroo.bmp	354	0	NA	0	0	0	0	NA	0	0	0	NA	0	0	0	0	NA	0	0	6	1	67
Arrow Flanker 2014	12065	1	"<?xml version=""1.0""?>\n<Clock xmlns:dt=""urn:schemas-microsoft-com:datatypes""><Description dt:dt=""string"">E-Prime Primary Realtime Clock</Description><StartTime><Timestamp dt:dt=""int"">0</Timestamp><DateUtc dt:dt=""string"">2015-03-04T20:21:48Z</DateUtc></StartTime><FrequencyChanges><FrequencyChange><Frequency dt:dt=""r8"">2825703</Frequency><Timestamp dt:dt=""r8"">123041372289</Timestamp><Current dt:dt=""r8"">0</Current><DateUtc dt:dt=""string"">2015-03-04T20:21:48Z</DateUtc></FrequencyChange></FrequencyChanges></Clock>\n"	Arrow Flanker 2014-12065-1	60.019	1.0.0.86	1	-1512137665	Professional	2.0.10.353	2.0.10.353	03-04-2015	3/4/2015 8:21:48 PM	15:21:48	2.0.10.248	3	1	1	1	NA	NA	NA	NA	NA	NA	NA	NA	NA	NA	NA	NA	NA	NA	NA	NA	NA	NA	NA	NA	NA	NA	NA	NA	BlockProc	BlockList	NA	68	{RIGHTARROW}	NA	-100	1598	neutral	NA	NA	NA	NA	NA	NA	NA	NA	NA	NA	NA	NA	NA	NA	NA	NA	NA	NA	NA	NA	NA	NA	TrialProc	TrialList	0	16	420561	16	0	17	418095	0	1	{RIGHTARROW}	-999999	0	420194	0	{RIGHTARROW}	351	420545	NA	NA	right	ooroo.bmp	354	0	NA	0	0	0	0	NA	0	0	0	NA	0	0	0	0	NA	0	0	6	1	68
Arrow Flanker 2014	12065	1	"<?xml version=""1.0""?>\n<Clock xmlns:dt=""urn:schemas-microsoft-com:datatypes""><Description dt:dt=""string"">E-Prime Primary Realtime Clock</Description><StartTime><Timestamp dt:dt=""int"">0</Timestamp><DateUtc dt:dt=""string"">2015-03-04T20:21:48Z</DateUtc></StartTime><FrequencyChanges><FrequencyChange><Frequency dt:dt=""r8"">2825703</Frequency><Timestamp dt:dt=""r8"">123041372289</Timestamp><Current dt:dt=""r8"">0</Current><DateUtc dt:dt=""string"">2015-03-04T20:21:48Z</DateUtc></FrequencyChange></FrequencyChanges></Clock>\n"	Arrow Flanker 2014-12065-1	60.019	1.0.0.86	1	-1512137665	Professional	2.0.10.353	2.0.10.353	03-04-2015	3/4/2015 8:21:48 PM	15:21:48	2.0.10.248	3	1	1	1	NA	NA	NA	NA	NA	NA	NA	NA	NA	NA	NA	NA	NA	NA	NA	NA	NA	NA	NA	NA	NA	NA	NA	NA	BlockProc	BlockList	NA	69	{LEFTARROW}	NA	-100	2128	congruent	NA	NA	NA	NA	NA	NA	NA	NA	NA	NA	NA	NA	NA	NA	NA	NA	NA	NA	NA	NA	NA	NA	TrialProc	TrialList	0	7	422960	17	0	17	421094	0	1	{LEFTARROW}	-999999	0	422560	0	{LEFTARROW}	393	422953	NA	NA	left	lllll.bmp	354	0	NA	0	0	0	0	NA	0	0	0	NA	0	0	0	0	NA	0	0	1	1	69
Arrow Flanker 2014	12065	1	"<?xml version=""1.0""?>\n<Clock xmlns:dt=""urn:schemas-microsoft-com:datatypes""><Description dt:dt=""string"">E-Prime Primary Realtime Clock</Description><StartTime><Timestamp dt:dt=""int"">0</Timestamp><DateUtc dt:dt=""string"">2015-03-04T20:21:48Z</DateUtc></StartTime><FrequencyChanges><FrequencyChange><Frequency dt:dt=""r8"">2825703</Frequency><Timestamp dt:dt=""r8"">123041372289</Timestamp><Current dt:dt=""r8"">0</Current><DateUtc dt:dt=""string"">2015-03-04T20:21:48Z</DateUtc></FrequencyChange></FrequencyChanges></Clock>\n"	Arrow Flanker 2014-12065-1	60.019	1.0.0.86	1	-1512137665	Professional	2.0.10.353	2.0.10.353	03-04-2015	3/4/2015 8:21:48 PM	15:21:48	2.0.10.248	3	1	1	1	NA	NA	NA	NA	NA	NA	NA	NA	NA	NA	NA	NA	NA	NA	NA	NA	NA	NA	NA	NA	NA	NA	NA	NA	BlockProc	BlockList	NA	70	{RIGHTARROW}	NA	-100	2305	incongruent	NA	NA	NA	NA	NA	NA	NA	NA	NA	NA	NA	NA	NA	NA	NA	NA	NA	NA	NA	NA	3	2	TrialProc	TrialList	0	16	426009	17	0	16	423493	0	1	{RIGHTARROW}	-999999	0	425493	0	{RIGHTARROW}	500	425993	NA	NA	right	llrll.bmp	354	0	NA	-999999	16	426542	0	1	4950	431492	0	NA	-999999	15	431507	0	1	2889	434396	4	1	70
Arrow Flanker 2014	12065	1	"<?xml version=""1.0""?>\n<Clock xmlns:dt=""urn:schemas-microsoft-com:datatypes""><Description dt:dt=""string"">E-Prime Primary Realtime Clock</Description><StartTime><Timestamp dt:dt=""int"">0</Timestamp><DateUtc dt:dt=""string"">2015-03-04T20:21:48Z</DateUtc></StartTime><FrequencyChanges><FrequencyChange><Frequency dt:dt=""r8"">2825703</Frequency><Timestamp dt:dt=""r8"">123041372289</Timestamp><Current dt:dt=""r8"">0</Current><DateUtc dt:dt=""string"">2015-03-04T20:21:48Z</DateUtc></FrequencyChange></FrequencyChanges></Clock>\n"	Arrow Flanker 2014-12065-1	60.019	1.0.0.86	1	-1512137665	Professional	2.0.10.353	2.0.10.353	03-04-2015	3/4/2015 8:21:48 PM	15:21:48	2.0.10.248	3	1	1	1	NA	NA	NA	NA	NA	NA	NA	NA	NA	NA	NA	NA	NA	NA	NA	NA	NA	NA	NA	NA	NA	NA	NA	NA	BlockProc	BlockList	NA	71	{LEFTARROW}	NA	-100	1168	neutral	NA	NA	NA	NA	NA	NA	NA	NA	NA	NA	NA	NA	NA	NA	NA	NA	NA	NA	NA	NA	NA	NA	TrialProc	TrialList	1	17	437505	17	0	17	435673	0	1	{LEFTARROW}	-999999	0	436956	0	{LEFTARROW}	532	437488	NA	NA	left	ooloo.bmp	354	0	NA	0	0	0	0	NA	0	0	0	NA	0	0	0	0	NA	0	0	5	1	71
Arrow Flanker 2014	12065	1	"<?xml version=""1.0""?>\n<Clock xmlns:dt=""urn:schemas-microsoft-com:datatypes""><Description dt:dt=""string"">E-Prime Primary Realtime Clock</Description><StartTime><Timestamp dt:dt=""int"">0</Timestamp><DateUtc dt:dt=""string"">2015-03-04T20:21:48Z</DateUtc></StartTime><FrequencyChanges><FrequencyChange><Frequency dt:dt=""r8"">2825703</Frequency><Timestamp dt:dt=""r8"">123041372289</Timestamp><Current dt:dt=""r8"">0</Current><DateUtc dt:dt=""string"">2015-03-04T20:21:48Z</DateUtc></FrequencyChange></FrequencyChanges></Clock>\n"	Arrow Flanker 2014-12065-1	60.019	1.0.0.86	1	-1512137665	Professional	2.0.10.353	2.0.10.353	03-04-2015	3/4/2015 8:21:48 PM	15:21:48	2.0.10.248	3	1	1	1	NA	NA	NA	NA	NA	NA	NA	NA	NA	NA	NA	NA	NA	NA	NA	NA	NA	NA	NA	NA	NA	NA	NA	NA	BlockProc	BlockList	NA	72	{RIGHTARROW}	NA	-100	1944	neutral	NA	NA	NA	NA	NA	NA	NA	NA	NA	NA	NA	NA	NA	NA	NA	NA	NA	NA	NA	NA	NA	NA	TrialProc	TrialList	0	18	440338	17	0	17	438039	0	1	{RIGHTARROW}	-999999	0	439838	0	{RIGHTARROW}	482	440320	NA	NA	right	ooroo.bmp	354	0	NA	0	0	0	0	NA	0	0	0	NA	0	0	0	0	NA	0	0	6	1	72
Arrow Flanker 2014	12065	1	"<?xml version=""1.0""?>\n<Clock xmlns:dt=""urn:schemas-microsoft-com:datatypes""><Description dt:dt=""string"">E-Prime Primary Realtime Clock</Description><StartTime><Timestamp dt:dt=""int"">0</Timestamp><DateUtc dt:dt=""string"">2015-03-04T20:21:48Z</DateUtc></StartTime><FrequencyChanges><FrequencyChange><Frequency dt:dt=""r8"">2825703</Frequency><Timestamp dt:dt=""r8"">123041372289</Timestamp><Current dt:dt=""r8"">0</Current><DateUtc dt:dt=""string"">2015-03-04T20:21:48Z</DateUtc></FrequencyChange></FrequencyChanges></Clock>\n"	Arrow Flanker 2014-12065-1	60.019	1.0.0.86	1	-1512137665	Professional	2.0.10.353	2.0.10.353	03-04-2015	3/4/2015 8:21:48 PM	15:21:48	2.0.10.248	3	1	1	1	NA	NA	NA	NA	NA	NA	NA	NA	NA	NA	NA	NA	NA	NA	NA	NA	NA	NA	NA	NA	NA	NA	NA	NA	BlockProc	BlockList	NA	73	{LEFTARROW}	NA	-100	1659	congruent	NA	NA	NA	NA	NA	NA	NA	NA	NA	NA	NA	NA	NA	NA	NA	NA	NA	NA	NA	NA	NA	NA	TrialProc	TrialList	1	3	442387	17	0	16	440871	0	1	{LEFTARROW}	-999999	16	441954	0	{LEFTARROW}	430	442384	NA	NA	left	lllll.bmp	354	0	NA	0	0	0	0	NA	0	0	0	NA	0	0	0	0	NA	0	0	1	1	73
