ExperimentName	Subject	Session	Clock.Information	DataFile.Basename	Display.RefreshRate	ExperimentVersion	Group	RandomSeed	RuntimeCapabilities	RuntimeVersion	RuntimeVersionExpected	SessionDate	SessionStartDateTimeUtc	SessionTime	StudioVersion	Block	BlockList	BlockList.Cycle	BlockList.Sample	Both	CompletelyMW	CongMeanRT	CongTotal	Fragmented	GoodByeList	GoodByeList.Cycle	GoodByeList.Sample	IncongMeanRT	IncongTotal	MapBlockList	MapBlockList.Cycle	MapBlockList.Sample	Mindwandering	MostlyMW	MostlyOT	NeutralMeanRT	NeutralTotal	NumberProbes1	NumberProbes2	OnTask	PracBlockList	PracBlockList.Cycle	PracBlockList.Sample	Procedure[Block]	Running[Block]	Sequential	Trial	CorrectAnswer	CuePositionY	CuePositionY2	DurationOfFixation	FlankerType	MapTrialList	MapTrialList.Cycle	MapTrialList.Sample	PracSlideFixationStart.DurationError	PracSlideFixationStart.OnsetDelay	PracSlideFixationStart.OnsetTime	PracSlideFixationStart.OnsetToOnsetTime	PracSlideTarget.ACC	PracSlideTarget.CRESP	PracSlideTarget.DurationError	PracSlideTarget.OnsetDelay	PracSlideTarget.OnsetTime	PracSlideTarget.OnsetToOnsetTime	PracSlideTarget.RESP	PracSlideTarget.RT	PracSlideTarget.RTTime	PracSlideTarget.Tag	PracTrialList	PracTrialList.Cycle	PracTrialList.Sample	Probe1Resp	Probe2Resp	Procedure[Trial]	Running[Trial]	SlideFixationEnd.DurationError	SlideFixationEnd.OnsetDelay	SlideFixationEnd.OnsetTime	SlideFixationEnd.OnsetToOnsetTime	SlideFixationStart.DurationError	SlideFixationStart.OnsetDelay	SlideFixationStart.OnsetTime	SlideFixationStart.OnsetToOnsetTime	SlideTarget.ACC	SlideTarget.CRESP	SlideTarget.DurationError	SlideTarget.OnsetDelay	SlideTarget.OnsetTime	SlideTarget.OnsetToOnsetTime	SlideTarget.RESP	SlideTarget.RT	SlideTarget.RTTime	SlideTarget.Tag	TargerDirection	TargetDirection	TargetImage	TargetPosition	ThoughtProbe1.ACC	ThoughtProbe1.CRESP	ThoughtProbe1.DurationError	ThoughtProbe1.OnsetDelay	ThoughtProbe1.OnsetTime	ThoughtProbe1.OnsetToOnsetTime	ThoughtProbe1.RESP	ThoughtProbe1.RT	ThoughtProbe1.RTTime	ThoughtProbe2.ACC	ThoughtProbe2.CRESP	ThoughtProbe2.DurationError	ThoughtProbe2.OnsetDelay	ThoughtProbe2.OnsetTime	ThoughtProbe2.OnsetToOnsetTime	ThoughtProbe2.RESP	ThoughtProbe2.RT	ThoughtProbe2.RTTime	TrialList	TrialList.Cycle	TrialList.Sample
Arrow Flanker 2014	12095	1	"<?xml version=""1.0""?>\n<Clock xmlns:dt=""urn:schemas-microsoft-com:datatypes""><Description dt:dt=""string"">E-Prime Primary Realtime Clock</Description><StartTime><Timestamp dt:dt=""int"">0</Timestamp><DateUtc dt:dt=""string"">2015-03-06T18:59:50Z</DateUtc></StartTime><FrequencyChanges><FrequencyChange><Frequency dt:dt=""r8"">2825703</Frequency><Timestamp dt:dt=""r8"">597354907372</Timestamp><Current dt:dt=""r8"">0</Current><DateUtc dt:dt=""string"">2015-03-06T18:59:50Z</DateUtc></FrequencyChange></FrequencyChanges></Clock>\n"	Arrow Flanker 2014-12095-1	60.019	1.0.0.86	1	354987616	Professional	2.0.10.353	2.0.10.353	03-06-2015	3/6/2015 6:59:50 PM	13:59:50	2.0.10.248	1	NA	NA	NA	NA	NA	NA	NA	NA	NA	NA	NA	NA	NA	1	1	1	NA	NA	NA	NA	NA	NA	NA	NA	NA	NA	NA	MapBlockProc	MapBlockList	NA	1	{LEFTARROW}	-100	NA	951	NA	1	1	1	0	10	66277	967	1	{LEFTARROW}	-999999	0	67743	0	{LEFTARROW}	916	68659	NA	NA	NA	NA	NA	NA	MapTrialProc	MapTrialList	NA	NA	NA	NA	NA	NA	NA	NA	NA	NA	NA	NA	NA	NA	NA	NA	NA	NA	left	NA	L.bmp	354	NA	NA	NA	NA	NA	NA	NA	NA	NA	NA	NA	NA	NA	NA	NA	NA	NA	NA	NA	NA	NA
Arrow Flanker 2014	12095	1	"<?xml version=""1.0""?>\n<Clock xmlns:dt=""urn:schemas-microsoft-com:datatypes""><Description dt:dt=""string"">E-Prime Primary Realtime Clock</Description><StartTime><Timestamp dt:dt=""int"">0</Timestamp><DateUtc dt:dt=""string"">2015-03-06T18:59:50Z</DateUtc></StartTime><FrequencyChanges><FrequencyChange><Frequency dt:dt=""r8"">2825703</Frequency><Timestamp dt:dt=""r8"">597354907372</Timestamp><Current dt:dt=""r8"">0</Current><DateUtc dt:dt=""string"">2015-03-06T18:59:50Z</DateUtc></FrequencyChange></FrequencyChanges></Clock>\n"	Arrow Flanker 2014-12095-1	60.019	1.0.0.86	1	354987616	Professional	2.0.10.353	2.0.10.353	03-06-2015	3/6/2015 6:59:50 PM	13:59:50	2.0.10.248	1	NA	NA	NA	NA	NA	NA	NA	NA	NA	NA	NA	NA	NA	1	1	1	NA	NA	NA	NA	NA	NA	NA	NA	NA	NA	NA	MapBlockProc	MapBlockList	NA	2	{RIGHTARROW}	-100	NA	1078	NA	2	1	2	0	17	70193	1083	1	{RIGHTARROW}	-999999	0	71792	0	{RIGHTARROW}	482	72274	NA	NA	NA	NA	NA	NA	MapTrialProc	MapTrialList	NA	NA	NA	NA	NA	NA	NA	NA	NA	NA	NA	NA	NA	NA	NA	NA	NA	NA	right	NA	R.bmp	354	NA	NA	NA	NA	NA	NA	NA	NA	NA	NA	NA	NA	NA	NA	NA	NA	NA	NA	NA	NA	NA
Arrow Flanker 2014	12095	1	"<?xml version=""1.0""?>\n<Clock xmlns:dt=""urn:schemas-microsoft-com:datatypes""><Description dt:dt=""string"">E-Prime Primary Realtime Clock</Description><StartTime><Timestamp dt:dt=""int"">0</Timestamp><DateUtc dt:dt=""string"">2015-03-06T18:59:50Z</DateUtc></StartTime><FrequencyChanges><FrequencyChange><Frequency dt:dt=""r8"">2825703</Frequency><Timestamp dt:dt=""r8"">597354907372</Timestamp><Current dt:dt=""r8"">0</Current><DateUtc dt:dt=""string"">2015-03-06T18:59:50Z</DateUtc></FrequencyChange></FrequencyChanges></Clock>\n"	Arrow Flanker 2014-12095-1	60.019	1.0.0.86	1	354987616	Professional	2.0.10.353	2.0.10.353	03-06-2015	3/6/2015 6:59:50 PM	13:59:50	2.0.10.248	1	NA	NA	NA	NA	NA	NA	NA	NA	NA	NA	NA	NA	NA	1	1	1	NA	NA	NA	NA	NA	NA	NA	NA	NA	NA	NA	MapBlockProc	MapBlockList	NA	3	{LEFTARROW}	-100	NA	833	NA	1	1	3	0	16	73808	833	1	{LEFTARROW}	-999999	0	75141	0	{LEFTARROW}	485	75626	NA	NA	NA	NA	NA	NA	MapTrialProc	MapTrialList	NA	NA	NA	NA	NA	NA	NA	NA	NA	NA	NA	NA	NA	NA	NA	NA	NA	NA	left	NA	L.bmp	354	NA	NA	NA	NA	NA	NA	NA	NA	NA	NA	NA	NA	NA	NA	NA	NA	NA	NA	NA	NA	NA
Arrow Flanker 2014	12095	1	"<?xml version=""1.0""?>\n<Clock xmlns:dt=""urn:schemas-microsoft-com:datatypes""><Description dt:dt=""string"">E-Prime Primary Realtime Clock</Description><StartTime><Timestamp dt:dt=""int"">0</Timestamp><DateUtc dt:dt=""string"">2015-03-06T18:59:50Z</DateUtc></StartTime><FrequencyChanges><FrequencyChange><Frequency dt:dt=""r8"">2825703</Frequency><Timestamp dt:dt=""r8"">597354907372</Timestamp><Current dt:dt=""r8"">0</Current><DateUtc dt:dt=""string"">2015-03-06T18:59:50Z</DateUtc></FrequencyChange></FrequencyChanges></Clock>\n"	Arrow Flanker 2014-12095-1	60.019	1.0.0.86	1	354987616	Professional	2.0.10.353	2.0.10.353	03-06-2015	3/6/2015 6:59:50 PM	13:59:50	2.0.10.248	1	NA	NA	NA	NA	NA	NA	NA	NA	NA	NA	NA	NA	NA	1	1	1	NA	NA	NA	NA	NA	NA	NA	NA	NA	NA	NA	MapBlockProc	MapBlockList	NA	4	{RIGHTARROW}	-100	NA	536	NA	2	1	4	0	16	77157	550	1	{RIGHTARROW}	-999999	0	78207	0	{RIGHTARROW}	379	78586	NA	NA	NA	NA	NA	NA	MapTrialProc	MapTrialList	NA	NA	NA	NA	NA	NA	NA	NA	NA	NA	NA	NA	NA	NA	NA	NA	NA	NA	right	NA	R.bmp	354	NA	NA	NA	NA	NA	NA	NA	NA	NA	NA	NA	NA	NA	NA	NA	NA	NA	NA	NA	NA	NA
Arrow Flanker 2014	12095	1	"<?xml version=""1.0""?>\n<Clock xmlns:dt=""urn:schemas-microsoft-com:datatypes""><Description dt:dt=""string"">E-Prime Primary Realtime Clock</Description><StartTime><Timestamp dt:dt=""int"">0</Timestamp><DateUtc dt:dt=""string"">2015-03-06T18:59:50Z</DateUtc></StartTime><FrequencyChanges><FrequencyChange><Frequency dt:dt=""r8"">2825703</Frequency><Timestamp dt:dt=""r8"">597354907372</Timestamp><Current dt:dt=""r8"">0</Current><DateUtc dt:dt=""string"">2015-03-06T18:59:50Z</DateUtc></FrequencyChange></FrequencyChanges></Clock>\n"	Arrow Flanker 2014-12095-1	60.019	1.0.0.86	1	354987616	Professional	2.0.10.353	2.0.10.353	03-06-2015	3/6/2015 6:59:50 PM	13:59:50	2.0.10.248	1	NA	NA	NA	NA	NA	NA	NA	NA	NA	NA	NA	NA	NA	1	1	1	NA	NA	NA	NA	NA	NA	NA	NA	NA	NA	NA	MapBlockProc	MapBlockList	NA	5	{LEFTARROW}	-100	NA	541	NA	1	1	5	0	16	80123	550	1	{LEFTARROW}	-999999	16	81189	0	{LEFTARROW}	405	81594	NA	NA	NA	NA	NA	NA	MapTrialProc	MapTrialList	NA	NA	NA	NA	NA	NA	NA	NA	NA	NA	NA	NA	NA	NA	NA	NA	NA	NA	left	NA	L.bmp	354	NA	NA	NA	NA	NA	NA	NA	NA	NA	NA	NA	NA	NA	NA	NA	NA	NA	NA	NA	NA	NA
Arrow Flanker 2014	12095	1	"<?xml version=""1.0""?>\n<Clock xmlns:dt=""urn:schemas-microsoft-com:datatypes""><Description dt:dt=""string"">E-Prime Primary Realtime Clock</Description><StartTime><Timestamp dt:dt=""int"">0</Timestamp><DateUtc dt:dt=""string"">2015-03-06T18:59:50Z</DateUtc></StartTime><FrequencyChanges><FrequencyChange><Frequency dt:dt=""r8"">2825703</Frequency><Timestamp dt:dt=""r8"">597354907372</Timestamp><Current dt:dt=""r8"">0</Current><DateUtc dt:dt=""string"">2015-03-06T18:59:50Z</DateUtc></FrequencyChange></FrequencyChanges></Clock>\n"	Arrow Flanker 2014-12095-1	60.019	1.0.0.86	1	354987616	Professional	2.0.10.353	2.0.10.353	03-06-2015	3/6/2015 6:59:50 PM	13:59:50	2.0.10.248	1	NA	NA	NA	NA	NA	NA	NA	NA	NA	NA	NA	NA	NA	1	1	1	NA	NA	NA	NA	NA	NA	NA	NA	NA	NA	NA	MapBlockProc	MapBlockList	NA	6	{LEFTARROW}	-100	NA	1272	NA	1	1	6	0	16	83122	1283	1	{LEFTARROW}	-999999	0	84905	0	{LEFTARROW}	560	85465	NA	NA	NA	NA	NA	NA	MapTrialProc	MapTrialList	NA	NA	NA	NA	NA	NA	NA	NA	NA	NA	NA	NA	NA	NA	NA	NA	NA	NA	left	NA	L.bmp	354	NA	NA	NA	NA	NA	NA	NA	NA	NA	NA	NA	NA	NA	NA	NA	NA	NA	NA	NA	NA	NA
Arrow Flanker 2014	12095	1	"<?xml version=""1.0""?>\n<Clock xmlns:dt=""urn:schemas-microsoft-com:datatypes""><Description dt:dt=""string"">E-Prime Primary Realtime Clock</Description><StartTime><Timestamp dt:dt=""int"">0</Timestamp><DateUtc dt:dt=""string"">2015-03-06T18:59:50Z</DateUtc></StartTime><FrequencyChanges><FrequencyChange><Frequency dt:dt=""r8"">2825703</Frequency><Timestamp dt:dt=""r8"">597354907372</Timestamp><Current dt:dt=""r8"">0</Current><DateUtc dt:dt=""string"">2015-03-06T18:59:50Z</DateUtc></FrequencyChange></FrequencyChanges></Clock>\n"	Arrow Flanker 2014-12095-1	60.019	1.0.0.86	1	354987616	Professional	2.0.10.353	2.0.10.353	03-06-2015	3/6/2015 6:59:50 PM	13:59:50	2.0.10.248	1	NA	NA	NA	NA	NA	NA	NA	NA	NA	NA	NA	NA	NA	1	1	1	NA	NA	NA	NA	NA	NA	NA	NA	NA	NA	NA	MapBlockProc	MapBlockList	NA	7	{RIGHTARROW}	-100	NA	717	NA	2	1	7	0	16	87004	733	1	{RIGHTARROW}	-999999	0	88237	0	{RIGHTARROW}	404	88641	NA	NA	NA	NA	NA	NA	MapTrialProc	MapTrialList	NA	NA	NA	NA	NA	NA	NA	NA	NA	NA	NA	NA	NA	NA	NA	NA	NA	NA	right	NA	R.bmp	354	NA	NA	NA	NA	NA	NA	NA	NA	NA	NA	NA	NA	NA	NA	NA	NA	NA	NA	NA	NA	NA
Arrow Flanker 2014	12095	1	"<?xml version=""1.0""?>\n<Clock xmlns:dt=""urn:schemas-microsoft-com:datatypes""><Description dt:dt=""string"">E-Prime Primary Realtime Clock</Description><StartTime><Timestamp dt:dt=""int"">0</Timestamp><DateUtc dt:dt=""string"">2015-03-06T18:59:50Z</DateUtc></StartTime><FrequencyChanges><FrequencyChange><Frequency dt:dt=""r8"">2825703</Frequency><Timestamp dt:dt=""r8"">597354907372</Timestamp><Current dt:dt=""r8"">0</Current><DateUtc dt:dt=""string"">2015-03-06T18:59:50Z</DateUtc></FrequencyChange></FrequencyChanges></Clock>\n"	Arrow Flanker 2014-12095-1	60.019	1.0.0.86	1	354987616	Professional	2.0.10.353	2.0.10.353	03-06-2015	3/6/2015 6:59:50 PM	13:59:50	2.0.10.248	1	NA	NA	NA	NA	NA	NA	NA	NA	NA	NA	NA	NA	NA	1	1	1	NA	NA	NA	NA	NA	NA	NA	NA	NA	NA	NA	MapBlockProc	MapBlockList	NA	8	{RIGHTARROW}	-100	NA	631	NA	2	1	8	0	17	90170	633	1	{RIGHTARROW}	-999999	0	91303	0	{RIGHTARROW}	530	91833	NA	NA	NA	NA	NA	NA	MapTrialProc	MapTrialList	NA	NA	NA	NA	NA	NA	NA	NA	NA	NA	NA	NA	NA	NA	NA	NA	NA	NA	right	NA	R.bmp	354	NA	NA	NA	NA	NA	NA	NA	NA	NA	NA	NA	NA	NA	NA	NA	NA	NA	NA	NA	NA	NA
Arrow Flanker 2014	12095	1	"<?xml version=""1.0""?>\n<Clock xmlns:dt=""urn:schemas-microsoft-com:datatypes""><Description dt:dt=""string"">E-Prime Primary Realtime Clock</Description><StartTime><Timestamp dt:dt=""int"">0</Timestamp><DateUtc dt:dt=""string"">2015-03-06T18:59:50Z</DateUtc></StartTime><FrequencyChanges><FrequencyChange><Frequency dt:dt=""r8"">2825703</Frequency><Timestamp dt:dt=""r8"">597354907372</Timestamp><Current dt:dt=""r8"">0</Current><DateUtc dt:dt=""string"">2015-03-06T18:59:50Z</DateUtc></FrequencyChange></FrequencyChanges></Clock>\n"	Arrow Flanker 2014-12095-1	60.019	1.0.0.86	1	354987616	Professional	2.0.10.353	2.0.10.353	03-06-2015	3/6/2015 6:59:50 PM	13:59:50	2.0.10.248	1	NA	NA	NA	NA	NA	NA	NA	NA	NA	NA	NA	NA	NA	1	1	1	NA	NA	NA	NA	NA	NA	NA	NA	NA	NA	NA	MapBlockProc	MapBlockList	NA	9	{RIGHTARROW}	-100	NA	993	NA	2	1	9	0	16	93369	999	1	{RIGHTARROW}	-999999	0	94868	0	{RIGHTARROW}	405	95273	NA	NA	NA	NA	NA	NA	MapTrialProc	MapTrialList	NA	NA	NA	NA	NA	NA	NA	NA	NA	NA	NA	NA	NA	NA	NA	NA	NA	NA	right	NA	R.bmp	354	NA	NA	NA	NA	NA	NA	NA	NA	NA	NA	NA	NA	NA	NA	NA	NA	NA	NA	NA	NA	NA
Arrow Flanker 2014	12095	1	"<?xml version=""1.0""?>\n<Clock xmlns:dt=""urn:schemas-microsoft-com:datatypes""><Description dt:dt=""string"">E-Prime Primary Realtime Clock</Description><StartTime><Timestamp dt:dt=""int"">0</Timestamp><DateUtc dt:dt=""string"">2015-03-06T18:59:50Z</DateUtc></StartTime><FrequencyChanges><FrequencyChange><Frequency dt:dt=""r8"">2825703</Frequency><Timestamp dt:dt=""r8"">597354907372</Timestamp><Current dt:dt=""r8"">0</Current><DateUtc dt:dt=""string"">2015-03-06T18:59:50Z</DateUtc></FrequencyChange></FrequencyChanges></Clock>\n"	Arrow Flanker 2014-12095-1	60.019	1.0.0.86	1	354987616	Professional	2.0.10.353	2.0.10.353	03-06-2015	3/6/2015 6:59:50 PM	13:59:50	2.0.10.248	1	NA	NA	NA	NA	NA	NA	NA	NA	NA	NA	NA	NA	NA	1	1	1	NA	NA	NA	NA	NA	NA	NA	NA	NA	NA	NA	MapBlockProc	MapBlockList	NA	10	{LEFTARROW}	-100	NA	1585	NA	1	1	10	0	16	96801	1599	1	{LEFTARROW}	-999999	0	98900	0	{LEFTARROW}	444	99344	NA	NA	NA	NA	NA	NA	MapTrialProc	MapTrialList	NA	NA	NA	NA	NA	NA	NA	NA	NA	NA	NA	NA	NA	NA	NA	NA	NA	NA	left	NA	L.bmp	354	NA	NA	NA	NA	NA	NA	NA	NA	NA	NA	NA	NA	NA	NA	NA	NA	NA	NA	NA	NA	NA
Arrow Flanker 2014	12095	1	"<?xml version=""1.0""?>\n<Clock xmlns:dt=""urn:schemas-microsoft-com:datatypes""><Description dt:dt=""string"">E-Prime Primary Realtime Clock</Description><StartTime><Timestamp dt:dt=""int"">0</Timestamp><DateUtc dt:dt=""string"">2015-03-06T18:59:50Z</DateUtc></StartTime><FrequencyChanges><FrequencyChange><Frequency dt:dt=""r8"">2825703</Frequency><Timestamp dt:dt=""r8"">597354907372</Timestamp><Current dt:dt=""r8"">0</Current><DateUtc dt:dt=""string"">2015-03-06T18:59:50Z</DateUtc></FrequencyChange></FrequencyChanges></Clock>\n"	Arrow Flanker 2014-12095-1	60.019	1.0.0.86	1	354987616	Professional	2.0.10.353	2.0.10.353	03-06-2015	3/6/2015 6:59:50 PM	13:59:50	2.0.10.248	2	NA	NA	NA	NA	NA	NA	NA	NA	NA	NA	NA	NA	NA	NA	NA	NA	NA	NA	NA	NA	NA	NA	NA	NA	1	1	1	PracBlockProc	PracBlockList	NA	1	{RIGHTARROW}	-100	NA	1129	neutral	NA	NA	NA	0	10	113362	1133	1	{RIGHTARROW}	-999999	0	114995	0	{RIGHTARROW}	652	115647	NA	6	1	1	NA	NA	PracTrialProc	PracTrialList	NA	NA	NA	NA	NA	NA	NA	NA	NA	NA	NA	NA	NA	NA	NA	NA	NA	NA	right	NA	ooroo.bmp	354	NA	NA	NA	NA	NA	NA	NA	NA	NA	NA	NA	NA	NA	NA	NA	NA	NA	NA	NA	NA	NA
Arrow Flanker 2014	12095	1	"<?xml version=""1.0""?>\n<Clock xmlns:dt=""urn:schemas-microsoft-com:datatypes""><Description dt:dt=""string"">E-Prime Primary Realtime Clock</Description><StartTime><Timestamp dt:dt=""int"">0</Timestamp><DateUtc dt:dt=""string"">2015-03-06T18:59:50Z</DateUtc></StartTime><FrequencyChanges><FrequencyChange><Frequency dt:dt=""r8"">2825703</Frequency><Timestamp dt:dt=""r8"">597354907372</Timestamp><Current dt:dt=""r8"">0</Current><DateUtc dt:dt=""string"">2015-03-06T18:59:50Z</DateUtc></FrequencyChange></FrequencyChanges></Clock>\n"	Arrow Flanker 2014-12095-1	60.019	1.0.0.86	1	354987616	Professional	2.0.10.353	2.0.10.353	03-06-2015	3/6/2015 6:59:50 PM	13:59:50	2.0.10.248	2	NA	NA	NA	NA	NA	NA	NA	NA	NA	NA	NA	NA	NA	NA	NA	NA	NA	NA	NA	NA	NA	NA	NA	NA	1	1	1	PracBlockProc	PracBlockList	NA	2	{LEFTARROW}	-100	NA	416	incongruent	NA	NA	NA	0	16	117178	416	1	{LEFTARROW}	-999999	0	118094	0	{LEFTARROW}	729	118823	NA	2	1	2	NA	NA	PracTrialProc	PracTrialList	NA	NA	NA	NA	NA	NA	NA	NA	NA	NA	NA	NA	NA	NA	NA	NA	NA	NA	left	NA	rrlrr.bmp	354	NA	NA	NA	NA	NA	NA	NA	NA	NA	NA	NA	NA	NA	NA	NA	NA	NA	NA	NA	NA	NA
Arrow Flanker 2014	12095	1	"<?xml version=""1.0""?>\n<Clock xmlns:dt=""urn:schemas-microsoft-com:datatypes""><Description dt:dt=""string"">E-Prime Primary Realtime Clock</Description><StartTime><Timestamp dt:dt=""int"">0</Timestamp><DateUtc dt:dt=""string"">2015-03-06T18:59:50Z</DateUtc></StartTime><FrequencyChanges><FrequencyChange><Frequency dt:dt=""r8"">2825703</Frequency><Timestamp dt:dt=""r8"">597354907372</Timestamp><Current dt:dt=""r8"">0</Current><DateUtc dt:dt=""string"">2015-03-06T18:59:50Z</DateUtc></FrequencyChange></FrequencyChanges></Clock>\n"	Arrow Flanker 2014-12095-1	60.019	1.0.0.86	1	354987616	Professional	2.0.10.353	2.0.10.353	03-06-2015	3/6/2015 6:59:50 PM	13:59:50	2.0.10.248	2	NA	NA	NA	NA	NA	NA	NA	NA	NA	NA	NA	NA	NA	NA	NA	NA	NA	NA	NA	NA	NA	NA	NA	NA	1	1	1	PracBlockProc	PracBlockList	NA	3	{LEFTARROW}	-100	NA	610	congruent	NA	NA	NA	0	16	120360	617	1	{LEFTARROW}	-999999	-1	121476	0	{LEFTARROW}	651	122127	NA	1	1	3	NA	NA	PracTrialProc	PracTrialList	NA	NA	NA	NA	NA	NA	NA	NA	NA	NA	NA	NA	NA	NA	NA	NA	NA	NA	left	NA	lllll.bmp	354	NA	NA	NA	NA	NA	NA	NA	NA	NA	NA	NA	NA	NA	NA	NA	NA	NA	NA	NA	NA	NA
Arrow Flanker 2014	12095	1	"<?xml version=""1.0""?>\n<Clock xmlns:dt=""urn:schemas-microsoft-com:datatypes""><Description dt:dt=""string"">E-Prime Primary Realtime Clock</Description><StartTime><Timestamp dt:dt=""int"">0</Timestamp><DateUtc dt:dt=""string"">2015-03-06T18:59:50Z</DateUtc></StartTime><FrequencyChanges><FrequencyChange><Frequency dt:dt=""r8"">2825703</Frequency><Timestamp dt:dt=""r8"">597354907372</Timestamp><Current dt:dt=""r8"">0</Current><DateUtc dt:dt=""string"">2015-03-06T18:59:50Z</DateUtc></FrequencyChange></FrequencyChanges></Clock>\n"	Arrow Flanker 2014-12095-1	60.019	1.0.0.86	1	354987616	Professional	2.0.10.353	2.0.10.353	03-06-2015	3/6/2015 6:59:50 PM	13:59:50	2.0.10.248	2	NA	NA	NA	NA	NA	NA	NA	NA	NA	NA	NA	NA	NA	NA	NA	NA	NA	NA	NA	NA	NA	NA	NA	NA	1	1	1	PracBlockProc	PracBlockList	NA	4	{RIGHTARROW}	-100	NA	1504	congruent	NA	NA	NA	0	16	123659	1516	1	{RIGHTARROW}	-999999	0	125675	0	{RIGHTARROW}	523	126198	NA	4	1	4	NA	NA	PracTrialProc	PracTrialList	NA	NA	NA	NA	NA	NA	NA	NA	NA	NA	NA	NA	NA	NA	NA	NA	NA	NA	right	NA	rrrrr.bmp	354	NA	NA	NA	NA	NA	NA	NA	NA	NA	NA	NA	NA	NA	NA	NA	NA	NA	NA	NA	NA	NA
Arrow Flanker 2014	12095	1	"<?xml version=""1.0""?>\n<Clock xmlns:dt=""urn:schemas-microsoft-com:datatypes""><Description dt:dt=""string"">E-Prime Primary Realtime Clock</Description><StartTime><Timestamp dt:dt=""int"">0</Timestamp><DateUtc dt:dt=""string"">2015-03-06T18:59:50Z</DateUtc></StartTime><FrequencyChanges><FrequencyChange><Frequency dt:dt=""r8"">2825703</Frequency><Timestamp dt:dt=""r8"">597354907372</Timestamp><Current dt:dt=""r8"">0</Current><DateUtc dt:dt=""string"">2015-03-06T18:59:50Z</DateUtc></FrequencyChange></FrequencyChanges></Clock>\n"	Arrow Flanker 2014-12095-1	60.019	1.0.0.86	1	354987616	Professional	2.0.10.353	2.0.10.353	03-06-2015	3/6/2015 6:59:50 PM	13:59:50	2.0.10.248	2	NA	NA	NA	NA	NA	NA	NA	NA	NA	NA	NA	NA	NA	NA	NA	NA	NA	NA	NA	NA	NA	NA	NA	NA	1	1	1	PracBlockProc	PracBlockList	NA	5	{LEFTARROW}	-100	NA	1506	neutral	NA	NA	NA	0	16	127725	1516	1	{LEFTARROW}	-999999	0	129741	0	{LEFTARROW}	441	130182	NA	3	1	5	NA	NA	PracTrialProc	PracTrialList	NA	NA	NA	NA	NA	NA	NA	NA	NA	NA	NA	NA	NA	NA	NA	NA	NA	NA	left	NA	ooloo.bmp	354	NA	NA	NA	NA	NA	NA	NA	NA	NA	NA	NA	NA	NA	NA	NA	NA	NA	NA	NA	NA	NA
Arrow Flanker 2014	12095	1	"<?xml version=""1.0""?>\n<Clock xmlns:dt=""urn:schemas-microsoft-com:datatypes""><Description dt:dt=""string"">E-Prime Primary Realtime Clock</Description><StartTime><Timestamp dt:dt=""int"">0</Timestamp><DateUtc dt:dt=""string"">2015-03-06T18:59:50Z</DateUtc></StartTime><FrequencyChanges><FrequencyChange><Frequency dt:dt=""r8"">2825703</Frequency><Timestamp dt:dt=""r8"">597354907372</Timestamp><Current dt:dt=""r8"">0</Current><DateUtc dt:dt=""string"">2015-03-06T18:59:50Z</DateUtc></FrequencyChange></FrequencyChanges></Clock>\n"	Arrow Flanker 2014-12095-1	60.019	1.0.0.86	1	354987616	Professional	2.0.10.353	2.0.10.353	03-06-2015	3/6/2015 6:59:50 PM	13:59:50	2.0.10.248	2	NA	NA	NA	NA	NA	NA	NA	NA	NA	NA	NA	NA	NA	NA	NA	NA	NA	NA	NA	NA	NA	NA	NA	NA	1	1	1	PracBlockProc	PracBlockList	NA	6	{RIGHTARROW}	-100	NA	1500	incongruent	NA	NA	NA	0	16	131723	1500	1	{RIGHTARROW}	-999999	0	133723	0	{RIGHTARROW}	643	134366	NA	5	1	6	NA	NA	PracTrialProc	PracTrialList	NA	NA	NA	NA	NA	NA	NA	NA	NA	NA	NA	NA	NA	NA	NA	NA	NA	NA	right	NA	llrll.bmp	354	NA	NA	NA	NA	NA	NA	NA	NA	NA	NA	NA	NA	NA	NA	NA	NA	NA	NA	NA	NA	NA
Arrow Flanker 2014	12095	1	"<?xml version=""1.0""?>\n<Clock xmlns:dt=""urn:schemas-microsoft-com:datatypes""><Description dt:dt=""string"">E-Prime Primary Realtime Clock</Description><StartTime><Timestamp dt:dt=""int"">0</Timestamp><DateUtc dt:dt=""string"">2015-03-06T18:59:50Z</DateUtc></StartTime><FrequencyChanges><FrequencyChange><Frequency dt:dt=""r8"">2825703</Frequency><Timestamp dt:dt=""r8"">597354907372</Timestamp><Current dt:dt=""r8"">0</Current><DateUtc dt:dt=""string"">2015-03-06T18:59:50Z</DateUtc></FrequencyChange></FrequencyChanges></Clock>\n"	Arrow Flanker 2014-12095-1	60.019	1.0.0.86	1	354987616	Professional	2.0.10.353	2.0.10.353	03-06-2015	3/6/2015 6:59:50 PM	13:59:50	2.0.10.248	3	1	1	1	NA	NA	NA	NA	NA	NA	NA	NA	NA	NA	NA	NA	NA	NA	NA	NA	NA	NA	NA	NA	NA	NA	NA	NA	BlockProc	BlockList	NA	1	{LEFTARROW}	NA	-100	997	neutral	NA	NA	NA	NA	NA	NA	NA	NA	NA	NA	NA	NA	NA	NA	NA	NA	NA	NA	NA	NA	NA	NA	TrialProc	TrialList	0	18	144503	16	0	16	142753	700	1	{LEFTARROW}	-999999	0	143953	0	{LEFTARROW}	532	144485	NA	NA	left	ooloo.bmp	354	0	NA	0	0	0	0	NA	0	0	0	NA	0	0	0	0	NA	0	0	5	1	1
Arrow Flanker 2014	12095	1	"<?xml version=""1.0""?>\n<Clock xmlns:dt=""urn:schemas-microsoft-com:datatypes""><Description dt:dt=""string"">E-Prime Primary Realtime Clock</Description><StartTime><Timestamp dt:dt=""int"">0</Timestamp><DateUtc dt:dt=""string"">2015-03-06T18:59:50Z</DateUtc></StartTime><FrequencyChanges><FrequencyChange><Frequency dt:dt=""r8"">2825703</Frequency><Timestamp dt:dt=""r8"">597354907372</Timestamp><Current dt:dt=""r8"">0</Current><DateUtc dt:dt=""string"">2015-03-06T18:59:50Z</DateUtc></FrequencyChange></FrequencyChanges></Clock>\n"	Arrow Flanker 2014-12095-1	60.019	1.0.0.86	1	354987616	Professional	2.0.10.353	2.0.10.353	03-06-2015	3/6/2015 6:59:50 PM	13:59:50	2.0.10.248	3	1	1	1	NA	NA	NA	NA	NA	NA	NA	NA	NA	NA	NA	NA	NA	NA	NA	NA	NA	NA	NA	NA	NA	NA	NA	NA	BlockProc	BlockList	NA	2	{RIGHTARROW}	NA	-100	1410	incongruent	NA	NA	NA	NA	NA	NA	NA	NA	NA	NA	NA	NA	NA	NA	NA	NA	NA	NA	NA	NA	NA	NA	TrialProc	TrialList	0	10	146919	16	0	17	145036	850	1	{RIGHTARROW}	-999999	0	146385	0	{RIGHTARROW}	524	146909	NA	NA	right	llrll.bmp	354	0	NA	0	0	0	0	NA	0	0	0	NA	0	0	0	0	NA	0	0	4	1	2
Arrow Flanker 2014	12095	1	"<?xml version=""1.0""?>\n<Clock xmlns:dt=""urn:schemas-microsoft-com:datatypes""><Description dt:dt=""string"">E-Prime Primary Realtime Clock</Description><StartTime><Timestamp dt:dt=""int"">0</Timestamp><DateUtc dt:dt=""string"">2015-03-06T18:59:50Z</DateUtc></StartTime><FrequencyChanges><FrequencyChange><Frequency dt:dt=""r8"">2825703</Frequency><Timestamp dt:dt=""r8"">597354907372</Timestamp><Current dt:dt=""r8"">0</Current><DateUtc dt:dt=""string"">2015-03-06T18:59:50Z</DateUtc></FrequencyChange></FrequencyChanges></Clock>\n"	Arrow Flanker 2014-12095-1	60.019	1.0.0.86	1	354987616	Professional	2.0.10.353	2.0.10.353	03-06-2015	3/6/2015 6:59:50 PM	13:59:50	2.0.10.248	3	1	1	1	NA	NA	NA	NA	NA	NA	NA	NA	NA	NA	NA	NA	NA	NA	NA	NA	NA	NA	NA	NA	NA	NA	NA	NA	BlockProc	BlockList	NA	3	{RIGHTARROW}	NA	-100	1772	congruent	NA	NA	NA	NA	NA	NA	NA	NA	NA	NA	NA	NA	NA	NA	NA	NA	NA	NA	NA	NA	NA	NA	TrialProc	TrialList	0	19	149568	16	0	17	147452	1083	1	{RIGHTARROW}	-999999	0	149035	0	{RIGHTARROW}	514	149549	NA	NA	right	rrrrr.bmp	354	0	NA	0	0	0	0	NA	0	0	0	NA	0	0	0	0	NA	0	0	2	1	3
Arrow Flanker 2014	12095	1	"<?xml version=""1.0""?>\n<Clock xmlns:dt=""urn:schemas-microsoft-com:datatypes""><Description dt:dt=""string"">E-Prime Primary Realtime Clock</Description><StartTime><Timestamp dt:dt=""int"">0</Timestamp><DateUtc dt:dt=""string"">2015-03-06T18:59:50Z</DateUtc></StartTime><FrequencyChanges><FrequencyChange><Frequency dt:dt=""r8"">2825703</Frequency><Timestamp dt:dt=""r8"">597354907372</Timestamp><Current dt:dt=""r8"">0</Current><DateUtc dt:dt=""string"">2015-03-06T18:59:50Z</DateUtc></FrequencyChange></FrequencyChanges></Clock>\n"	Arrow Flanker 2014-12095-1	60.019	1.0.0.86	1	354987616	Professional	2.0.10.353	2.0.10.353	03-06-2015	3/6/2015 6:59:50 PM	13:59:50	2.0.10.248	3	1	1	1	NA	NA	NA	NA	NA	NA	NA	NA	NA	NA	NA	NA	NA	NA	NA	NA	NA	NA	NA	NA	NA	NA	NA	NA	BlockProc	BlockList	NA	4	{LEFTARROW}	NA	-100	919	incongruent	NA	NA	NA	NA	NA	NA	NA	NA	NA	NA	NA	NA	NA	NA	NA	NA	NA	NA	NA	NA	NA	NA	TrialProc	TrialList	1	9	151550	17	0	17	150101	466	1	{LEFTARROW}	-999999	0	151067	0	{LEFTARROW}	474	151541	NA	NA	left	rrlrr.bmp	354	0	NA	0	0	0	0	NA	0	0	0	NA	0	0	0	0	NA	0	0	3	1	4
Arrow Flanker 2014	12095	1	"<?xml version=""1.0""?>\n<Clock xmlns:dt=""urn:schemas-microsoft-com:datatypes""><Description dt:dt=""string"">E-Prime Primary Realtime Clock</Description><StartTime><Timestamp dt:dt=""int"">0</Timestamp><DateUtc dt:dt=""string"">2015-03-06T18:59:50Z</DateUtc></StartTime><FrequencyChanges><FrequencyChange><Frequency dt:dt=""r8"">2825703</Frequency><Timestamp dt:dt=""r8"">597354907372</Timestamp><Current dt:dt=""r8"">0</Current><DateUtc dt:dt=""string"">2015-03-06T18:59:50Z</DateUtc></FrequencyChange></FrequencyChanges></Clock>\n"	Arrow Flanker 2014-12095-1	60.019	1.0.0.86	1	354987616	Professional	2.0.10.353	2.0.10.353	03-06-2015	3/6/2015 6:59:50 PM	13:59:50	2.0.10.248	3	1	1	1	NA	NA	NA	NA	NA	NA	NA	NA	NA	NA	NA	NA	NA	NA	NA	NA	NA	NA	NA	NA	NA	NA	NA	NA	BlockProc	BlockList	NA	5	{RIGHTARROW}	NA	-100	1927	neutral	NA	NA	NA	NA	NA	NA	NA	NA	NA	NA	NA	NA	NA	NA	NA	NA	NA	NA	NA	NA	NA	NA	TrialProc	TrialList	0	10	154566	17	0	17	152084	1349	1	{RIGHTARROW}	-999999	0	153933	0	{RIGHTARROW}	623	154556	NA	NA	right	ooroo.bmp	354	0	NA	0	0	0	0	NA	0	0	0	NA	0	0	0	0	NA	0	0	6	1	5
Arrow Flanker 2014	12095	1	"<?xml version=""1.0""?>\n<Clock xmlns:dt=""urn:schemas-microsoft-com:datatypes""><Description dt:dt=""string"">E-Prime Primary Realtime Clock</Description><StartTime><Timestamp dt:dt=""int"">0</Timestamp><DateUtc dt:dt=""string"">2015-03-06T18:59:50Z</DateUtc></StartTime><FrequencyChanges><FrequencyChange><Frequency dt:dt=""r8"">2825703</Frequency><Timestamp dt:dt=""r8"">597354907372</Timestamp><Current dt:dt=""r8"">0</Current><DateUtc dt:dt=""string"">2015-03-06T18:59:50Z</DateUtc></FrequencyChange></FrequencyChanges></Clock>\n"	Arrow Flanker 2014-12095-1	60.019	1.0.0.86	1	354987616	Professional	2.0.10.353	2.0.10.353	03-06-2015	3/6/2015 6:59:50 PM	13:59:50	2.0.10.248	3	1	1	1	NA	NA	NA	NA	NA	NA	NA	NA	NA	NA	NA	NA	NA	NA	NA	NA	NA	NA	NA	NA	NA	NA	NA	NA	BlockProc	BlockList	NA	6	{LEFTARROW}	NA	-100	828	neutral	NA	NA	NA	NA	NA	NA	NA	NA	NA	NA	NA	NA	NA	NA	NA	NA	NA	NA	NA	NA	NA	NA	TrialProc	TrialList	0	6	156882	17	0	16	155099	800	1	{LEFTARROW}	-999999	0	156399	0	{LEFTARROW}	477	156876	NA	NA	left	ooloo.bmp	354	0	NA	0	0	0	0	NA	0	0	0	NA	0	0	0	0	NA	0	0	5	1	6
Arrow Flanker 2014	12095	1	"<?xml version=""1.0""?>\n<Clock xmlns:dt=""urn:schemas-microsoft-com:datatypes""><Description dt:dt=""string"">E-Prime Primary Realtime Clock</Description><StartTime><Timestamp dt:dt=""int"">0</Timestamp><DateUtc dt:dt=""string"">2015-03-06T18:59:50Z</DateUtc></StartTime><FrequencyChanges><FrequencyChange><Frequency dt:dt=""r8"">2825703</Frequency><Timestamp dt:dt=""r8"">597354907372</Timestamp><Current dt:dt=""r8"">0</Current><DateUtc dt:dt=""string"">2015-03-06T18:59:50Z</DateUtc></FrequencyChange></FrequencyChanges></Clock>\n"	Arrow Flanker 2014-12095-1	60.019	1.0.0.86	1	354987616	Professional	2.0.10.353	2.0.10.353	03-06-2015	3/6/2015 6:59:50 PM	13:59:50	2.0.10.248	3	1	1	1	NA	NA	NA	NA	NA	NA	NA	NA	NA	NA	NA	NA	NA	NA	NA	NA	NA	NA	NA	NA	NA	NA	NA	NA	BlockProc	BlockList	NA	7	{RIGHTARROW}	NA	-100	1198	congruent	NA	NA	NA	NA	NA	NA	NA	NA	NA	NA	NA	NA	NA	NA	NA	NA	NA	NA	NA	NA	NA	NA	TrialProc	TrialList	0	7	159315	16	0	16	157415	1033	1	{RIGHTARROW}	-999999	0	158948	0	{RIGHTARROW}	360	159308	NA	NA	right	rrrrr.bmp	354	0	NA	0	0	0	0	NA	0	0	0	NA	0	0	0	0	NA	0	0	2	1	7
Arrow Flanker 2014	12095	1	"<?xml version=""1.0""?>\n<Clock xmlns:dt=""urn:schemas-microsoft-com:datatypes""><Description dt:dt=""string"">E-Prime Primary Realtime Clock</Description><StartTime><Timestamp dt:dt=""int"">0</Timestamp><DateUtc dt:dt=""string"">2015-03-06T18:59:50Z</DateUtc></StartTime><FrequencyChanges><FrequencyChange><Frequency dt:dt=""r8"">2825703</Frequency><Timestamp dt:dt=""r8"">597354907372</Timestamp><Current dt:dt=""r8"">0</Current><DateUtc dt:dt=""string"">2015-03-06T18:59:50Z</DateUtc></FrequencyChange></FrequencyChanges></Clock>\n"	Arrow Flanker 2014-12095-1	60.019	1.0.0.86	1	354987616	Professional	2.0.10.353	2.0.10.353	03-06-2015	3/6/2015 6:59:50 PM	13:59:50	2.0.10.248	3	1	1	1	NA	NA	NA	NA	NA	NA	NA	NA	NA	NA	NA	NA	NA	NA	NA	NA	NA	NA	NA	NA	NA	NA	NA	NA	BlockProc	BlockList	NA	8	{LEFTARROW}	NA	-100	2313	neutral	NA	NA	NA	NA	NA	NA	NA	NA	NA	NA	NA	NA	NA	NA	NA	NA	NA	NA	NA	NA	NA	NA	TrialProc	TrialList	0	17	161981	16	0	17	159848	1216	1	{LEFTARROW}	-999999	0	161564	0	{LEFTARROW}	400	161964	NA	NA	left	ooloo.bmp	354	0	NA	0	0	0	0	NA	0	0	0	NA	0	0	0	0	NA	0	0	5	1	8
Arrow Flanker 2014	12095	1	"<?xml version=""1.0""?>\n<Clock xmlns:dt=""urn:schemas-microsoft-com:datatypes""><Description dt:dt=""string"">E-Prime Primary Realtime Clock</Description><StartTime><Timestamp dt:dt=""int"">0</Timestamp><DateUtc dt:dt=""string"">2015-03-06T18:59:50Z</DateUtc></StartTime><FrequencyChanges><FrequencyChange><Frequency dt:dt=""r8"">2825703</Frequency><Timestamp dt:dt=""r8"">597354907372</Timestamp><Current dt:dt=""r8"">0</Current><DateUtc dt:dt=""string"">2015-03-06T18:59:50Z</DateUtc></FrequencyChange></FrequencyChanges></Clock>\n"	Arrow Flanker 2014-12095-1	60.019	1.0.0.86	1	354987616	Professional	2.0.10.353	2.0.10.353	03-06-2015	3/6/2015 6:59:50 PM	13:59:50	2.0.10.248	3	1	1	1	NA	NA	NA	NA	NA	NA	NA	NA	NA	NA	NA	NA	NA	NA	NA	NA	NA	NA	NA	NA	NA	NA	NA	NA	BlockProc	BlockList	NA	9	{LEFTARROW}	NA	-100	1566	congruent	NA	NA	NA	NA	NA	NA	NA	NA	NA	NA	NA	NA	NA	NA	NA	NA	NA	NA	NA	NA	NA	NA	TrialProc	TrialList	1	18	164646	17	0	17	162514	1099	1	{LEFTARROW}	-999999	0	164113	0	{LEFTARROW}	515	164628	NA	NA	left	lllll.bmp	354	0	NA	0	0	0	0	NA	0	0	0	NA	0	0	0	0	NA	0	0	1	1	9
Arrow Flanker 2014	12095	1	"<?xml version=""1.0""?>\n<Clock xmlns:dt=""urn:schemas-microsoft-com:datatypes""><Description dt:dt=""string"">E-Prime Primary Realtime Clock</Description><StartTime><Timestamp dt:dt=""int"">0</Timestamp><DateUtc dt:dt=""string"">2015-03-06T18:59:50Z</DateUtc></StartTime><FrequencyChanges><FrequencyChange><Frequency dt:dt=""r8"">2825703</Frequency><Timestamp dt:dt=""r8"">597354907372</Timestamp><Current dt:dt=""r8"">0</Current><DateUtc dt:dt=""string"">2015-03-06T18:59:50Z</DateUtc></FrequencyChange></FrequencyChanges></Clock>\n"	Arrow Flanker 2014-12095-1	60.019	1.0.0.86	1	354987616	Professional	2.0.10.353	2.0.10.353	03-06-2015	3/6/2015 6:59:50 PM	13:59:50	2.0.10.248	3	1	1	1	NA	NA	NA	NA	NA	NA	NA	NA	NA	NA	NA	NA	NA	NA	NA	NA	NA	NA	NA	NA	NA	NA	NA	NA	BlockProc	BlockList	NA	10	{RIGHTARROW}	NA	-100	1918	incongruent	NA	NA	NA	NA	NA	NA	NA	NA	NA	NA	NA	NA	NA	NA	NA	NA	NA	NA	NA	NA	NA	NA	TrialProc	TrialList	1	16	167012	17	0	17	165180	733	1	{RIGHTARROW}	-999999	16	166429	0	{RIGHTARROW}	566	166995	NA	NA	right	llrll.bmp	354	0	NA	0	0	0	0	NA	0	0	0	NA	0	0	0	0	NA	0	0	4	1	10
Arrow Flanker 2014	12095	1	"<?xml version=""1.0""?>\n<Clock xmlns:dt=""urn:schemas-microsoft-com:datatypes""><Description dt:dt=""string"">E-Prime Primary Realtime Clock</Description><StartTime><Timestamp dt:dt=""int"">0</Timestamp><DateUtc dt:dt=""string"">2015-03-06T18:59:50Z</DateUtc></StartTime><FrequencyChanges><FrequencyChange><Frequency dt:dt=""r8"">2825703</Frequency><Timestamp dt:dt=""r8"">597354907372</Timestamp><Current dt:dt=""r8"">0</Current><DateUtc dt:dt=""string"">2015-03-06T18:59:50Z</DateUtc></FrequencyChange></FrequencyChanges></Clock>\n"	Arrow Flanker 2014-12095-1	60.019	1.0.0.86	1	354987616	Professional	2.0.10.353	2.0.10.353	03-06-2015	3/6/2015 6:59:50 PM	13:59:50	2.0.10.248	3	1	1	1	NA	NA	NA	NA	NA	NA	NA	NA	NA	NA	NA	NA	NA	NA	NA	NA	NA	NA	NA	NA	NA	NA	NA	NA	BlockProc	BlockList	NA	11	{RIGHTARROW}	NA	-100	923	congruent	NA	NA	NA	NA	NA	NA	NA	NA	NA	NA	NA	NA	NA	NA	NA	NA	NA	NA	NA	NA	NA	NA	TrialProc	TrialList	0	13	169112	16	0	16	167545	617	1	{RIGHTARROW}	-999999	0	168662	0	{RIGHTARROW}	437	169099	NA	NA	right	rrrrr.bmp	354	0	NA	0	0	0	0	NA	0	0	0	NA	0	0	0	0	NA	0	0	2	1	11
Arrow Flanker 2014	12095	1	"<?xml version=""1.0""?>\n<Clock xmlns:dt=""urn:schemas-microsoft-com:datatypes""><Description dt:dt=""string"">E-Prime Primary Realtime Clock</Description><StartTime><Timestamp dt:dt=""int"">0</Timestamp><DateUtc dt:dt=""string"">2015-03-06T18:59:50Z</DateUtc></StartTime><FrequencyChanges><FrequencyChange><Frequency dt:dt=""r8"">2825703</Frequency><Timestamp dt:dt=""r8"">597354907372</Timestamp><Current dt:dt=""r8"">0</Current><DateUtc dt:dt=""string"">2015-03-06T18:59:50Z</DateUtc></FrequencyChange></FrequencyChanges></Clock>\n"	Arrow Flanker 2014-12095-1	60.019	1.0.0.86	1	354987616	Professional	2.0.10.353	2.0.10.353	03-06-2015	3/6/2015 6:59:50 PM	13:59:50	2.0.10.248	3	1	1	1	NA	NA	NA	NA	NA	NA	NA	NA	NA	NA	NA	NA	NA	NA	NA	NA	NA	NA	NA	NA	NA	NA	NA	NA	BlockProc	BlockList	NA	12	{LEFTARROW}	NA	-100	1337	neutral	NA	NA	NA	NA	NA	NA	NA	NA	NA	NA	NA	NA	NA	NA	NA	NA	NA	NA	NA	NA	NA	NA	TrialProc	TrialList	1	7	171194	17	0	17	169645	666	1	{LEFTARROW}	-999999	0	170811	0	{LEFTARROW}	376	171187	NA	NA	left	ooloo.bmp	354	0	NA	0	0	0	0	NA	0	0	0	NA	0	0	0	0	NA	0	0	5	1	12
Arrow Flanker 2014	12095	1	"<?xml version=""1.0""?>\n<Clock xmlns:dt=""urn:schemas-microsoft-com:datatypes""><Description dt:dt=""string"">E-Prime Primary Realtime Clock</Description><StartTime><Timestamp dt:dt=""int"">0</Timestamp><DateUtc dt:dt=""string"">2015-03-06T18:59:50Z</DateUtc></StartTime><FrequencyChanges><FrequencyChange><Frequency dt:dt=""r8"">2825703</Frequency><Timestamp dt:dt=""r8"">597354907372</Timestamp><Current dt:dt=""r8"">0</Current><DateUtc dt:dt=""string"">2015-03-06T18:59:50Z</DateUtc></FrequencyChange></FrequencyChanges></Clock>\n"	Arrow Flanker 2014-12095-1	60.019	1.0.0.86	1	354987616	Professional	2.0.10.353	2.0.10.353	03-06-2015	3/6/2015 6:59:50 PM	13:59:50	2.0.10.248	3	1	1	1	NA	NA	NA	NA	NA	NA	NA	NA	NA	NA	NA	NA	NA	NA	NA	NA	NA	NA	NA	NA	NA	NA	NA	NA	BlockProc	BlockList	NA	13	{LEFTARROW}	NA	-100	1282	congruent	NA	NA	NA	NA	NA	NA	NA	NA	NA	NA	NA	NA	NA	NA	NA	NA	NA	NA	NA	NA	NA	NA	TrialProc	TrialList	1	17	173060	17	0	16	171727	417	1	{LEFTARROW}	-999999	0	172644	0	{LEFTARROW}	399	173043	NA	NA	left	lllll.bmp	354	0	NA	0	0	0	0	NA	0	0	0	NA	0	0	0	0	NA	0	0	1	1	13
Arrow Flanker 2014	12095	1	"<?xml version=""1.0""?>\n<Clock xmlns:dt=""urn:schemas-microsoft-com:datatypes""><Description dt:dt=""string"">E-Prime Primary Realtime Clock</Description><StartTime><Timestamp dt:dt=""int"">0</Timestamp><DateUtc dt:dt=""string"">2015-03-06T18:59:50Z</DateUtc></StartTime><FrequencyChanges><FrequencyChange><Frequency dt:dt=""r8"">2825703</Frequency><Timestamp dt:dt=""r8"">597354907372</Timestamp><Current dt:dt=""r8"">0</Current><DateUtc dt:dt=""string"">2015-03-06T18:59:50Z</DateUtc></FrequencyChange></FrequencyChanges></Clock>\n"	Arrow Flanker 2014-12095-1	60.019	1.0.0.86	1	354987616	Professional	2.0.10.353	2.0.10.353	03-06-2015	3/6/2015 6:59:50 PM	13:59:50	2.0.10.248	3	1	1	1	NA	NA	NA	NA	NA	NA	NA	NA	NA	NA	NA	NA	NA	NA	NA	NA	NA	NA	NA	NA	NA	NA	NA	NA	BlockProc	BlockList	NA	14	{LEFTARROW}	NA	-100	2091	incongruent	NA	NA	NA	NA	NA	NA	NA	NA	NA	NA	NA	NA	NA	NA	NA	NA	NA	NA	NA	NA	NA	NA	TrialProc	TrialList	1	14	176209	17	0	17	173594	1532	1	{LEFTARROW}	-999999	0	175626	0	{LEFTARROW}	569	176195	NA	NA	left	rrlrr.bmp	354	0	NA	0	0	0	0	NA	0	0	0	NA	0	0	0	0	NA	0	0	3	1	14
Arrow Flanker 2014	12095	1	"<?xml version=""1.0""?>\n<Clock xmlns:dt=""urn:schemas-microsoft-com:datatypes""><Description dt:dt=""string"">E-Prime Primary Realtime Clock</Description><StartTime><Timestamp dt:dt=""int"">0</Timestamp><DateUtc dt:dt=""string"">2015-03-06T18:59:50Z</DateUtc></StartTime><FrequencyChanges><FrequencyChange><Frequency dt:dt=""r8"">2825703</Frequency><Timestamp dt:dt=""r8"">597354907372</Timestamp><Current dt:dt=""r8"">0</Current><DateUtc dt:dt=""string"">2015-03-06T18:59:50Z</DateUtc></FrequencyChange></FrequencyChanges></Clock>\n"	Arrow Flanker 2014-12095-1	60.019	1.0.0.86	1	354987616	Professional	2.0.10.353	2.0.10.353	03-06-2015	3/6/2015 6:59:50 PM	13:59:50	2.0.10.248	3	1	1	1	NA	NA	NA	NA	NA	NA	NA	NA	NA	NA	NA	NA	NA	NA	NA	NA	NA	NA	NA	NA	NA	NA	NA	NA	BlockProc	BlockList	NA	15	{LEFTARROW}	NA	-100	1609	incongruent	NA	NA	NA	NA	NA	NA	NA	NA	NA	NA	NA	NA	NA	NA	NA	NA	NA	NA	NA	NA	NA	NA	TrialProc	TrialList	1	20	178375	17	0	17	176743	649	1	{LEFTARROW}	-999999	0	177892	0	{LEFTARROW}	463	178355	NA	NA	left	rrlrr.bmp	354	0	NA	0	0	0	0	NA	0	0	0	NA	0	0	0	0	NA	0	0	3	1	15
Arrow Flanker 2014	12095	1	"<?xml version=""1.0""?>\n<Clock xmlns:dt=""urn:schemas-microsoft-com:datatypes""><Description dt:dt=""string"">E-Prime Primary Realtime Clock</Description><StartTime><Timestamp dt:dt=""int"">0</Timestamp><DateUtc dt:dt=""string"">2015-03-06T18:59:50Z</DateUtc></StartTime><FrequencyChanges><FrequencyChange><Frequency dt:dt=""r8"">2825703</Frequency><Timestamp dt:dt=""r8"">597354907372</Timestamp><Current dt:dt=""r8"">0</Current><DateUtc dt:dt=""string"">2015-03-06T18:59:50Z</DateUtc></FrequencyChange></FrequencyChanges></Clock>\n"	Arrow Flanker 2014-12095-1	60.019	1.0.0.86	1	354987616	Professional	2.0.10.353	2.0.10.353	03-06-2015	3/6/2015 6:59:50 PM	13:59:50	2.0.10.248	3	1	1	1	NA	NA	NA	NA	NA	NA	NA	NA	NA	NA	NA	NA	NA	NA	NA	NA	NA	NA	NA	NA	NA	NA	NA	NA	BlockProc	BlockList	NA	16	{RIGHTARROW}	NA	-100	1527	incongruent	NA	NA	NA	NA	NA	NA	NA	NA	NA	NA	NA	NA	NA	NA	NA	NA	NA	NA	NA	NA	NA	NA	TrialProc	TrialList	1	12	181191	17	0	17	178909	1182	1	{RIGHTARROW}	-999999	16	180608	0	{RIGHTARROW}	570	181178	NA	NA	right	llrll.bmp	354	0	NA	0	0	0	0	NA	0	0	0	NA	0	0	0	0	NA	0	0	4	1	16
Arrow Flanker 2014	12095	1	"<?xml version=""1.0""?>\n<Clock xmlns:dt=""urn:schemas-microsoft-com:datatypes""><Description dt:dt=""string"">E-Prime Primary Realtime Clock</Description><StartTime><Timestamp dt:dt=""int"">0</Timestamp><DateUtc dt:dt=""string"">2015-03-06T18:59:50Z</DateUtc></StartTime><FrequencyChanges><FrequencyChange><Frequency dt:dt=""r8"">2825703</Frequency><Timestamp dt:dt=""r8"">597354907372</Timestamp><Current dt:dt=""r8"">0</Current><DateUtc dt:dt=""string"">2015-03-06T18:59:50Z</DateUtc></FrequencyChange></FrequencyChanges></Clock>\n"	Arrow Flanker 2014-12095-1	60.019	1.0.0.86	1	354987616	Professional	2.0.10.353	2.0.10.353	03-06-2015	3/6/2015 6:59:50 PM	13:59:50	2.0.10.248	3	1	1	1	NA	NA	NA	NA	NA	NA	NA	NA	NA	NA	NA	NA	NA	NA	NA	NA	NA	NA	NA	NA	NA	NA	NA	NA	BlockProc	BlockList	NA	17	{RIGHTARROW}	NA	-100	1102	congruent	NA	NA	NA	NA	NA	NA	NA	NA	NA	NA	NA	NA	NA	NA	NA	NA	NA	NA	NA	NA	NA	NA	TrialProc	TrialList	1	6	183240	17	0	16	181724	517	1	{RIGHTARROW}	-999999	0	182741	0	{RIGHTARROW}	493	183234	NA	NA	right	rrrrr.bmp	354	0	NA	0	0	0	0	NA	0	0	0	NA	0	0	0	0	NA	0	0	2	1	17
Arrow Flanker 2014	12095	1	"<?xml version=""1.0""?>\n<Clock xmlns:dt=""urn:schemas-microsoft-com:datatypes""><Description dt:dt=""string"">E-Prime Primary Realtime Clock</Description><StartTime><Timestamp dt:dt=""int"">0</Timestamp><DateUtc dt:dt=""string"">2015-03-06T18:59:50Z</DateUtc></StartTime><FrequencyChanges><FrequencyChange><Frequency dt:dt=""r8"">2825703</Frequency><Timestamp dt:dt=""r8"">597354907372</Timestamp><Current dt:dt=""r8"">0</Current><DateUtc dt:dt=""string"">2015-03-06T18:59:50Z</DateUtc></FrequencyChange></FrequencyChanges></Clock>\n"	Arrow Flanker 2014-12095-1	60.019	1.0.0.86	1	354987616	Professional	2.0.10.353	2.0.10.353	03-06-2015	3/6/2015 6:59:50 PM	13:59:50	2.0.10.248	3	1	1	1	NA	NA	NA	NA	NA	NA	NA	NA	NA	NA	NA	NA	NA	NA	NA	NA	NA	NA	NA	NA	NA	NA	NA	NA	BlockProc	BlockList	NA	18	{LEFTARROW}	NA	-100	1595	incongruent	NA	NA	NA	NA	NA	NA	NA	NA	NA	NA	NA	NA	NA	NA	NA	NA	NA	NA	NA	NA	NA	NA	TrialProc	TrialList	0	14	185640	16	0	17	183774	683	1	{LEFTARROW}	-999999	0	184957	0	{LEFTARROW}	669	185626	NA	NA	left	rrlrr.bmp	354	0	NA	0	0	0	0	NA	0	0	0	NA	0	0	0	0	NA	0	0	3	1	18
Arrow Flanker 2014	12095	1	"<?xml version=""1.0""?>\n<Clock xmlns:dt=""urn:schemas-microsoft-com:datatypes""><Description dt:dt=""string"">E-Prime Primary Realtime Clock</Description><StartTime><Timestamp dt:dt=""int"">0</Timestamp><DateUtc dt:dt=""string"">2015-03-06T18:59:50Z</DateUtc></StartTime><FrequencyChanges><FrequencyChange><Frequency dt:dt=""r8"">2825703</Frequency><Timestamp dt:dt=""r8"">597354907372</Timestamp><Current dt:dt=""r8"">0</Current><DateUtc dt:dt=""string"">2015-03-06T18:59:50Z</DateUtc></FrequencyChange></FrequencyChanges></Clock>\n"	Arrow Flanker 2014-12095-1	60.019	1.0.0.86	1	354987616	Professional	2.0.10.353	2.0.10.353	03-06-2015	3/6/2015 6:59:50 PM	13:59:50	2.0.10.248	3	1	1	1	NA	NA	NA	NA	NA	NA	NA	NA	NA	NA	NA	NA	NA	NA	NA	NA	NA	NA	NA	NA	NA	NA	NA	NA	BlockProc	BlockList	NA	19	{RIGHTARROW}	NA	-100	896	congruent	NA	NA	NA	NA	NA	NA	NA	NA	NA	NA	NA	NA	NA	NA	NA	NA	NA	NA	NA	NA	NA	NA	TrialProc	TrialList	1	13	187639	17	0	17	186173	583	1	{RIGHTARROW}	-999999	0	187256	0	{RIGHTARROW}	370	187626	NA	NA	right	rrrrr.bmp	354	0	NA	0	0	0	0	NA	0	0	0	NA	0	0	0	0	NA	0	0	2	1	19
Arrow Flanker 2014	12095	1	"<?xml version=""1.0""?>\n<Clock xmlns:dt=""urn:schemas-microsoft-com:datatypes""><Description dt:dt=""string"">E-Prime Primary Realtime Clock</Description><StartTime><Timestamp dt:dt=""int"">0</Timestamp><DateUtc dt:dt=""string"">2015-03-06T18:59:50Z</DateUtc></StartTime><FrequencyChanges><FrequencyChange><Frequency dt:dt=""r8"">2825703</Frequency><Timestamp dt:dt=""r8"">597354907372</Timestamp><Current dt:dt=""r8"">0</Current><DateUtc dt:dt=""string"">2015-03-06T18:59:50Z</DateUtc></FrequencyChange></FrequencyChanges></Clock>\n"	Arrow Flanker 2014-12095-1	60.019	1.0.0.86	1	354987616	Professional	2.0.10.353	2.0.10.353	03-06-2015	3/6/2015 6:59:50 PM	13:59:50	2.0.10.248	3	1	1	1	NA	NA	NA	NA	NA	NA	NA	NA	NA	NA	NA	NA	NA	NA	NA	NA	NA	NA	NA	NA	NA	NA	NA	NA	BlockProc	BlockList	NA	20	{LEFTARROW}	NA	-100	1123	congruent	NA	NA	NA	NA	NA	NA	NA	NA	NA	NA	NA	NA	NA	NA	NA	NA	NA	NA	NA	NA	NA	NA	TrialProc	TrialList	1	14	189888	17	0	16	188172	817	1	{LEFTARROW}	-999999	0	189489	0	{LEFTARROW}	385	189874	NA	NA	left	lllll.bmp	354	0	NA	0	0	0	0	NA	0	0	0	NA	0	0	0	0	NA	0	0	1	1	20
Arrow Flanker 2014	12095	1	"<?xml version=""1.0""?>\n<Clock xmlns:dt=""urn:schemas-microsoft-com:datatypes""><Description dt:dt=""string"">E-Prime Primary Realtime Clock</Description><StartTime><Timestamp dt:dt=""int"">0</Timestamp><DateUtc dt:dt=""string"">2015-03-06T18:59:50Z</DateUtc></StartTime><FrequencyChanges><FrequencyChange><Frequency dt:dt=""r8"">2825703</Frequency><Timestamp dt:dt=""r8"">597354907372</Timestamp><Current dt:dt=""r8"">0</Current><DateUtc dt:dt=""string"">2015-03-06T18:59:50Z</DateUtc></FrequencyChange></FrequencyChanges></Clock>\n"	Arrow Flanker 2014-12095-1	60.019	1.0.0.86	1	354987616	Professional	2.0.10.353	2.0.10.353	03-06-2015	3/6/2015 6:59:50 PM	13:59:50	2.0.10.248	3	1	1	1	NA	NA	NA	NA	NA	NA	NA	NA	NA	NA	NA	NA	NA	NA	NA	NA	NA	NA	NA	NA	NA	NA	NA	NA	BlockProc	BlockList	NA	21	{RIGHTARROW}	NA	-100	1092	neutral	NA	NA	NA	NA	NA	NA	NA	NA	NA	NA	NA	NA	NA	NA	NA	NA	NA	NA	NA	NA	NA	NA	TrialProc	TrialList	0	11	192021	17	0	17	190422	616	1	{RIGHTARROW}	-999999	0	191538	0	{RIGHTARROW}	471	192009	NA	NA	right	ooroo.bmp	354	0	NA	0	0	0	0	NA	0	0	0	NA	0	0	0	0	NA	0	0	6	1	21
Arrow Flanker 2014	12095	1	"<?xml version=""1.0""?>\n<Clock xmlns:dt=""urn:schemas-microsoft-com:datatypes""><Description dt:dt=""string"">E-Prime Primary Realtime Clock</Description><StartTime><Timestamp dt:dt=""int"">0</Timestamp><DateUtc dt:dt=""string"">2015-03-06T18:59:50Z</DateUtc></StartTime><FrequencyChanges><FrequencyChange><Frequency dt:dt=""r8"">2825703</Frequency><Timestamp dt:dt=""r8"">597354907372</Timestamp><Current dt:dt=""r8"">0</Current><DateUtc dt:dt=""string"">2015-03-06T18:59:50Z</DateUtc></FrequencyChange></FrequencyChanges></Clock>\n"	Arrow Flanker 2014-12095-1	60.019	1.0.0.86	1	354987616	Professional	2.0.10.353	2.0.10.353	03-06-2015	3/6/2015 6:59:50 PM	13:59:50	2.0.10.248	3	1	1	1	NA	NA	NA	NA	NA	NA	NA	NA	NA	NA	NA	NA	NA	NA	NA	NA	NA	NA	NA	NA	NA	NA	NA	NA	BlockProc	BlockList	NA	22	{LEFTARROW}	NA	-100	2105	congruent	NA	NA	NA	NA	NA	NA	NA	NA	NA	NA	NA	NA	NA	NA	NA	NA	NA	NA	NA	NA	4	1	TrialProc	TrialList	1	7	194520	17	0	16	192554	1000	1	{LEFTARROW}	-999999	0	194054	0	{LEFTARROW}	459	194513	NA	NA	left	lllll.bmp	354	0	NA	-999999	16	195053	0	1	5232	200285	0	NA	-999999	16	200302	0	1	3487	203789	1	1	22
Arrow Flanker 2014	12095	1	"<?xml version=""1.0""?>\n<Clock xmlns:dt=""urn:schemas-microsoft-com:datatypes""><Description dt:dt=""string"">E-Prime Primary Realtime Clock</Description><StartTime><Timestamp dt:dt=""int"">0</Timestamp><DateUtc dt:dt=""string"">2015-03-06T18:59:50Z</DateUtc></StartTime><FrequencyChanges><FrequencyChange><Frequency dt:dt=""r8"">2825703</Frequency><Timestamp dt:dt=""r8"">597354907372</Timestamp><Current dt:dt=""r8"">0</Current><DateUtc dt:dt=""string"">2015-03-06T18:59:50Z</DateUtc></FrequencyChange></FrequencyChanges></Clock>\n"	Arrow Flanker 2014-12095-1	60.019	1.0.0.86	1	354987616	Professional	2.0.10.353	2.0.10.353	03-06-2015	3/6/2015 6:59:50 PM	13:59:50	2.0.10.248	3	1	1	1	NA	NA	NA	NA	NA	NA	NA	NA	NA	NA	NA	NA	NA	NA	NA	NA	NA	NA	NA	NA	NA	NA	NA	NA	BlockProc	BlockList	NA	23	{RIGHTARROW}	NA	-100	607	neutral	NA	NA	NA	NA	NA	NA	NA	NA	NA	NA	NA	NA	NA	NA	NA	NA	NA	NA	NA	NA	NA	NA	TrialProc	TrialList	0	11	206900	16	0	13	205350	500	1	{RIGHTARROW}	-999999	0	206350	0	{RIGHTARROW}	538	206888	NA	NA	right	ooroo.bmp	354	0	NA	0	0	0	0	NA	0	0	0	NA	0	0	0	0	NA	0	0	6	1	23
Arrow Flanker 2014	12095	1	"<?xml version=""1.0""?>\n<Clock xmlns:dt=""urn:schemas-microsoft-com:datatypes""><Description dt:dt=""string"">E-Prime Primary Realtime Clock</Description><StartTime><Timestamp dt:dt=""int"">0</Timestamp><DateUtc dt:dt=""string"">2015-03-06T18:59:50Z</DateUtc></StartTime><FrequencyChanges><FrequencyChange><Frequency dt:dt=""r8"">2825703</Frequency><Timestamp dt:dt=""r8"">597354907372</Timestamp><Current dt:dt=""r8"">0</Current><DateUtc dt:dt=""string"">2015-03-06T18:59:50Z</DateUtc></FrequencyChange></FrequencyChanges></Clock>\n"	Arrow Flanker 2014-12095-1	60.019	1.0.0.86	1	354987616	Professional	2.0.10.353	2.0.10.353	03-06-2015	3/6/2015 6:59:50 PM	13:59:50	2.0.10.248	3	1	1	1	NA	NA	NA	NA	NA	NA	NA	NA	NA	NA	NA	NA	NA	NA	NA	NA	NA	NA	NA	NA	NA	NA	NA	NA	BlockProc	BlockList	NA	24	{RIGHTARROW}	NA	-100	1458	incongruent	NA	NA	NA	NA	NA	NA	NA	NA	NA	NA	NA	NA	NA	NA	NA	NA	NA	NA	NA	NA	NA	NA	TrialProc	TrialList	0	20	209716	16	0	17	207433	1266	1	{RIGHTARROW}	-999999	0	209199	0	{RIGHTARROW}	497	209696	NA	NA	right	llrll.bmp	354	0	NA	0	0	0	0	NA	0	0	0	NA	0	0	0	0	NA	0	0	4	1	24
Arrow Flanker 2014	12095	1	"<?xml version=""1.0""?>\n<Clock xmlns:dt=""urn:schemas-microsoft-com:datatypes""><Description dt:dt=""string"">E-Prime Primary Realtime Clock</Description><StartTime><Timestamp dt:dt=""int"">0</Timestamp><DateUtc dt:dt=""string"">2015-03-06T18:59:50Z</DateUtc></StartTime><FrequencyChanges><FrequencyChange><Frequency dt:dt=""r8"">2825703</Frequency><Timestamp dt:dt=""r8"">597354907372</Timestamp><Current dt:dt=""r8"">0</Current><DateUtc dt:dt=""string"">2015-03-06T18:59:50Z</DateUtc></FrequencyChange></FrequencyChanges></Clock>\n"	Arrow Flanker 2014-12095-1	60.019	1.0.0.86	1	354987616	Professional	2.0.10.353	2.0.10.353	03-06-2015	3/6/2015 6:59:50 PM	13:59:50	2.0.10.248	3	1	1	1	NA	NA	NA	NA	NA	NA	NA	NA	NA	NA	NA	NA	NA	NA	NA	NA	NA	NA	NA	NA	NA	NA	NA	NA	BlockProc	BlockList	NA	25	{RIGHTARROW}	NA	-100	2153	incongruent	NA	NA	NA	NA	NA	NA	NA	NA	NA	NA	NA	NA	NA	NA	NA	NA	NA	NA	NA	NA	NA	NA	TrialProc	TrialList	0	8	212648	17	0	17	210249	1416	1	{RIGHTARROW}	-999999	0	212165	0	{RIGHTARROW}	475	212640	NA	NA	right	llrll.bmp	354	0	NA	0	0	0	0	NA	0	0	0	NA	0	0	0	0	NA	0	0	4	1	25
Arrow Flanker 2014	12095	1	"<?xml version=""1.0""?>\n<Clock xmlns:dt=""urn:schemas-microsoft-com:datatypes""><Description dt:dt=""string"">E-Prime Primary Realtime Clock</Description><StartTime><Timestamp dt:dt=""int"">0</Timestamp><DateUtc dt:dt=""string"">2015-03-06T18:59:50Z</DateUtc></StartTime><FrequencyChanges><FrequencyChange><Frequency dt:dt=""r8"">2825703</Frequency><Timestamp dt:dt=""r8"">597354907372</Timestamp><Current dt:dt=""r8"">0</Current><DateUtc dt:dt=""string"">2015-03-06T18:59:50Z</DateUtc></FrequencyChange></FrequencyChanges></Clock>\n"	Arrow Flanker 2014-12095-1	60.019	1.0.0.86	1	354987616	Professional	2.0.10.353	2.0.10.353	03-06-2015	3/6/2015 6:59:50 PM	13:59:50	2.0.10.248	3	1	1	1	NA	NA	NA	NA	NA	NA	NA	NA	NA	NA	NA	NA	NA	NA	NA	NA	NA	NA	NA	NA	NA	NA	NA	NA	BlockProc	BlockList	NA	26	{LEFTARROW}	NA	-100	1841	neutral	NA	NA	NA	NA	NA	NA	NA	NA	NA	NA	NA	NA	NA	NA	NA	NA	NA	NA	NA	NA	NA	NA	TrialProc	TrialList	0	17	215081	16	0	16	213181	0	1	{LEFTARROW}	-999999	0	214581	0	{LEFTARROW}	483	215064	NA	NA	left	ooloo.bmp	354	0	NA	0	0	0	0	NA	0	0	0	NA	0	0	0	0	NA	0	0	5	1	26
Arrow Flanker 2014	12095	1	"<?xml version=""1.0""?>\n<Clock xmlns:dt=""urn:schemas-microsoft-com:datatypes""><Description dt:dt=""string"">E-Prime Primary Realtime Clock</Description><StartTime><Timestamp dt:dt=""int"">0</Timestamp><DateUtc dt:dt=""string"">2015-03-06T18:59:50Z</DateUtc></StartTime><FrequencyChanges><FrequencyChange><Frequency dt:dt=""r8"">2825703</Frequency><Timestamp dt:dt=""r8"">597354907372</Timestamp><Current dt:dt=""r8"">0</Current><DateUtc dt:dt=""string"">2015-03-06T18:59:50Z</DateUtc></FrequencyChange></FrequencyChanges></Clock>\n"	Arrow Flanker 2014-12095-1	60.019	1.0.0.86	1	354987616	Professional	2.0.10.353	2.0.10.353	03-06-2015	3/6/2015 6:59:50 PM	13:59:50	2.0.10.248	3	1	1	1	NA	NA	NA	NA	NA	NA	NA	NA	NA	NA	NA	NA	NA	NA	NA	NA	NA	NA	NA	NA	NA	NA	NA	NA	BlockProc	BlockList	NA	27	{LEFTARROW}	NA	-100	1846	neutral	NA	NA	NA	NA	NA	NA	NA	NA	NA	NA	NA	NA	NA	NA	NA	NA	NA	NA	NA	NA	NA	NA	TrialProc	TrialList	1	14	217846	17	0	17	215614	0	1	{LEFTARROW}	-999999	0	217463	0	{LEFTARROW}	369	217832	NA	NA	left	ooloo.bmp	354	0	NA	0	0	0	0	NA	0	0	0	NA	0	0	0	0	NA	0	0	5	1	27
Arrow Flanker 2014	12095	1	"<?xml version=""1.0""?>\n<Clock xmlns:dt=""urn:schemas-microsoft-com:datatypes""><Description dt:dt=""string"">E-Prime Primary Realtime Clock</Description><StartTime><Timestamp dt:dt=""int"">0</Timestamp><DateUtc dt:dt=""string"">2015-03-06T18:59:50Z</DateUtc></StartTime><FrequencyChanges><FrequencyChange><Frequency dt:dt=""r8"">2825703</Frequency><Timestamp dt:dt=""r8"">597354907372</Timestamp><Current dt:dt=""r8"">0</Current><DateUtc dt:dt=""string"">2015-03-06T18:59:50Z</DateUtc></FrequencyChange></FrequencyChanges></Clock>\n"	Arrow Flanker 2014-12095-1	60.019	1.0.0.86	1	354987616	Professional	2.0.10.353	2.0.10.353	03-06-2015	3/6/2015 6:59:50 PM	13:59:50	2.0.10.248	3	1	1	1	NA	NA	NA	NA	NA	NA	NA	NA	NA	NA	NA	NA	NA	NA	NA	NA	NA	NA	NA	NA	NA	NA	NA	NA	BlockProc	BlockList	NA	28	{LEFTARROW}	NA	-100	1174	neutral	NA	NA	NA	NA	NA	NA	NA	NA	NA	NA	NA	NA	NA	NA	NA	NA	NA	NA	NA	NA	NA	NA	TrialProc	TrialList	0	14	219846	16	0	17	218380	0	1	{LEFTARROW}	-999999	-1	219462	0	{LEFTARROW}	369	219831	NA	NA	left	ooloo.bmp	354	0	NA	0	0	0	0	NA	0	0	0	NA	0	0	0	0	NA	0	0	5	1	28
Arrow Flanker 2014	12095	1	"<?xml version=""1.0""?>\n<Clock xmlns:dt=""urn:schemas-microsoft-com:datatypes""><Description dt:dt=""string"">E-Prime Primary Realtime Clock</Description><StartTime><Timestamp dt:dt=""int"">0</Timestamp><DateUtc dt:dt=""string"">2015-03-06T18:59:50Z</DateUtc></StartTime><FrequencyChanges><FrequencyChange><Frequency dt:dt=""r8"">2825703</Frequency><Timestamp dt:dt=""r8"">597354907372</Timestamp><Current dt:dt=""r8"">0</Current><DateUtc dt:dt=""string"">2015-03-06T18:59:50Z</DateUtc></FrequencyChange></FrequencyChanges></Clock>\n"	Arrow Flanker 2014-12095-1	60.019	1.0.0.86	1	354987616	Professional	2.0.10.353	2.0.10.353	03-06-2015	3/6/2015 6:59:50 PM	13:59:50	2.0.10.248	3	1	1	1	NA	NA	NA	NA	NA	NA	NA	NA	NA	NA	NA	NA	NA	NA	NA	NA	NA	NA	NA	NA	NA	NA	NA	NA	BlockProc	BlockList	NA	29	{LEFTARROW}	NA	-100	2579	incongruent	NA	NA	NA	NA	NA	NA	NA	NA	NA	NA	NA	NA	NA	NA	NA	NA	NA	NA	NA	NA	NA	NA	TrialProc	TrialList	0	12	222995	16	0	17	220379	0	1	{LEFTARROW}	-999999	0	222478	0	{LEFTARROW}	505	222983	NA	NA	left	rrlrr.bmp	354	0	NA	0	0	0	0	NA	0	0	0	NA	0	0	0	0	NA	0	0	3	1	29
Arrow Flanker 2014	12095	1	"<?xml version=""1.0""?>\n<Clock xmlns:dt=""urn:schemas-microsoft-com:datatypes""><Description dt:dt=""string"">E-Prime Primary Realtime Clock</Description><StartTime><Timestamp dt:dt=""int"">0</Timestamp><DateUtc dt:dt=""string"">2015-03-06T18:59:50Z</DateUtc></StartTime><FrequencyChanges><FrequencyChange><Frequency dt:dt=""r8"">2825703</Frequency><Timestamp dt:dt=""r8"">597354907372</Timestamp><Current dt:dt=""r8"">0</Current><DateUtc dt:dt=""string"">2015-03-06T18:59:50Z</DateUtc></FrequencyChange></FrequencyChanges></Clock>\n"	Arrow Flanker 2014-12095-1	60.019	1.0.0.86	1	354987616	Professional	2.0.10.353	2.0.10.353	03-06-2015	3/6/2015 6:59:50 PM	13:59:50	2.0.10.248	3	1	1	1	NA	NA	NA	NA	NA	NA	NA	NA	NA	NA	NA	NA	NA	NA	NA	NA	NA	NA	NA	NA	NA	NA	NA	NA	BlockProc	BlockList	NA	30	{RIGHTARROW}	NA	-100	2668	incongruent	NA	NA	NA	NA	NA	NA	NA	NA	NA	NA	NA	NA	NA	NA	NA	NA	NA	NA	NA	NA	NA	NA	TrialProc	TrialList	0	17	226144	16	0	17	223528	0	1	{RIGHTARROW}	-999999	0	225644	0	{RIGHTARROW}	483	226127	NA	NA	right	llrll.bmp	354	0	NA	0	0	0	0	NA	0	0	0	NA	0	0	0	0	NA	0	0	4	1	30
Arrow Flanker 2014	12095	1	"<?xml version=""1.0""?>\n<Clock xmlns:dt=""urn:schemas-microsoft-com:datatypes""><Description dt:dt=""string"">E-Prime Primary Realtime Clock</Description><StartTime><Timestamp dt:dt=""int"">0</Timestamp><DateUtc dt:dt=""string"">2015-03-06T18:59:50Z</DateUtc></StartTime><FrequencyChanges><FrequencyChange><Frequency dt:dt=""r8"">2825703</Frequency><Timestamp dt:dt=""r8"">597354907372</Timestamp><Current dt:dt=""r8"">0</Current><DateUtc dt:dt=""string"">2015-03-06T18:59:50Z</DateUtc></FrequencyChange></FrequencyChanges></Clock>\n"	Arrow Flanker 2014-12095-1	60.019	1.0.0.86	1	354987616	Professional	2.0.10.353	2.0.10.353	03-06-2015	3/6/2015 6:59:50 PM	13:59:50	2.0.10.248	3	1	1	1	NA	NA	NA	NA	NA	NA	NA	NA	NA	NA	NA	NA	NA	NA	NA	NA	NA	NA	NA	NA	NA	NA	NA	NA	BlockProc	BlockList	NA	31	{LEFTARROW}	NA	-100	1727	incongruent	NA	NA	NA	NA	NA	NA	NA	NA	NA	NA	NA	NA	NA	NA	NA	NA	NA	NA	NA	NA	NA	NA	TrialProc	TrialList	1	11	228826	17	0	17	226677	0	1	{LEFTARROW}	-999999	0	228393	0	{LEFTARROW}	422	228815	NA	NA	left	rrlrr.bmp	354	0	NA	0	0	0	0	NA	0	0	0	NA	0	0	0	0	NA	0	0	3	1	31
Arrow Flanker 2014	12095	1	"<?xml version=""1.0""?>\n<Clock xmlns:dt=""urn:schemas-microsoft-com:datatypes""><Description dt:dt=""string"">E-Prime Primary Realtime Clock</Description><StartTime><Timestamp dt:dt=""int"">0</Timestamp><DateUtc dt:dt=""string"">2015-03-06T18:59:50Z</DateUtc></StartTime><FrequencyChanges><FrequencyChange><Frequency dt:dt=""r8"">2825703</Frequency><Timestamp dt:dt=""r8"">597354907372</Timestamp><Current dt:dt=""r8"">0</Current><DateUtc dt:dt=""string"">2015-03-06T18:59:50Z</DateUtc></FrequencyChange></FrequencyChanges></Clock>\n"	Arrow Flanker 2014-12095-1	60.019	1.0.0.86	1	354987616	Professional	2.0.10.353	2.0.10.353	03-06-2015	3/6/2015 6:59:50 PM	13:59:50	2.0.10.248	3	1	1	1	NA	NA	NA	NA	NA	NA	NA	NA	NA	NA	NA	NA	NA	NA	NA	NA	NA	NA	NA	NA	NA	NA	NA	NA	BlockProc	BlockList	NA	32	{RIGHTARROW}	NA	-100	566	incongruent	NA	NA	NA	NA	NA	NA	NA	NA	NA	NA	NA	NA	NA	NA	NA	NA	NA	NA	NA	NA	NA	NA	TrialProc	TrialList	0	6	231109	16	0	17	229360	0	1	{RIGHTARROW}	-999999	0	230409	0	{RIGHTARROW}	694	231103	NA	NA	right	llrll.bmp	354	0	NA	0	0	0	0	NA	0	0	0	NA	0	0	0	0	NA	0	0	4	1	32
Arrow Flanker 2014	12095	1	"<?xml version=""1.0""?>\n<Clock xmlns:dt=""urn:schemas-microsoft-com:datatypes""><Description dt:dt=""string"">E-Prime Primary Realtime Clock</Description><StartTime><Timestamp dt:dt=""int"">0</Timestamp><DateUtc dt:dt=""string"">2015-03-06T18:59:50Z</DateUtc></StartTime><FrequencyChanges><FrequencyChange><Frequency dt:dt=""r8"">2825703</Frequency><Timestamp dt:dt=""r8"">597354907372</Timestamp><Current dt:dt=""r8"">0</Current><DateUtc dt:dt=""string"">2015-03-06T18:59:50Z</DateUtc></FrequencyChange></FrequencyChanges></Clock>\n"	Arrow Flanker 2014-12095-1	60.019	1.0.0.86	1	354987616	Professional	2.0.10.353	2.0.10.353	03-06-2015	3/6/2015 6:59:50 PM	13:59:50	2.0.10.248	3	1	1	1	NA	NA	NA	NA	NA	NA	NA	NA	NA	NA	NA	NA	NA	NA	NA	NA	NA	NA	NA	NA	NA	NA	NA	NA	BlockProc	BlockList	NA	33	{RIGHTARROW}	NA	-100	1598	incongruent	NA	NA	NA	NA	NA	NA	NA	NA	NA	NA	NA	NA	NA	NA	NA	NA	NA	NA	NA	NA	NA	NA	TrialProc	TrialList	0	6	233725	16	0	17	231642	0	1	{RIGHTARROW}	-999999	0	233158	0	{RIGHTARROW}	560	233718	NA	NA	right	llrll.bmp	354	0	NA	0	0	0	0	NA	0	0	0	NA	0	0	0	0	NA	0	0	4	1	33
Arrow Flanker 2014	12095	1	"<?xml version=""1.0""?>\n<Clock xmlns:dt=""urn:schemas-microsoft-com:datatypes""><Description dt:dt=""string"">E-Prime Primary Realtime Clock</Description><StartTime><Timestamp dt:dt=""int"">0</Timestamp><DateUtc dt:dt=""string"">2015-03-06T18:59:50Z</DateUtc></StartTime><FrequencyChanges><FrequencyChange><Frequency dt:dt=""r8"">2825703</Frequency><Timestamp dt:dt=""r8"">597354907372</Timestamp><Current dt:dt=""r8"">0</Current><DateUtc dt:dt=""string"">2015-03-06T18:59:50Z</DateUtc></FrequencyChange></FrequencyChanges></Clock>\n"	Arrow Flanker 2014-12095-1	60.019	1.0.0.86	1	354987616	Professional	2.0.10.353	2.0.10.353	03-06-2015	3/6/2015 6:59:50 PM	13:59:50	2.0.10.248	3	1	1	1	NA	NA	NA	NA	NA	NA	NA	NA	NA	NA	NA	NA	NA	NA	NA	NA	NA	NA	NA	NA	NA	NA	NA	NA	BlockProc	BlockList	NA	34	{RIGHTARROW}	NA	-100	1629	neutral	NA	NA	NA	NA	NA	NA	NA	NA	NA	NA	NA	NA	NA	NA	NA	NA	NA	NA	NA	NA	NA	NA	TrialProc	TrialList	1	9	236407	17	0	17	234258	0	1	{RIGHTARROW}	-999999	0	235974	0	{RIGHTARROW}	424	236398	NA	NA	right	ooroo.bmp	354	0	NA	0	0	0	0	NA	0	0	0	NA	0	0	0	0	NA	0	0	6	1	34
Arrow Flanker 2014	12095	1	"<?xml version=""1.0""?>\n<Clock xmlns:dt=""urn:schemas-microsoft-com:datatypes""><Description dt:dt=""string"">E-Prime Primary Realtime Clock</Description><StartTime><Timestamp dt:dt=""int"">0</Timestamp><DateUtc dt:dt=""string"">2015-03-06T18:59:50Z</DateUtc></StartTime><FrequencyChanges><FrequencyChange><Frequency dt:dt=""r8"">2825703</Frequency><Timestamp dt:dt=""r8"">597354907372</Timestamp><Current dt:dt=""r8"">0</Current><DateUtc dt:dt=""string"">2015-03-06T18:59:50Z</DateUtc></FrequencyChange></FrequencyChanges></Clock>\n"	Arrow Flanker 2014-12095-1	60.019	1.0.0.86	1	354987616	Professional	2.0.10.353	2.0.10.353	03-06-2015	3/6/2015 6:59:50 PM	13:59:50	2.0.10.248	3	1	1	1	NA	NA	NA	NA	NA	NA	NA	NA	NA	NA	NA	NA	NA	NA	NA	NA	NA	NA	NA	NA	NA	NA	NA	NA	BlockProc	BlockList	NA	35	{LEFTARROW}	NA	-100	1199	incongruent	NA	NA	NA	NA	NA	NA	NA	NA	NA	NA	NA	NA	NA	NA	NA	NA	NA	NA	NA	NA	NA	NA	TrialProc	TrialList	0	20	238490	17	0	16	236940	0	1	{LEFTARROW}	-999999	0	237890	0	{LEFTARROW}	580	238470	NA	NA	left	rrlrr.bmp	354	0	NA	0	0	0	0	NA	0	0	0	NA	0	0	0	0	NA	0	0	3	1	35
Arrow Flanker 2014	12095	1	"<?xml version=""1.0""?>\n<Clock xmlns:dt=""urn:schemas-microsoft-com:datatypes""><Description dt:dt=""string"">E-Prime Primary Realtime Clock</Description><StartTime><Timestamp dt:dt=""int"">0</Timestamp><DateUtc dt:dt=""string"">2015-03-06T18:59:50Z</DateUtc></StartTime><FrequencyChanges><FrequencyChange><Frequency dt:dt=""r8"">2825703</Frequency><Timestamp dt:dt=""r8"">597354907372</Timestamp><Current dt:dt=""r8"">0</Current><DateUtc dt:dt=""string"">2015-03-06T18:59:50Z</DateUtc></FrequencyChange></FrequencyChanges></Clock>\n"	Arrow Flanker 2014-12095-1	60.019	1.0.0.86	1	354987616	Professional	2.0.10.353	2.0.10.353	03-06-2015	3/6/2015 6:59:50 PM	13:59:50	2.0.10.248	3	1	1	1	NA	NA	NA	NA	NA	NA	NA	NA	NA	NA	NA	NA	NA	NA	NA	NA	NA	NA	NA	NA	NA	NA	NA	NA	BlockProc	BlockList	NA	36	{LEFTARROW}	NA	-100	1274	congruent	NA	NA	NA	NA	NA	NA	NA	NA	NA	NA	NA	NA	NA	NA	NA	NA	NA	NA	NA	NA	NA	NA	TrialProc	TrialList	0	6	241156	16	0	16	239023	0	1	{LEFTARROW}	-999999	0	240639	0	{LEFTARROW}	511	241150	NA	NA	left	lllll.bmp	354	0	NA	0	0	0	0	NA	0	0	0	NA	0	0	0	0	NA	0	0	1	1	36
Arrow Flanker 2014	12095	1	"<?xml version=""1.0""?>\n<Clock xmlns:dt=""urn:schemas-microsoft-com:datatypes""><Description dt:dt=""string"">E-Prime Primary Realtime Clock</Description><StartTime><Timestamp dt:dt=""int"">0</Timestamp><DateUtc dt:dt=""string"">2015-03-06T18:59:50Z</DateUtc></StartTime><FrequencyChanges><FrequencyChange><Frequency dt:dt=""r8"">2825703</Frequency><Timestamp dt:dt=""r8"">597354907372</Timestamp><Current dt:dt=""r8"">0</Current><DateUtc dt:dt=""string"">2015-03-06T18:59:50Z</DateUtc></FrequencyChange></FrequencyChanges></Clock>\n"	Arrow Flanker 2014-12095-1	60.019	1.0.0.86	1	354987616	Professional	2.0.10.353	2.0.10.353	03-06-2015	3/6/2015 6:59:50 PM	13:59:50	2.0.10.248	3	1	1	1	NA	NA	NA	NA	NA	NA	NA	NA	NA	NA	NA	NA	NA	NA	NA	NA	NA	NA	NA	NA	NA	NA	NA	NA	BlockProc	BlockList	NA	37	{RIGHTARROW}	NA	-100	524	neutral	NA	NA	NA	NA	NA	NA	NA	NA	NA	NA	NA	NA	NA	NA	NA	NA	NA	NA	NA	NA	3	1	TrialProc	TrialList	0	11	243089	16	0	17	241689	0	1	{RIGHTARROW}	-999999	0	242655	0	{RIGHTARROW}	423	243078	NA	NA	right	ooroo.bmp	354	0	NA	-999999	17	243622	0	1	2876	246498	0	NA	-999999	23	246521	0	1	1633	248154	6	1	37
Arrow Flanker 2014	12095	1	"<?xml version=""1.0""?>\n<Clock xmlns:dt=""urn:schemas-microsoft-com:datatypes""><Description dt:dt=""string"">E-Prime Primary Realtime Clock</Description><StartTime><Timestamp dt:dt=""int"">0</Timestamp><DateUtc dt:dt=""string"">2015-03-06T18:59:50Z</DateUtc></StartTime><FrequencyChanges><FrequencyChange><Frequency dt:dt=""r8"">2825703</Frequency><Timestamp dt:dt=""r8"">597354907372</Timestamp><Current dt:dt=""r8"">0</Current><DateUtc dt:dt=""string"">2015-03-06T18:59:50Z</DateUtc></FrequencyChange></FrequencyChanges></Clock>\n"	Arrow Flanker 2014-12095-1	60.019	1.0.0.86	1	354987616	Professional	2.0.10.353	2.0.10.353	03-06-2015	3/6/2015 6:59:50 PM	13:59:50	2.0.10.248	3	1	1	1	NA	NA	NA	NA	NA	NA	NA	NA	NA	NA	NA	NA	NA	NA	NA	NA	NA	NA	NA	NA	NA	NA	NA	NA	BlockProc	BlockList	NA	38	{LEFTARROW}	NA	-100	2424	incongruent	NA	NA	NA	NA	NA	NA	NA	NA	NA	NA	NA	NA	NA	NA	NA	NA	NA	NA	NA	NA	NA	NA	TrialProc	TrialList	1	19	252152	17	0	23	249620	0	1	{LEFTARROW}	-999999	0	251519	0	{LEFTARROW}	614	252133	NA	NA	left	rrlrr.bmp	354	0	NA	0	0	0	0	NA	0	0	0	NA	0	0	0	0	NA	0	0	3	1	38
Arrow Flanker 2014	12095	1	"<?xml version=""1.0""?>\n<Clock xmlns:dt=""urn:schemas-microsoft-com:datatypes""><Description dt:dt=""string"">E-Prime Primary Realtime Clock</Description><StartTime><Timestamp dt:dt=""int"">0</Timestamp><DateUtc dt:dt=""string"">2015-03-06T18:59:50Z</DateUtc></StartTime><FrequencyChanges><FrequencyChange><Frequency dt:dt=""r8"">2825703</Frequency><Timestamp dt:dt=""r8"">597354907372</Timestamp><Current dt:dt=""r8"">0</Current><DateUtc dt:dt=""string"">2015-03-06T18:59:50Z</DateUtc></FrequencyChange></FrequencyChanges></Clock>\n"	Arrow Flanker 2014-12095-1	60.019	1.0.0.86	1	354987616	Professional	2.0.10.353	2.0.10.353	03-06-2015	3/6/2015 6:59:50 PM	13:59:50	2.0.10.248	3	1	1	1	NA	NA	NA	NA	NA	NA	NA	NA	NA	NA	NA	NA	NA	NA	NA	NA	NA	NA	NA	NA	NA	NA	NA	NA	BlockProc	BlockList	NA	39	{RIGHTARROW}	NA	-100	1583	incongruent	NA	NA	NA	NA	NA	NA	NA	NA	NA	NA	NA	NA	NA	NA	NA	NA	NA	NA	NA	NA	NA	NA	TrialProc	TrialList	0	7	254252	16	0	16	252685	0	1	{RIGHTARROW}	-999999	0	253702	0	{RIGHTARROW}	543	254245	NA	NA	right	llrll.bmp	354	0	NA	0	0	0	0	NA	0	0	0	NA	0	0	0	0	NA	0	0	4	1	39
Arrow Flanker 2014	12095	1	"<?xml version=""1.0""?>\n<Clock xmlns:dt=""urn:schemas-microsoft-com:datatypes""><Description dt:dt=""string"">E-Prime Primary Realtime Clock</Description><StartTime><Timestamp dt:dt=""int"">0</Timestamp><DateUtc dt:dt=""string"">2015-03-06T18:59:50Z</DateUtc></StartTime><FrequencyChanges><FrequencyChange><Frequency dt:dt=""r8"">2825703</Frequency><Timestamp dt:dt=""r8"">597354907372</Timestamp><Current dt:dt=""r8"">0</Current><DateUtc dt:dt=""string"">2015-03-06T18:59:50Z</DateUtc></FrequencyChange></FrequencyChanges></Clock>\n"	Arrow Flanker 2014-12095-1	60.019	1.0.0.86	1	354987616	Professional	2.0.10.353	2.0.10.353	03-06-2015	3/6/2015 6:59:50 PM	13:59:50	2.0.10.248	3	1	1	1	NA	NA	NA	NA	NA	NA	NA	NA	NA	NA	NA	NA	NA	NA	NA	NA	NA	NA	NA	NA	NA	NA	NA	NA	BlockProc	BlockList	NA	40	{LEFTARROW}	NA	-100	1195	congruent	NA	NA	NA	NA	NA	NA	NA	NA	NA	NA	NA	NA	NA	NA	NA	NA	NA	NA	NA	NA	NA	NA	TrialProc	TrialList	0	12	256201	17	0	17	254785	0	1	{LEFTARROW}	-999999	0	255718	0	{LEFTARROW}	471	256189	NA	NA	left	lllll.bmp	354	0	NA	0	0	0	0	NA	0	0	0	NA	0	0	0	0	NA	0	0	1	1	40
Arrow Flanker 2014	12095	1	"<?xml version=""1.0""?>\n<Clock xmlns:dt=""urn:schemas-microsoft-com:datatypes""><Description dt:dt=""string"">E-Prime Primary Realtime Clock</Description><StartTime><Timestamp dt:dt=""int"">0</Timestamp><DateUtc dt:dt=""string"">2015-03-06T18:59:50Z</DateUtc></StartTime><FrequencyChanges><FrequencyChange><Frequency dt:dt=""r8"">2825703</Frequency><Timestamp dt:dt=""r8"">597354907372</Timestamp><Current dt:dt=""r8"">0</Current><DateUtc dt:dt=""string"">2015-03-06T18:59:50Z</DateUtc></FrequencyChange></FrequencyChanges></Clock>\n"	Arrow Flanker 2014-12095-1	60.019	1.0.0.86	1	354987616	Professional	2.0.10.353	2.0.10.353	03-06-2015	3/6/2015 6:59:50 PM	13:59:50	2.0.10.248	3	1	1	1	NA	NA	NA	NA	NA	NA	NA	NA	NA	NA	NA	NA	NA	NA	NA	NA	NA	NA	NA	NA	NA	NA	NA	NA	BlockProc	BlockList	NA	41	{RIGHTARROW}	NA	-100	2188	congruent	NA	NA	NA	NA	NA	NA	NA	NA	NA	NA	NA	NA	NA	NA	NA	NA	NA	NA	NA	NA	NA	NA	TrialProc	TrialList	0	17	259150	17	0	16	256734	0	1	{RIGHTARROW}	-999999	0	258650	0	{RIGHTARROW}	482	259132	NA	NA	right	rrrrr.bmp	354	0	NA	0	0	0	0	NA	0	0	0	NA	0	0	0	0	NA	0	0	2	1	41
Arrow Flanker 2014	12095	1	"<?xml version=""1.0""?>\n<Clock xmlns:dt=""urn:schemas-microsoft-com:datatypes""><Description dt:dt=""string"">E-Prime Primary Realtime Clock</Description><StartTime><Timestamp dt:dt=""int"">0</Timestamp><DateUtc dt:dt=""string"">2015-03-06T18:59:50Z</DateUtc></StartTime><FrequencyChanges><FrequencyChange><Frequency dt:dt=""r8"">2825703</Frequency><Timestamp dt:dt=""r8"">597354907372</Timestamp><Current dt:dt=""r8"">0</Current><DateUtc dt:dt=""string"">2015-03-06T18:59:50Z</DateUtc></FrequencyChange></FrequencyChanges></Clock>\n"	Arrow Flanker 2014-12095-1	60.019	1.0.0.86	1	354987616	Professional	2.0.10.353	2.0.10.353	03-06-2015	3/6/2015 6:59:50 PM	13:59:50	2.0.10.248	3	1	1	1	NA	NA	NA	NA	NA	NA	NA	NA	NA	NA	NA	NA	NA	NA	NA	NA	NA	NA	NA	NA	NA	NA	NA	NA	BlockProc	BlockList	NA	42	{RIGHTARROW}	NA	-100	1673	neutral	NA	NA	NA	NA	NA	NA	NA	NA	NA	NA	NA	NA	NA	NA	NA	NA	NA	NA	NA	NA	NA	NA	TrialProc	TrialList	1	15	261899	17	0	16	259683	0	1	{RIGHTARROW}	-999999	16	261466	0	{RIGHTARROW}	418	261884	NA	NA	right	ooroo.bmp	354	0	NA	0	0	0	0	NA	0	0	0	NA	0	0	0	0	NA	0	0	6	1	42
Arrow Flanker 2014	12095	1	"<?xml version=""1.0""?>\n<Clock xmlns:dt=""urn:schemas-microsoft-com:datatypes""><Description dt:dt=""string"">E-Prime Primary Realtime Clock</Description><StartTime><Timestamp dt:dt=""int"">0</Timestamp><DateUtc dt:dt=""string"">2015-03-06T18:59:50Z</DateUtc></StartTime><FrequencyChanges><FrequencyChange><Frequency dt:dt=""r8"">2825703</Frequency><Timestamp dt:dt=""r8"">597354907372</Timestamp><Current dt:dt=""r8"">0</Current><DateUtc dt:dt=""string"">2015-03-06T18:59:50Z</DateUtc></FrequencyChange></FrequencyChanges></Clock>\n"	Arrow Flanker 2014-12095-1	60.019	1.0.0.86	1	354987616	Professional	2.0.10.353	2.0.10.353	03-06-2015	3/6/2015 6:59:50 PM	13:59:50	2.0.10.248	3	1	1	1	NA	NA	NA	NA	NA	NA	NA	NA	NA	NA	NA	NA	NA	NA	NA	NA	NA	NA	NA	NA	NA	NA	NA	NA	BlockProc	BlockList	NA	43	{RIGHTARROW}	NA	-100	1495	congruent	NA	NA	NA	NA	NA	NA	NA	NA	NA	NA	NA	NA	NA	NA	NA	NA	NA	NA	NA	NA	NA	NA	TrialProc	TrialList	1	19	263815	17	0	16	262432	0	1	{RIGHTARROW}	-999999	16	263382	0	{RIGHTARROW}	414	263796	NA	NA	right	rrrrr.bmp	354	0	NA	0	0	0	0	NA	0	0	0	NA	0	0	0	0	NA	0	0	2	1	43
Arrow Flanker 2014	12095	1	"<?xml version=""1.0""?>\n<Clock xmlns:dt=""urn:schemas-microsoft-com:datatypes""><Description dt:dt=""string"">E-Prime Primary Realtime Clock</Description><StartTime><Timestamp dt:dt=""int"">0</Timestamp><DateUtc dt:dt=""string"">2015-03-06T18:59:50Z</DateUtc></StartTime><FrequencyChanges><FrequencyChange><Frequency dt:dt=""r8"">2825703</Frequency><Timestamp dt:dt=""r8"">597354907372</Timestamp><Current dt:dt=""r8"">0</Current><DateUtc dt:dt=""string"">2015-03-06T18:59:50Z</DateUtc></FrequencyChange></FrequencyChanges></Clock>\n"	Arrow Flanker 2014-12095-1	60.019	1.0.0.86	1	354987616	Professional	2.0.10.353	2.0.10.353	03-06-2015	3/6/2015 6:59:50 PM	13:59:50	2.0.10.248	3	1	1	1	NA	NA	NA	NA	NA	NA	NA	NA	NA	NA	NA	NA	NA	NA	NA	NA	NA	NA	NA	NA	NA	NA	NA	NA	BlockProc	BlockList	NA	44	{LEFTARROW}	NA	-100	968	incongruent	NA	NA	NA	NA	NA	NA	NA	NA	NA	NA	NA	NA	NA	NA	NA	NA	NA	NA	NA	NA	NA	NA	TrialProc	TrialList	1	13	265881	17	0	16	264348	517	1	{LEFTARROW}	-999999	0	265365	0	{LEFTARROW}	503	265868	NA	NA	left	rrlrr.bmp	354	0	NA	0	0	0	0	NA	0	0	0	NA	0	0	0	0	NA	0	0	3	1	44
Arrow Flanker 2014	12095	1	"<?xml version=""1.0""?>\n<Clock xmlns:dt=""urn:schemas-microsoft-com:datatypes""><Description dt:dt=""string"">E-Prime Primary Realtime Clock</Description><StartTime><Timestamp dt:dt=""int"">0</Timestamp><DateUtc dt:dt=""string"">2015-03-06T18:59:50Z</DateUtc></StartTime><FrequencyChanges><FrequencyChange><Frequency dt:dt=""r8"">2825703</Frequency><Timestamp dt:dt=""r8"">597354907372</Timestamp><Current dt:dt=""r8"">0</Current><DateUtc dt:dt=""string"">2015-03-06T18:59:50Z</DateUtc></FrequencyChange></FrequencyChanges></Clock>\n"	Arrow Flanker 2014-12095-1	60.019	1.0.0.86	1	354987616	Professional	2.0.10.353	2.0.10.353	03-06-2015	3/6/2015 6:59:50 PM	13:59:50	2.0.10.248	3	1	1	1	NA	NA	NA	NA	NA	NA	NA	NA	NA	NA	NA	NA	NA	NA	NA	NA	NA	NA	NA	NA	NA	NA	NA	NA	BlockProc	BlockList	NA	45	{LEFTARROW}	NA	-100	970	neutral	NA	NA	NA	NA	NA	NA	NA	NA	NA	NA	NA	NA	NA	NA	NA	NA	NA	NA	NA	NA	NA	NA	TrialProc	TrialList	0	19	268031	16	0	16	266414	0	1	{LEFTARROW}	-999999	0	267614	0	{LEFTARROW}	398	268012	NA	NA	left	ooloo.bmp	354	0	NA	0	0	0	0	NA	0	0	0	NA	0	0	0	0	NA	0	0	5	1	45
Arrow Flanker 2014	12095	1	"<?xml version=""1.0""?>\n<Clock xmlns:dt=""urn:schemas-microsoft-com:datatypes""><Description dt:dt=""string"">E-Prime Primary Realtime Clock</Description><StartTime><Timestamp dt:dt=""int"">0</Timestamp><DateUtc dt:dt=""string"">2015-03-06T18:59:50Z</DateUtc></StartTime><FrequencyChanges><FrequencyChange><Frequency dt:dt=""r8"">2825703</Frequency><Timestamp dt:dt=""r8"">597354907372</Timestamp><Current dt:dt=""r8"">0</Current><DateUtc dt:dt=""string"">2015-03-06T18:59:50Z</DateUtc></FrequencyChange></FrequencyChanges></Clock>\n"	Arrow Flanker 2014-12095-1	60.019	1.0.0.86	1	354987616	Professional	2.0.10.353	2.0.10.353	03-06-2015	3/6/2015 6:59:50 PM	13:59:50	2.0.10.248	3	1	1	1	NA	NA	NA	NA	NA	NA	NA	NA	NA	NA	NA	NA	NA	NA	NA	NA	NA	NA	NA	NA	NA	NA	NA	NA	BlockProc	BlockList	NA	46	{LEFTARROW}	NA	-100	1471	incongruent	NA	NA	NA	NA	NA	NA	NA	NA	NA	NA	NA	NA	NA	NA	NA	NA	NA	NA	NA	NA	NA	NA	TrialProc	TrialList	1	5	270513	17	0	17	268564	0	1	{LEFTARROW}	-999999	0	269997	0	{LEFTARROW}	511	270508	NA	NA	left	rrlrr.bmp	354	0	NA	0	0	0	0	NA	0	0	0	NA	0	0	0	0	NA	0	0	3	1	46
Arrow Flanker 2014	12095	1	"<?xml version=""1.0""?>\n<Clock xmlns:dt=""urn:schemas-microsoft-com:datatypes""><Description dt:dt=""string"">E-Prime Primary Realtime Clock</Description><StartTime><Timestamp dt:dt=""int"">0</Timestamp><DateUtc dt:dt=""string"">2015-03-06T18:59:50Z</DateUtc></StartTime><FrequencyChanges><FrequencyChange><Frequency dt:dt=""r8"">2825703</Frequency><Timestamp dt:dt=""r8"">597354907372</Timestamp><Current dt:dt=""r8"">0</Current><DateUtc dt:dt=""string"">2015-03-06T18:59:50Z</DateUtc></FrequencyChange></FrequencyChanges></Clock>\n"	Arrow Flanker 2014-12095-1	60.019	1.0.0.86	1	354987616	Professional	2.0.10.353	2.0.10.353	03-06-2015	3/6/2015 6:59:50 PM	13:59:50	2.0.10.248	3	1	1	1	NA	NA	NA	NA	NA	NA	NA	NA	NA	NA	NA	NA	NA	NA	NA	NA	NA	NA	NA	NA	NA	NA	NA	NA	BlockProc	BlockList	NA	47	{RIGHTARROW}	NA	-100	2532	congruent	NA	NA	NA	NA	NA	NA	NA	NA	NA	NA	NA	NA	NA	NA	NA	NA	NA	NA	NA	NA	NA	NA	TrialProc	TrialList	1	10	273462	17	0	16	271046	0	1	{RIGHTARROW}	-999999	0	273046	0	{RIGHTARROW}	405	273451	NA	NA	right	rrrrr.bmp	354	0	NA	0	0	0	0	NA	0	0	0	NA	0	0	0	0	NA	0	0	2	1	47
Arrow Flanker 2014	12095	1	"<?xml version=""1.0""?>\n<Clock xmlns:dt=""urn:schemas-microsoft-com:datatypes""><Description dt:dt=""string"">E-Prime Primary Realtime Clock</Description><StartTime><Timestamp dt:dt=""int"">0</Timestamp><DateUtc dt:dt=""string"">2015-03-06T18:59:50Z</DateUtc></StartTime><FrequencyChanges><FrequencyChange><Frequency dt:dt=""r8"">2825703</Frequency><Timestamp dt:dt=""r8"">597354907372</Timestamp><Current dt:dt=""r8"">0</Current><DateUtc dt:dt=""string"">2015-03-06T18:59:50Z</DateUtc></FrequencyChange></FrequencyChanges></Clock>\n"	Arrow Flanker 2014-12095-1	60.019	1.0.0.86	1	354987616	Professional	2.0.10.353	2.0.10.353	03-06-2015	3/6/2015 6:59:50 PM	13:59:50	2.0.10.248	3	1	1	1	NA	NA	NA	NA	NA	NA	NA	NA	NA	NA	NA	NA	NA	NA	NA	NA	NA	NA	NA	NA	NA	NA	NA	NA	BlockProc	BlockList	NA	48	{RIGHTARROW}	NA	-100	1809	neutral	NA	NA	NA	NA	NA	NA	NA	NA	NA	NA	NA	NA	NA	NA	NA	NA	NA	NA	NA	NA	NA	NA	TrialProc	TrialList	1	8	276411	17	0	16	273995	0	1	{RIGHTARROW}	-999999	0	275945	0	{RIGHTARROW}	458	276403	NA	NA	right	ooroo.bmp	354	0	NA	0	0	0	0	NA	0	0	0	NA	0	0	0	0	NA	0	0	6	1	48
Arrow Flanker 2014	12095	1	"<?xml version=""1.0""?>\n<Clock xmlns:dt=""urn:schemas-microsoft-com:datatypes""><Description dt:dt=""string"">E-Prime Primary Realtime Clock</Description><StartTime><Timestamp dt:dt=""int"">0</Timestamp><DateUtc dt:dt=""string"">2015-03-06T18:59:50Z</DateUtc></StartTime><FrequencyChanges><FrequencyChange><Frequency dt:dt=""r8"">2825703</Frequency><Timestamp dt:dt=""r8"">597354907372</Timestamp><Current dt:dt=""r8"">0</Current><DateUtc dt:dt=""string"">2015-03-06T18:59:50Z</DateUtc></FrequencyChange></FrequencyChanges></Clock>\n"	Arrow Flanker 2014-12095-1	60.019	1.0.0.86	1	354987616	Professional	2.0.10.353	2.0.10.353	03-06-2015	3/6/2015 6:59:50 PM	13:59:50	2.0.10.248	3	1	1	1	NA	NA	NA	NA	NA	NA	NA	NA	NA	NA	NA	NA	NA	NA	NA	NA	NA	NA	NA	NA	NA	NA	NA	NA	BlockProc	BlockList	NA	49	{RIGHTARROW}	NA	-100	702	congruent	NA	NA	NA	NA	NA	NA	NA	NA	NA	NA	NA	NA	NA	NA	NA	NA	NA	NA	NA	NA	NA	NA	TrialProc	TrialList	1	16	278427	17	0	16	276944	0	1	{RIGHTARROW}	-999999	0	277961	0	{RIGHTARROW}	450	278411	NA	NA	right	rrrrr.bmp	354	0	NA	0	0	0	0	NA	0	0	0	NA	0	0	0	0	NA	0	0	2	1	49
Arrow Flanker 2014	12095	1	"<?xml version=""1.0""?>\n<Clock xmlns:dt=""urn:schemas-microsoft-com:datatypes""><Description dt:dt=""string"">E-Prime Primary Realtime Clock</Description><StartTime><Timestamp dt:dt=""int"">0</Timestamp><DateUtc dt:dt=""string"">2015-03-06T18:59:50Z</DateUtc></StartTime><FrequencyChanges><FrequencyChange><Frequency dt:dt=""r8"">2825703</Frequency><Timestamp dt:dt=""r8"">597354907372</Timestamp><Current dt:dt=""r8"">0</Current><DateUtc dt:dt=""string"">2015-03-06T18:59:50Z</DateUtc></FrequencyChange></FrequencyChanges></Clock>\n"	Arrow Flanker 2014-12095-1	60.019	1.0.0.86	1	354987616	Professional	2.0.10.353	2.0.10.353	03-06-2015	3/6/2015 6:59:50 PM	13:59:50	2.0.10.248	3	1	1	1	NA	NA	NA	NA	NA	NA	NA	NA	NA	NA	NA	NA	NA	NA	NA	NA	NA	NA	NA	NA	NA	NA	NA	NA	BlockProc	BlockList	NA	50	{LEFTARROW}	NA	-100	1924	incongruent	NA	NA	NA	NA	NA	NA	NA	NA	NA	NA	NA	NA	NA	NA	NA	NA	NA	NA	NA	NA	NA	NA	TrialProc	TrialList	0	11	280910	17	0	17	278961	0	1	{LEFTARROW}	-999999	0	280310	0	{LEFTARROW}	589	280899	NA	NA	left	rrlrr.bmp	354	0	NA	0	0	0	0	NA	0	0	0	NA	0	0	0	0	NA	0	0	3	1	50
Arrow Flanker 2014	12095	1	"<?xml version=""1.0""?>\n<Clock xmlns:dt=""urn:schemas-microsoft-com:datatypes""><Description dt:dt=""string"">E-Prime Primary Realtime Clock</Description><StartTime><Timestamp dt:dt=""int"">0</Timestamp><DateUtc dt:dt=""string"">2015-03-06T18:59:50Z</DateUtc></StartTime><FrequencyChanges><FrequencyChange><Frequency dt:dt=""r8"">2825703</Frequency><Timestamp dt:dt=""r8"">597354907372</Timestamp><Current dt:dt=""r8"">0</Current><DateUtc dt:dt=""string"">2015-03-06T18:59:50Z</DateUtc></FrequencyChange></FrequencyChanges></Clock>\n"	Arrow Flanker 2014-12095-1	60.019	1.0.0.86	1	354987616	Professional	2.0.10.353	2.0.10.353	03-06-2015	3/6/2015 6:59:50 PM	13:59:50	2.0.10.248	3	1	1	1	NA	NA	NA	NA	NA	NA	NA	NA	NA	NA	NA	NA	NA	NA	NA	NA	NA	NA	NA	NA	NA	NA	NA	NA	BlockProc	BlockList	NA	51	{RIGHTARROW}	NA	-100	1408	incongruent	NA	NA	NA	NA	NA	NA	NA	NA	NA	NA	NA	NA	NA	NA	NA	NA	NA	NA	NA	NA	NA	NA	TrialProc	TrialList	0	15	283826	16	0	16	281443	0	1	{RIGHTARROW}	-999999	0	283259	0	{RIGHTARROW}	552	283811	NA	NA	right	llrll.bmp	354	0	NA	0	0	0	0	NA	0	0	0	NA	0	0	0	0	NA	0	0	4	1	51
Arrow Flanker 2014	12095	1	"<?xml version=""1.0""?>\n<Clock xmlns:dt=""urn:schemas-microsoft-com:datatypes""><Description dt:dt=""string"">E-Prime Primary Realtime Clock</Description><StartTime><Timestamp dt:dt=""int"">0</Timestamp><DateUtc dt:dt=""string"">2015-03-06T18:59:50Z</DateUtc></StartTime><FrequencyChanges><FrequencyChange><Frequency dt:dt=""r8"">2825703</Frequency><Timestamp dt:dt=""r8"">597354907372</Timestamp><Current dt:dt=""r8"">0</Current><DateUtc dt:dt=""string"">2015-03-06T18:59:50Z</DateUtc></FrequencyChange></FrequencyChanges></Clock>\n"	Arrow Flanker 2014-12095-1	60.019	1.0.0.86	1	354987616	Professional	2.0.10.353	2.0.10.353	03-06-2015	3/6/2015 6:59:50 PM	13:59:50	2.0.10.248	3	1	1	1	NA	NA	NA	NA	NA	NA	NA	NA	NA	NA	NA	NA	NA	NA	NA	NA	NA	NA	NA	NA	NA	NA	NA	NA	BlockProc	BlockList	NA	52	{RIGHTARROW}	NA	-100	2405	congruent	NA	NA	NA	NA	NA	NA	NA	NA	NA	NA	NA	NA	NA	NA	NA	NA	NA	NA	NA	NA	NA	NA	TrialProc	TrialList	1	14	286641	17	0	17	284359	0	1	{RIGHTARROW}	-999999	0	286142	0	{RIGHTARROW}	484	286626	NA	NA	right	rrrrr.bmp	354	0	NA	0	0	0	0	NA	0	0	0	NA	0	0	0	0	NA	0	0	2	1	52
Arrow Flanker 2014	12095	1	"<?xml version=""1.0""?>\n<Clock xmlns:dt=""urn:schemas-microsoft-com:datatypes""><Description dt:dt=""string"">E-Prime Primary Realtime Clock</Description><StartTime><Timestamp dt:dt=""int"">0</Timestamp><DateUtc dt:dt=""string"">2015-03-06T18:59:50Z</DateUtc></StartTime><FrequencyChanges><FrequencyChange><Frequency dt:dt=""r8"">2825703</Frequency><Timestamp dt:dt=""r8"">597354907372</Timestamp><Current dt:dt=""r8"">0</Current><DateUtc dt:dt=""string"">2015-03-06T18:59:50Z</DateUtc></FrequencyChange></FrequencyChanges></Clock>\n"	Arrow Flanker 2014-12095-1	60.019	1.0.0.86	1	354987616	Professional	2.0.10.353	2.0.10.353	03-06-2015	3/6/2015 6:59:50 PM	13:59:50	2.0.10.248	3	1	1	1	NA	NA	NA	NA	NA	NA	NA	NA	NA	NA	NA	NA	NA	NA	NA	NA	NA	NA	NA	NA	NA	NA	NA	NA	BlockProc	BlockList	NA	53	{RIGHTARROW}	NA	-100	2448	congruent	NA	NA	NA	NA	NA	NA	NA	NA	NA	NA	NA	NA	NA	NA	NA	NA	NA	NA	NA	NA	NA	NA	TrialProc	TrialList	0	10	289524	17	0	17	287175	0	1	{RIGHTARROW}	-999999	0	289024	0	{RIGHTARROW}	490	289514	NA	NA	right	rrrrr.bmp	354	0	NA	0	0	0	0	NA	0	0	0	NA	0	0	0	0	NA	0	0	2	1	53
Arrow Flanker 2014	12095	1	"<?xml version=""1.0""?>\n<Clock xmlns:dt=""urn:schemas-microsoft-com:datatypes""><Description dt:dt=""string"">E-Prime Primary Realtime Clock</Description><StartTime><Timestamp dt:dt=""int"">0</Timestamp><DateUtc dt:dt=""string"">2015-03-06T18:59:50Z</DateUtc></StartTime><FrequencyChanges><FrequencyChange><Frequency dt:dt=""r8"">2825703</Frequency><Timestamp dt:dt=""r8"">597354907372</Timestamp><Current dt:dt=""r8"">0</Current><DateUtc dt:dt=""string"">2015-03-06T18:59:50Z</DateUtc></FrequencyChange></FrequencyChanges></Clock>\n"	Arrow Flanker 2014-12095-1	60.019	1.0.0.86	1	354987616	Professional	2.0.10.353	2.0.10.353	03-06-2015	3/6/2015 6:59:50 PM	13:59:50	2.0.10.248	3	1	1	1	NA	NA	NA	NA	NA	NA	NA	NA	NA	NA	NA	NA	NA	NA	NA	NA	NA	NA	NA	NA	NA	NA	NA	NA	BlockProc	BlockList	NA	54	{LEFTARROW}	NA	-100	1207	congruent	NA	NA	NA	NA	NA	NA	NA	NA	NA	NA	NA	NA	NA	NA	NA	NA	NA	NA	NA	NA	2	1	TrialProc	TrialList	0	14	291440	17	0	16	290057	0	1	{LEFTARROW}	-999999	0	290990	0	{LEFTARROW}	436	291426	NA	NA	left	lllll.bmp	354	0	NA	-999999	16	291973	0	1	3785	295758	0	NA	-999999	14	295772	0	1	3458	299230	1	1	54
Arrow Flanker 2014	12095	1	"<?xml version=""1.0""?>\n<Clock xmlns:dt=""urn:schemas-microsoft-com:datatypes""><Description dt:dt=""string"">E-Prime Primary Realtime Clock</Description><StartTime><Timestamp dt:dt=""int"">0</Timestamp><DateUtc dt:dt=""string"">2015-03-06T18:59:50Z</DateUtc></StartTime><FrequencyChanges><FrequencyChange><Frequency dt:dt=""r8"">2825703</Frequency><Timestamp dt:dt=""r8"">597354907372</Timestamp><Current dt:dt=""r8"">0</Current><DateUtc dt:dt=""string"">2015-03-06T18:59:50Z</DateUtc></FrequencyChange></FrequencyChanges></Clock>\n"	Arrow Flanker 2014-12095-1	60.019	1.0.0.86	1	354987616	Professional	2.0.10.353	2.0.10.353	03-06-2015	3/6/2015 6:59:50 PM	13:59:50	2.0.10.248	3	1	1	1	NA	NA	NA	NA	NA	NA	NA	NA	NA	NA	NA	NA	NA	NA	NA	NA	NA	NA	NA	NA	NA	NA	NA	NA	BlockProc	BlockList	NA	55	{LEFTARROW}	NA	-100	1575	neutral	NA	NA	NA	NA	NA	NA	NA	NA	NA	NA	NA	NA	NA	NA	NA	NA	NA	NA	NA	NA	NA	NA	TrialProc	TrialList	1	5	303470	16	0	13	301070	0	1	{LEFTARROW}	-999999	0	302970	0	{LEFTARROW}	495	303465	NA	NA	left	ooloo.bmp	354	0	NA	0	0	0	0	NA	0	0	0	NA	0	0	0	0	NA	0	0	5	1	55
Arrow Flanker 2014	12095	1	"<?xml version=""1.0""?>\n<Clock xmlns:dt=""urn:schemas-microsoft-com:datatypes""><Description dt:dt=""string"">E-Prime Primary Realtime Clock</Description><StartTime><Timestamp dt:dt=""int"">0</Timestamp><DateUtc dt:dt=""string"">2015-03-06T18:59:50Z</DateUtc></StartTime><FrequencyChanges><FrequencyChange><Frequency dt:dt=""r8"">2825703</Frequency><Timestamp dt:dt=""r8"">597354907372</Timestamp><Current dt:dt=""r8"">0</Current><DateUtc dt:dt=""string"">2015-03-06T18:59:50Z</DateUtc></FrequencyChange></FrequencyChanges></Clock>\n"	Arrow Flanker 2014-12095-1	60.019	1.0.0.86	1	354987616	Professional	2.0.10.353	2.0.10.353	03-06-2015	3/6/2015 6:59:50 PM	13:59:50	2.0.10.248	3	1	1	1	NA	NA	NA	NA	NA	NA	NA	NA	NA	NA	NA	NA	NA	NA	NA	NA	NA	NA	NA	NA	NA	NA	NA	NA	BlockProc	BlockList	NA	56	{LEFTARROW}	NA	-100	1247	incongruent	NA	NA	NA	NA	NA	NA	NA	NA	NA	NA	NA	NA	NA	NA	NA	NA	NA	NA	NA	NA	NA	NA	TrialProc	TrialList	0	21	306302	17	0	17	304003	0	1	{LEFTARROW}	-999999	0	305752	0	{LEFTARROW}	529	306281	NA	NA	left	rrlrr.bmp	354	0	NA	0	0	0	0	NA	0	0	0	NA	0	0	0	0	NA	0	0	3	1	56
Arrow Flanker 2014	12095	1	"<?xml version=""1.0""?>\n<Clock xmlns:dt=""urn:schemas-microsoft-com:datatypes""><Description dt:dt=""string"">E-Prime Primary Realtime Clock</Description><StartTime><Timestamp dt:dt=""int"">0</Timestamp><DateUtc dt:dt=""string"">2015-03-06T18:59:50Z</DateUtc></StartTime><FrequencyChanges><FrequencyChange><Frequency dt:dt=""r8"">2825703</Frequency><Timestamp dt:dt=""r8"">597354907372</Timestamp><Current dt:dt=""r8"">0</Current><DateUtc dt:dt=""string"">2015-03-06T18:59:50Z</DateUtc></FrequencyChange></FrequencyChanges></Clock>\n"	Arrow Flanker 2014-12095-1	60.019	1.0.0.86	1	354987616	Professional	2.0.10.353	2.0.10.353	03-06-2015	3/6/2015 6:59:50 PM	13:59:50	2.0.10.248	3	1	1	1	NA	NA	NA	NA	NA	NA	NA	NA	NA	NA	NA	NA	NA	NA	NA	NA	NA	NA	NA	NA	NA	NA	NA	NA	BlockProc	BlockList	NA	57	{LEFTARROW}	NA	-100	1549	neutral	NA	NA	NA	NA	NA	NA	NA	NA	NA	NA	NA	NA	NA	NA	NA	NA	NA	NA	NA	NA	NA	NA	TrialProc	TrialList	0	17	308418	17	0	16	306835	0	1	{LEFTARROW}	-999999	16	308018	0	{LEFTARROW}	383	308401	NA	NA	left	ooloo.bmp	354	0	NA	0	0	0	0	NA	0	0	0	NA	0	0	0	0	NA	0	0	5	1	57
Arrow Flanker 2014	12095	1	"<?xml version=""1.0""?>\n<Clock xmlns:dt=""urn:schemas-microsoft-com:datatypes""><Description dt:dt=""string"">E-Prime Primary Realtime Clock</Description><StartTime><Timestamp dt:dt=""int"">0</Timestamp><DateUtc dt:dt=""string"">2015-03-06T18:59:50Z</DateUtc></StartTime><FrequencyChanges><FrequencyChange><Frequency dt:dt=""r8"">2825703</Frequency><Timestamp dt:dt=""r8"">597354907372</Timestamp><Current dt:dt=""r8"">0</Current><DateUtc dt:dt=""string"">2015-03-06T18:59:50Z</DateUtc></FrequencyChange></FrequencyChanges></Clock>\n"	Arrow Flanker 2014-12095-1	60.019	1.0.0.86	1	354987616	Professional	2.0.10.353	2.0.10.353	03-06-2015	3/6/2015 6:59:50 PM	13:59:50	2.0.10.248	3	1	1	1	NA	NA	NA	NA	NA	NA	NA	NA	NA	NA	NA	NA	NA	NA	NA	NA	NA	NA	NA	NA	NA	NA	NA	NA	BlockProc	BlockList	NA	58	{RIGHTARROW}	NA	-100	1564	congruent	NA	NA	NA	NA	NA	NA	NA	NA	NA	NA	NA	NA	NA	NA	NA	NA	NA	NA	NA	NA	NA	NA	TrialProc	TrialList	0	15	310984	17	0	16	308951	0	1	{RIGHTARROW}	-999999	16	310484	0	{RIGHTARROW}	485	310969	NA	NA	right	rrrrr.bmp	354	0	NA	0	0	0	0	NA	0	0	0	NA	0	0	0	0	NA	0	0	2	1	58
Arrow Flanker 2014	12095	1	"<?xml version=""1.0""?>\n<Clock xmlns:dt=""urn:schemas-microsoft-com:datatypes""><Description dt:dt=""string"">E-Prime Primary Realtime Clock</Description><StartTime><Timestamp dt:dt=""int"">0</Timestamp><DateUtc dt:dt=""string"">2015-03-06T18:59:50Z</DateUtc></StartTime><FrequencyChanges><FrequencyChange><Frequency dt:dt=""r8"">2825703</Frequency><Timestamp dt:dt=""r8"">597354907372</Timestamp><Current dt:dt=""r8"">0</Current><DateUtc dt:dt=""string"">2015-03-06T18:59:50Z</DateUtc></FrequencyChange></FrequencyChanges></Clock>\n"	Arrow Flanker 2014-12095-1	60.019	1.0.0.86	1	354987616	Professional	2.0.10.353	2.0.10.353	03-06-2015	3/6/2015 6:59:50 PM	13:59:50	2.0.10.248	3	1	1	1	NA	NA	NA	NA	NA	NA	NA	NA	NA	NA	NA	NA	NA	NA	NA	NA	NA	NA	NA	NA	NA	NA	NA	NA	BlockProc	BlockList	NA	59	{LEFTARROW}	NA	-100	1984	congruent	NA	NA	NA	NA	NA	NA	NA	NA	NA	NA	NA	NA	NA	NA	NA	NA	NA	NA	NA	NA	NA	NA	TrialProc	TrialList	0	8	313417	16	0	16	311517	0	1	{LEFTARROW}	-999999	0	312833	0	{LEFTARROW}	575	313408	NA	NA	left	lllll.bmp	354	0	NA	0	0	0	0	NA	0	0	0	NA	0	0	0	0	NA	0	0	1	1	59
Arrow Flanker 2014	12095	1	"<?xml version=""1.0""?>\n<Clock xmlns:dt=""urn:schemas-microsoft-com:datatypes""><Description dt:dt=""string"">E-Prime Primary Realtime Clock</Description><StartTime><Timestamp dt:dt=""int"">0</Timestamp><DateUtc dt:dt=""string"">2015-03-06T18:59:50Z</DateUtc></StartTime><FrequencyChanges><FrequencyChange><Frequency dt:dt=""r8"">2825703</Frequency><Timestamp dt:dt=""r8"">597354907372</Timestamp><Current dt:dt=""r8"">0</Current><DateUtc dt:dt=""string"">2015-03-06T18:59:50Z</DateUtc></FrequencyChange></FrequencyChanges></Clock>\n"	Arrow Flanker 2014-12095-1	60.019	1.0.0.86	1	354987616	Professional	2.0.10.353	2.0.10.353	03-06-2015	3/6/2015 6:59:50 PM	13:59:50	2.0.10.248	3	1	1	1	NA	NA	NA	NA	NA	NA	NA	NA	NA	NA	NA	NA	NA	NA	NA	NA	NA	NA	NA	NA	NA	NA	NA	NA	BlockProc	BlockList	NA	60	{LEFTARROW}	NA	-100	2242	neutral	NA	NA	NA	NA	NA	NA	NA	NA	NA	NA	NA	NA	NA	NA	NA	NA	NA	NA	NA	NA	NA	NA	TrialProc	TrialList	0	16	316216	16	0	17	313950	0	1	{LEFTARROW}	-999999	16	315799	0	{LEFTARROW}	401	316200	NA	NA	left	ooloo.bmp	354	0	NA	0	0	0	0	NA	0	0	0	NA	0	0	0	0	NA	0	0	5	1	60
Arrow Flanker 2014	12095	1	"<?xml version=""1.0""?>\n<Clock xmlns:dt=""urn:schemas-microsoft-com:datatypes""><Description dt:dt=""string"">E-Prime Primary Realtime Clock</Description><StartTime><Timestamp dt:dt=""int"">0</Timestamp><DateUtc dt:dt=""string"">2015-03-06T18:59:50Z</DateUtc></StartTime><FrequencyChanges><FrequencyChange><Frequency dt:dt=""r8"">2825703</Frequency><Timestamp dt:dt=""r8"">597354907372</Timestamp><Current dt:dt=""r8"">0</Current><DateUtc dt:dt=""string"">2015-03-06T18:59:50Z</DateUtc></FrequencyChange></FrequencyChanges></Clock>\n"	Arrow Flanker 2014-12095-1	60.019	1.0.0.86	1	354987616	Professional	2.0.10.353	2.0.10.353	03-06-2015	3/6/2015 6:59:50 PM	13:59:50	2.0.10.248	3	1	1	1	NA	NA	NA	NA	NA	NA	NA	NA	NA	NA	NA	NA	NA	NA	NA	NA	NA	NA	NA	NA	NA	NA	NA	NA	BlockProc	BlockList	NA	61	{RIGHTARROW}	NA	-100	1317	neutral	NA	NA	NA	NA	NA	NA	NA	NA	NA	NA	NA	NA	NA	NA	NA	NA	NA	NA	NA	NA	NA	NA	TrialProc	TrialList	0	20	318948	17	0	17	316749	0	1	{RIGHTARROW}	-999999	0	318532	0	{RIGHTARROW}	396	318928	NA	NA	right	ooroo.bmp	354	0	NA	0	0	0	0	NA	0	0	0	NA	0	0	0	0	NA	0	0	6	1	61
Arrow Flanker 2014	12095	1	"<?xml version=""1.0""?>\n<Clock xmlns:dt=""urn:schemas-microsoft-com:datatypes""><Description dt:dt=""string"">E-Prime Primary Realtime Clock</Description><StartTime><Timestamp dt:dt=""int"">0</Timestamp><DateUtc dt:dt=""string"">2015-03-06T18:59:50Z</DateUtc></StartTime><FrequencyChanges><FrequencyChange><Frequency dt:dt=""r8"">2825703</Frequency><Timestamp dt:dt=""r8"">597354907372</Timestamp><Current dt:dt=""r8"">0</Current><DateUtc dt:dt=""string"">2015-03-06T18:59:50Z</DateUtc></FrequencyChange></FrequencyChanges></Clock>\n"	Arrow Flanker 2014-12095-1	60.019	1.0.0.86	1	354987616	Professional	2.0.10.353	2.0.10.353	03-06-2015	3/6/2015 6:59:50 PM	13:59:50	2.0.10.248	3	1	1	1	NA	NA	NA	NA	NA	NA	NA	NA	NA	NA	NA	NA	NA	NA	NA	NA	NA	NA	NA	NA	NA	NA	NA	NA	BlockProc	BlockList	NA	62	{RIGHTARROW}	NA	-100	1583	incongruent	NA	NA	NA	NA	NA	NA	NA	NA	NA	NA	NA	NA	NA	NA	NA	NA	NA	NA	NA	NA	NA	NA	TrialProc	TrialList	1	5	321381	16	0	16	319481	0	1	{RIGHTARROW}	-999999	0	320864	0	{RIGHTARROW}	512	321376	NA	NA	right	llrll.bmp	354	0	NA	0	0	0	0	NA	0	0	0	NA	0	0	0	0	NA	0	0	4	1	62
Arrow Flanker 2014	12095	1	"<?xml version=""1.0""?>\n<Clock xmlns:dt=""urn:schemas-microsoft-com:datatypes""><Description dt:dt=""string"">E-Prime Primary Realtime Clock</Description><StartTime><Timestamp dt:dt=""int"">0</Timestamp><DateUtc dt:dt=""string"">2015-03-06T18:59:50Z</DateUtc></StartTime><FrequencyChanges><FrequencyChange><Frequency dt:dt=""r8"">2825703</Frequency><Timestamp dt:dt=""r8"">597354907372</Timestamp><Current dt:dt=""r8"">0</Current><DateUtc dt:dt=""string"">2015-03-06T18:59:50Z</DateUtc></FrequencyChange></FrequencyChanges></Clock>\n"	Arrow Flanker 2014-12095-1	60.019	1.0.0.86	1	354987616	Professional	2.0.10.353	2.0.10.353	03-06-2015	3/6/2015 6:59:50 PM	13:59:50	2.0.10.248	3	1	1	1	NA	NA	NA	NA	NA	NA	NA	NA	NA	NA	NA	NA	NA	NA	NA	NA	NA	NA	NA	NA	NA	NA	NA	NA	BlockProc	BlockList	NA	63	{LEFTARROW}	NA	-100	562	congruent	NA	NA	NA	NA	NA	NA	NA	NA	NA	NA	NA	NA	NA	NA	NA	NA	NA	NA	NA	NA	NA	NA	TrialProc	TrialList	0	19	323347	16	0	17	321914	0	1	{LEFTARROW}	-999999	0	322930	0	{LEFTARROW}	398	323328	NA	NA	left	lllll.bmp	354	0	NA	0	0	0	0	NA	0	0	0	NA	0	0	0	0	NA	0	0	1	1	63
Arrow Flanker 2014	12095	1	"<?xml version=""1.0""?>\n<Clock xmlns:dt=""urn:schemas-microsoft-com:datatypes""><Description dt:dt=""string"">E-Prime Primary Realtime Clock</Description><StartTime><Timestamp dt:dt=""int"">0</Timestamp><DateUtc dt:dt=""string"">2015-03-06T18:59:50Z</DateUtc></StartTime><FrequencyChanges><FrequencyChange><Frequency dt:dt=""r8"">2825703</Frequency><Timestamp dt:dt=""r8"">597354907372</Timestamp><Current dt:dt=""r8"">0</Current><DateUtc dt:dt=""string"">2015-03-06T18:59:50Z</DateUtc></FrequencyChange></FrequencyChanges></Clock>\n"	Arrow Flanker 2014-12095-1	60.019	1.0.0.86	1	354987616	Professional	2.0.10.353	2.0.10.353	03-06-2015	3/6/2015 6:59:50 PM	13:59:50	2.0.10.248	3	1	1	1	NA	NA	NA	NA	NA	NA	NA	NA	NA	NA	NA	NA	NA	NA	NA	NA	NA	NA	NA	NA	NA	NA	NA	NA	BlockProc	BlockList	NA	64	{LEFTARROW}	NA	-100	1678	congruent	NA	NA	NA	NA	NA	NA	NA	NA	NA	NA	NA	NA	NA	NA	NA	NA	NA	NA	NA	NA	NA	NA	TrialProc	TrialList	0	16	325496	17	0	17	323880	0	1	{LEFTARROW}	-999999	0	325113	0	{LEFTARROW}	367	325480	NA	NA	left	lllll.bmp	354	0	NA	0	0	0	0	NA	0	0	0	NA	0	0	0	0	NA	0	0	1	1	64
Arrow Flanker 2014	12095	1	"<?xml version=""1.0""?>\n<Clock xmlns:dt=""urn:schemas-microsoft-com:datatypes""><Description dt:dt=""string"">E-Prime Primary Realtime Clock</Description><StartTime><Timestamp dt:dt=""int"">0</Timestamp><DateUtc dt:dt=""string"">2015-03-06T18:59:50Z</DateUtc></StartTime><FrequencyChanges><FrequencyChange><Frequency dt:dt=""r8"">2825703</Frequency><Timestamp dt:dt=""r8"">597354907372</Timestamp><Current dt:dt=""r8"">0</Current><DateUtc dt:dt=""string"">2015-03-06T18:59:50Z</DateUtc></FrequencyChange></FrequencyChanges></Clock>\n"	Arrow Flanker 2014-12095-1	60.019	1.0.0.86	1	354987616	Professional	2.0.10.353	2.0.10.353	03-06-2015	3/6/2015 6:59:50 PM	13:59:50	2.0.10.248	3	1	1	1	NA	NA	NA	NA	NA	NA	NA	NA	NA	NA	NA	NA	NA	NA	NA	NA	NA	NA	NA	NA	NA	NA	NA	NA	BlockProc	BlockList	NA	65	{RIGHTARROW}	NA	-100	2050	incongruent	NA	NA	NA	NA	NA	NA	NA	NA	NA	NA	NA	NA	NA	NA	NA	NA	NA	NA	NA	NA	NA	NA	TrialProc	TrialList	1	17	328528	17	0	16	326029	0	1	{RIGHTARROW}	-999999	0	328045	0	{RIGHTARROW}	466	328511	NA	NA	right	llrll.bmp	354	0	NA	0	0	0	0	NA	0	0	0	NA	0	0	0	0	NA	0	0	4	1	65
Arrow Flanker 2014	12095	1	"<?xml version=""1.0""?>\n<Clock xmlns:dt=""urn:schemas-microsoft-com:datatypes""><Description dt:dt=""string"">E-Prime Primary Realtime Clock</Description><StartTime><Timestamp dt:dt=""int"">0</Timestamp><DateUtc dt:dt=""string"">2015-03-06T18:59:50Z</DateUtc></StartTime><FrequencyChanges><FrequencyChange><Frequency dt:dt=""r8"">2825703</Frequency><Timestamp dt:dt=""r8"">597354907372</Timestamp><Current dt:dt=""r8"">0</Current><DateUtc dt:dt=""string"">2015-03-06T18:59:50Z</DateUtc></FrequencyChange></FrequencyChanges></Clock>\n"	Arrow Flanker 2014-12095-1	60.019	1.0.0.86	1	354987616	Professional	2.0.10.353	2.0.10.353	03-06-2015	3/6/2015 6:59:50 PM	13:59:50	2.0.10.248	3	1	1	1	NA	NA	NA	NA	NA	NA	NA	NA	NA	NA	NA	NA	NA	NA	NA	NA	NA	NA	NA	NA	NA	NA	NA	NA	BlockProc	BlockList	NA	66	{RIGHTARROW}	NA	-100	1180	neutral	NA	NA	NA	NA	NA	NA	NA	NA	NA	NA	NA	NA	NA	NA	NA	NA	NA	NA	NA	NA	NA	NA	TrialProc	TrialList	1	15	330894	17	0	17	329062	0	1	{RIGHTARROW}	-999999	-1	330444	0	{RIGHTARROW}	435	330879	NA	NA	right	ooroo.bmp	354	0	NA	0	0	0	0	NA	0	0	0	NA	0	0	0	0	NA	0	0	6	1	66
Arrow Flanker 2014	12095	1	"<?xml version=""1.0""?>\n<Clock xmlns:dt=""urn:schemas-microsoft-com:datatypes""><Description dt:dt=""string"">E-Prime Primary Realtime Clock</Description><StartTime><Timestamp dt:dt=""int"">0</Timestamp><DateUtc dt:dt=""string"">2015-03-06T18:59:50Z</DateUtc></StartTime><FrequencyChanges><FrequencyChange><Frequency dt:dt=""r8"">2825703</Frequency><Timestamp dt:dt=""r8"">597354907372</Timestamp><Current dt:dt=""r8"">0</Current><DateUtc dt:dt=""string"">2015-03-06T18:59:50Z</DateUtc></FrequencyChange></FrequencyChanges></Clock>\n"	Arrow Flanker 2014-12095-1	60.019	1.0.0.86	1	354987616	Professional	2.0.10.353	2.0.10.353	03-06-2015	3/6/2015 6:59:50 PM	13:59:50	2.0.10.248	3	1	1	1	NA	NA	NA	NA	NA	NA	NA	NA	NA	NA	NA	NA	NA	NA	NA	NA	NA	NA	NA	NA	NA	NA	NA	NA	BlockProc	BlockList	NA	67	{LEFTARROW}	NA	-100	1890	neutral	NA	NA	NA	NA	NA	NA	NA	NA	NA	NA	NA	NA	NA	NA	NA	NA	NA	NA	NA	NA	NA	NA	TrialProc	TrialList	1	18	333793	17	0	17	331428	0	1	{LEFTARROW}	-999999	0	333377	0	{LEFTARROW}	398	333775	NA	NA	left	ooloo.bmp	354	0	NA	0	0	0	0	NA	0	0	0	NA	0	0	0	0	NA	0	0	5	1	67
Arrow Flanker 2014	12095	1	"<?xml version=""1.0""?>\n<Clock xmlns:dt=""urn:schemas-microsoft-com:datatypes""><Description dt:dt=""string"">E-Prime Primary Realtime Clock</Description><StartTime><Timestamp dt:dt=""int"">0</Timestamp><DateUtc dt:dt=""string"">2015-03-06T18:59:50Z</DateUtc></StartTime><FrequencyChanges><FrequencyChange><Frequency dt:dt=""r8"">2825703</Frequency><Timestamp dt:dt=""r8"">597354907372</Timestamp><Current dt:dt=""r8"">0</Current><DateUtc dt:dt=""string"">2015-03-06T18:59:50Z</DateUtc></FrequencyChange></FrequencyChanges></Clock>\n"	Arrow Flanker 2014-12095-1	60.019	1.0.0.86	1	354987616	Professional	2.0.10.353	2.0.10.353	03-06-2015	3/6/2015 6:59:50 PM	13:59:50	2.0.10.248	3	1	1	1	NA	NA	NA	NA	NA	NA	NA	NA	NA	NA	NA	NA	NA	NA	NA	NA	NA	NA	NA	NA	NA	NA	NA	NA	BlockProc	BlockList	NA	68	{RIGHTARROW}	NA	-100	1246	incongruent	NA	NA	NA	NA	NA	NA	NA	NA	NA	NA	NA	NA	NA	NA	NA	NA	NA	NA	NA	NA	NA	NA	TrialProc	TrialList	0	11	336026	17	0	17	334327	0	1	{RIGHTARROW}	-999999	0	335560	0	{RIGHTARROW}	455	336015	NA	NA	right	llrll.bmp	354	0	NA	0	0	0	0	NA	0	0	0	NA	0	0	0	0	NA	0	0	4	1	68
Arrow Flanker 2014	12095	1	"<?xml version=""1.0""?>\n<Clock xmlns:dt=""urn:schemas-microsoft-com:datatypes""><Description dt:dt=""string"">E-Prime Primary Realtime Clock</Description><StartTime><Timestamp dt:dt=""int"">0</Timestamp><DateUtc dt:dt=""string"">2015-03-06T18:59:50Z</DateUtc></StartTime><FrequencyChanges><FrequencyChange><Frequency dt:dt=""r8"">2825703</Frequency><Timestamp dt:dt=""r8"">597354907372</Timestamp><Current dt:dt=""r8"">0</Current><DateUtc dt:dt=""string"">2015-03-06T18:59:50Z</DateUtc></FrequencyChange></FrequencyChanges></Clock>\n"	Arrow Flanker 2014-12095-1	60.019	1.0.0.86	1	354987616	Professional	2.0.10.353	2.0.10.353	03-06-2015	3/6/2015 6:59:50 PM	13:59:50	2.0.10.248	3	1	1	1	NA	NA	NA	NA	NA	NA	NA	NA	NA	NA	NA	NA	NA	NA	NA	NA	NA	NA	NA	NA	NA	NA	NA	NA	BlockProc	BlockList	NA	69	{RIGHTARROW}	NA	-100	1244	neutral	NA	NA	NA	NA	NA	NA	NA	NA	NA	NA	NA	NA	NA	NA	NA	NA	NA	NA	NA	NA	NA	NA	TrialProc	TrialList	0	18	338209	16	0	16	336559	0	1	{RIGHTARROW}	-999999	0	337842	0	{RIGHTARROW}	348	338190	NA	NA	right	ooroo.bmp	354	0	NA	0	0	0	0	NA	0	0	0	NA	0	0	0	0	NA	0	0	6	1	69
Arrow Flanker 2014	12095	1	"<?xml version=""1.0""?>\n<Clock xmlns:dt=""urn:schemas-microsoft-com:datatypes""><Description dt:dt=""string"">E-Prime Primary Realtime Clock</Description><StartTime><Timestamp dt:dt=""int"">0</Timestamp><DateUtc dt:dt=""string"">2015-03-06T18:59:50Z</DateUtc></StartTime><FrequencyChanges><FrequencyChange><Frequency dt:dt=""r8"">2825703</Frequency><Timestamp dt:dt=""r8"">597354907372</Timestamp><Current dt:dt=""r8"">0</Current><DateUtc dt:dt=""string"">2015-03-06T18:59:50Z</DateUtc></FrequencyChange></FrequencyChanges></Clock>\n"	Arrow Flanker 2014-12095-1	60.019	1.0.0.86	1	354987616	Professional	2.0.10.353	2.0.10.353	03-06-2015	3/6/2015 6:59:50 PM	13:59:50	2.0.10.248	3	1	1	1	NA	NA	NA	NA	NA	NA	NA	NA	NA	NA	NA	NA	NA	NA	NA	NA	NA	NA	NA	NA	NA	NA	NA	NA	BlockProc	BlockList	NA	70	{LEFTARROW}	NA	-100	1083	congruent	NA	NA	NA	NA	NA	NA	NA	NA	NA	NA	NA	NA	NA	NA	NA	NA	NA	NA	NA	NA	4	1	TrialProc	TrialList	1	10	340241	17	0	17	338742	0	1	{LEFTARROW}	-999999	0	339908	0	{LEFTARROW}	322	340230	NA	NA	left	lllll.bmp	354	0	NA	-999999	17	340775	0	1	3811	344586	0	NA	-999999	20	344607	0	1	603	345210	1	1	70
Arrow Flanker 2014	12095	1	"<?xml version=""1.0""?>\n<Clock xmlns:dt=""urn:schemas-microsoft-com:datatypes""><Description dt:dt=""string"">E-Prime Primary Realtime Clock</Description><StartTime><Timestamp dt:dt=""int"">0</Timestamp><DateUtc dt:dt=""string"">2015-03-06T18:59:50Z</DateUtc></StartTime><FrequencyChanges><FrequencyChange><Frequency dt:dt=""r8"">2825703</Frequency><Timestamp dt:dt=""r8"">597354907372</Timestamp><Current dt:dt=""r8"">0</Current><DateUtc dt:dt=""string"">2015-03-06T18:59:50Z</DateUtc></FrequencyChange></FrequencyChanges></Clock>\n"	Arrow Flanker 2014-12095-1	60.019	1.0.0.86	1	354987616	Professional	2.0.10.353	2.0.10.353	03-06-2015	3/6/2015 6:59:50 PM	13:59:50	2.0.10.248	3	1	1	1	NA	NA	NA	NA	NA	NA	NA	NA	NA	NA	NA	NA	NA	NA	NA	NA	NA	NA	NA	NA	NA	NA	NA	NA	BlockProc	BlockList	NA	71	{RIGHTARROW}	NA	-100	1668	neutral	NA	NA	NA	NA	NA	NA	NA	NA	NA	NA	NA	NA	NA	NA	NA	NA	NA	NA	NA	NA	NA	NA	TrialProc	TrialList	0	11	356120	16	0	14	354220	0	1	{RIGHTARROW}	-999999	0	355687	0	{RIGHTARROW}	422	356109	NA	NA	right	ooroo.bmp	354	0	NA	0	0	0	0	NA	0	0	0	NA	0	0	0	0	NA	0	0	6	1	71
Arrow Flanker 2014	12095	1	"<?xml version=""1.0""?>\n<Clock xmlns:dt=""urn:schemas-microsoft-com:datatypes""><Description dt:dt=""string"">E-Prime Primary Realtime Clock</Description><StartTime><Timestamp dt:dt=""int"">0</Timestamp><DateUtc dt:dt=""string"">2015-03-06T18:59:50Z</DateUtc></StartTime><FrequencyChanges><FrequencyChange><Frequency dt:dt=""r8"">2825703</Frequency><Timestamp dt:dt=""r8"">597354907372</Timestamp><Current dt:dt=""r8"">0</Current><DateUtc dt:dt=""string"">2015-03-06T18:59:50Z</DateUtc></FrequencyChange></FrequencyChanges></Clock>\n"	Arrow Flanker 2014-12095-1	60.019	1.0.0.86	1	354987616	Professional	2.0.10.353	2.0.10.353	03-06-2015	3/6/2015 6:59:50 PM	13:59:50	2.0.10.248	3	1	1	1	NA	NA	NA	NA	NA	NA	NA	NA	NA	NA	NA	NA	NA	NA	NA	NA	NA	NA	NA	NA	NA	NA	NA	NA	BlockProc	BlockList	NA	72	{LEFTARROW}	NA	-100	2007	congruent	NA	NA	NA	NA	NA	NA	NA	NA	NA	NA	NA	NA	NA	NA	NA	NA	NA	NA	NA	NA	NA	NA	TrialProc	TrialList	0	13	359202	17	0	17	356653	0	1	{LEFTARROW}	-999999	0	358736	0	{LEFTARROW}	453	359189	NA	NA	left	lllll.bmp	354	0	NA	0	0	0	0	NA	0	0	0	NA	0	0	0	0	NA	0	0	1	1	72
Arrow Flanker 2014	12095	1	"<?xml version=""1.0""?>\n<Clock xmlns:dt=""urn:schemas-microsoft-com:datatypes""><Description dt:dt=""string"">E-Prime Primary Realtime Clock</Description><StartTime><Timestamp dt:dt=""int"">0</Timestamp><DateUtc dt:dt=""string"">2015-03-06T18:59:50Z</DateUtc></StartTime><FrequencyChanges><FrequencyChange><Frequency dt:dt=""r8"">2825703</Frequency><Timestamp dt:dt=""r8"">597354907372</Timestamp><Current dt:dt=""r8"">0</Current><DateUtc dt:dt=""string"">2015-03-06T18:59:50Z</DateUtc></FrequencyChange></FrequencyChanges></Clock>\n"	Arrow Flanker 2014-12095-1	60.019	1.0.0.86	1	354987616	Professional	2.0.10.353	2.0.10.353	03-06-2015	3/6/2015 6:59:50 PM	13:59:50	2.0.10.248	3	1	1	1	NA	NA	NA	NA	NA	NA	NA	NA	NA	NA	NA	NA	NA	NA	NA	NA	NA	NA	NA	NA	NA	NA	NA	NA	BlockProc	BlockList	NA	73	{LEFTARROW}	NA	-100	905	congruent	NA	NA	NA	NA	NA	NA	NA	NA	NA	NA	NA	NA	NA	NA	NA	NA	NA	NA	NA	NA	NA	NA	TrialProc	TrialList	0	9	361518	17	0	16	359735	0	1	{LEFTARROW}	-999999	0	360952	0	{LEFTARROW}	557	361509	NA	NA	left	lllll.bmp	354	0	NA	0	0	0	0	NA	0	0	0	NA	0	0	0	0	NA	0	0	1	1	73
