ExperimentName	Subject	Session	Clock.Information	DataFile.Basename	Display.RefreshRate	ExperimentVersion	Group	RandomSeed	RuntimeCapabilities	RuntimeVersion	RuntimeVersionExpected	SessionDate	SessionStartDateTimeUtc	SessionTime	StudioVersion	Block	BlockList	BlockList.Cycle	BlockList.Sample	Both	CompletelyMW	CongMeanRT	CongTotal	Fragmented	GoodByeList	GoodByeList.Cycle	GoodByeList.Sample	IncongMeanRT	IncongTotal	MapBlockList	MapBlockList.Cycle	MapBlockList.Sample	Mindwandering	MostlyMW	MostlyOT	NeutralMeanRT	NeutralTotal	NumberProbes1	NumberProbes2	OnTask	PracBlockList	PracBlockList.Cycle	PracBlockList.Sample	Procedure[Block]	Running[Block]	Sequential	Trial	CorrectAnswer	CuePositionY	CuePositionY2	DurationOfFixation	FlankerType	MapTrialList	MapTrialList.Cycle	MapTrialList.Sample	PracSlideFixationStart.DurationError	PracSlideFixationStart.OnsetDelay	PracSlideFixationStart.OnsetTime	PracSlideFixationStart.OnsetToOnsetTime	PracSlideTarget.ACC	PracSlideTarget.CRESP	PracSlideTarget.DurationError	PracSlideTarget.OnsetDelay	PracSlideTarget.OnsetTime	PracSlideTarget.OnsetToOnsetTime	PracSlideTarget.RESP	PracSlideTarget.RT	PracSlideTarget.RTTime	PracSlideTarget.Tag	PracTrialList	PracTrialList.Cycle	PracTrialList.Sample	Probe1Resp	Probe2Resp	Procedure[Trial]	Running[Trial]	SlideFixationEnd.DurationError	SlideFixationEnd.OnsetDelay	SlideFixationEnd.OnsetTime	SlideFixationEnd.OnsetToOnsetTime	SlideFixationStart.DurationError	SlideFixationStart.OnsetDelay	SlideFixationStart.OnsetTime	SlideFixationStart.OnsetToOnsetTime	SlideTarget.ACC	SlideTarget.CRESP	SlideTarget.DurationError	SlideTarget.OnsetDelay	SlideTarget.OnsetTime	SlideTarget.OnsetToOnsetTime	SlideTarget.RESP	SlideTarget.RT	SlideTarget.RTTime	SlideTarget.Tag	TargerDirection	TargetDirection	TargetImage	TargetPosition	ThoughtProbe1.ACC	ThoughtProbe1.CRESP	ThoughtProbe1.DurationError	ThoughtProbe1.OnsetDelay	ThoughtProbe1.OnsetTime	ThoughtProbe1.OnsetToOnsetTime	ThoughtProbe1.RESP	ThoughtProbe1.RT	ThoughtProbe1.RTTime	ThoughtProbe2.ACC	ThoughtProbe2.CRESP	ThoughtProbe2.DurationError	ThoughtProbe2.OnsetDelay	ThoughtProbe2.OnsetTime	ThoughtProbe2.OnsetToOnsetTime	ThoughtProbe2.RESP	ThoughtProbe2.RT	ThoughtProbe2.RTTime	TrialList	TrialList.Cycle	TrialList.Sample
Arrow Flanker 2014	12218	1	"<?xml version=""1.0""?>\n<Clock xmlns:dt=""urn:schemas-microsoft-com:datatypes""><Description dt:dt=""string"">E-Prime Primary Realtime Clock</Description><StartTime><Timestamp dt:dt=""int"">0</Timestamp><DateUtc dt:dt=""string"">2015-04-22T18:05:24Z</DateUtc></StartTime><FrequencyChanges><FrequencyChange><Frequency dt:dt=""r8"">2825556</Frequency><Timestamp dt:dt=""r8"">1271533933907</Timestamp><Current dt:dt=""r8"">0</Current><DateUtc dt:dt=""string"">2015-04-22T18:05:24Z</DateUtc></FrequencyChange></FrequencyChanges></Clock>\n"	Arrow Flanker 2014-12218-1	60.016	1.0.0.98	1	224150055	Professional	2.0.10.353	2.0.10.353	04-22-2015	4/22/2015 6:05:24 PM	14:05:24	2.0.10.248	1	NA	NA	NA	NA	NA	NA	NA	NA	NA	NA	NA	NA	NA	1	1	1	NA	NA	NA	NA	NA	NA	NA	NA	NA	NA	NA	MapBlockProc	MapBlockList	NA	1	{LEFTARROW}	-100	NA	480	NA	1	1	1	0	9	105214	483	1	{LEFTARROW}	0	0	106197	0	{LEFTARROW}	1696	107893	NA	NA	NA	NA	NA	NA	MapTrialProc	MapTrialList	NA	NA	NA	NA	NA	NA	NA	NA	NA	NA	NA	NA	NA	NA	NA	NA	NA	NA	left	NA	L.bmp	354	NA	NA	NA	NA	NA	NA	NA	NA	NA	NA	NA	NA	NA	NA	NA	NA	NA	NA	NA	NA	NA
Arrow Flanker 2014	12218	1	"<?xml version=""1.0""?>\n<Clock xmlns:dt=""urn:schemas-microsoft-com:datatypes""><Description dt:dt=""string"">E-Prime Primary Realtime Clock</Description><StartTime><Timestamp dt:dt=""int"">0</Timestamp><DateUtc dt:dt=""string"">2015-04-22T18:05:24Z</DateUtc></StartTime><FrequencyChanges><FrequencyChange><Frequency dt:dt=""r8"">2825556</Frequency><Timestamp dt:dt=""r8"">1271533933907</Timestamp><Current dt:dt=""r8"">0</Current><DateUtc dt:dt=""string"">2015-04-22T18:05:24Z</DateUtc></FrequencyChange></FrequencyChanges></Clock>\n"	Arrow Flanker 2014-12218-1	60.016	1.0.0.98	1	224150055	Professional	2.0.10.353	2.0.10.353	04-22-2015	4/22/2015 6:05:24 PM	14:05:24	2.0.10.248	1	NA	NA	NA	NA	NA	NA	NA	NA	NA	NA	NA	NA	NA	1	1	1	NA	NA	NA	NA	NA	NA	NA	NA	NA	NA	NA	MapBlockProc	MapBlockList	NA	2	{RIGHTARROW}	-100	NA	729	NA	2	1	2	0	16	109413	733	1	{RIGHTARROW}	-999999	0	110646	0	{RIGHTARROW}	494	111140	NA	NA	NA	NA	NA	NA	MapTrialProc	MapTrialList	NA	NA	NA	NA	NA	NA	NA	NA	NA	NA	NA	NA	NA	NA	NA	NA	NA	NA	right	NA	R.bmp	354	NA	NA	NA	NA	NA	NA	NA	NA	NA	NA	NA	NA	NA	NA	NA	NA	NA	NA	NA	NA	NA
Arrow Flanker 2014	12218	1	"<?xml version=""1.0""?>\n<Clock xmlns:dt=""urn:schemas-microsoft-com:datatypes""><Description dt:dt=""string"">E-Prime Primary Realtime Clock</Description><StartTime><Timestamp dt:dt=""int"">0</Timestamp><DateUtc dt:dt=""string"">2015-04-22T18:05:24Z</DateUtc></StartTime><FrequencyChanges><FrequencyChange><Frequency dt:dt=""r8"">2825556</Frequency><Timestamp dt:dt=""r8"">1271533933907</Timestamp><Current dt:dt=""r8"">0</Current><DateUtc dt:dt=""string"">2015-04-22T18:05:24Z</DateUtc></FrequencyChange></FrequencyChanges></Clock>\n"	Arrow Flanker 2014-12218-1	60.016	1.0.0.98	1	224150055	Professional	2.0.10.353	2.0.10.353	04-22-2015	4/22/2015 6:05:24 PM	14:05:24	2.0.10.248	1	NA	NA	NA	NA	NA	NA	NA	NA	NA	NA	NA	NA	NA	1	1	1	NA	NA	NA	NA	NA	NA	NA	NA	NA	NA	NA	MapBlockProc	MapBlockList	NA	3	{LEFTARROW}	-100	NA	558	NA	1	1	3	0	17	112679	566	1	{LEFTARROW}	-999999	0	113745	0	{LEFTARROW}	475	114220	NA	NA	NA	NA	NA	NA	MapTrialProc	MapTrialList	NA	NA	NA	NA	NA	NA	NA	NA	NA	NA	NA	NA	NA	NA	NA	NA	NA	NA	left	NA	L.bmp	354	NA	NA	NA	NA	NA	NA	NA	NA	NA	NA	NA	NA	NA	NA	NA	NA	NA	NA	NA	NA	NA
Arrow Flanker 2014	12218	1	"<?xml version=""1.0""?>\n<Clock xmlns:dt=""urn:schemas-microsoft-com:datatypes""><Description dt:dt=""string"">E-Prime Primary Realtime Clock</Description><StartTime><Timestamp dt:dt=""int"">0</Timestamp><DateUtc dt:dt=""string"">2015-04-22T18:05:24Z</DateUtc></StartTime><FrequencyChanges><FrequencyChange><Frequency dt:dt=""r8"">2825556</Frequency><Timestamp dt:dt=""r8"">1271533933907</Timestamp><Current dt:dt=""r8"">0</Current><DateUtc dt:dt=""string"">2015-04-22T18:05:24Z</DateUtc></FrequencyChange></FrequencyChanges></Clock>\n"	Arrow Flanker 2014-12218-1	60.016	1.0.0.98	1	224150055	Professional	2.0.10.353	2.0.10.353	04-22-2015	4/22/2015 6:05:24 PM	14:05:24	2.0.10.248	1	NA	NA	NA	NA	NA	NA	NA	NA	NA	NA	NA	NA	NA	1	1	1	NA	NA	NA	NA	NA	NA	NA	NA	NA	NA	NA	MapBlockProc	MapBlockList	NA	4	{RIGHTARROW}	-100	NA	853	NA	2	1	4	0	16	115761	867	1	{RIGHTARROW}	-999999	16	117144	0	{RIGHTARROW}	404	117548	NA	NA	NA	NA	NA	NA	MapTrialProc	MapTrialList	NA	NA	NA	NA	NA	NA	NA	NA	NA	NA	NA	NA	NA	NA	NA	NA	NA	NA	right	NA	R.bmp	354	NA	NA	NA	NA	NA	NA	NA	NA	NA	NA	NA	NA	NA	NA	NA	NA	NA	NA	NA	NA	NA
Arrow Flanker 2014	12218	1	"<?xml version=""1.0""?>\n<Clock xmlns:dt=""urn:schemas-microsoft-com:datatypes""><Description dt:dt=""string"">E-Prime Primary Realtime Clock</Description><StartTime><Timestamp dt:dt=""int"">0</Timestamp><DateUtc dt:dt=""string"">2015-04-22T18:05:24Z</DateUtc></StartTime><FrequencyChanges><FrequencyChange><Frequency dt:dt=""r8"">2825556</Frequency><Timestamp dt:dt=""r8"">1271533933907</Timestamp><Current dt:dt=""r8"">0</Current><DateUtc dt:dt=""string"">2015-04-22T18:05:24Z</DateUtc></FrequencyChange></FrequencyChanges></Clock>\n"	Arrow Flanker 2014-12218-1	60.016	1.0.0.98	1	224150055	Professional	2.0.10.353	2.0.10.353	04-22-2015	4/22/2015 6:05:24 PM	14:05:24	2.0.10.248	1	NA	NA	NA	NA	NA	NA	NA	NA	NA	NA	NA	NA	NA	1	1	1	NA	NA	NA	NA	NA	NA	NA	NA	NA	NA	NA	MapBlockProc	MapBlockList	NA	5	{LEFTARROW}	-100	NA	1440	NA	1	1	5	0	16	119077	1450	1	{LEFTARROW}	-999999	16	121043	0	{LEFTARROW}	473	121516	NA	NA	NA	NA	NA	NA	MapTrialProc	MapTrialList	NA	NA	NA	NA	NA	NA	NA	NA	NA	NA	NA	NA	NA	NA	NA	NA	NA	NA	left	NA	L.bmp	354	NA	NA	NA	NA	NA	NA	NA	NA	NA	NA	NA	NA	NA	NA	NA	NA	NA	NA	NA	NA	NA
Arrow Flanker 2014	12218	1	"<?xml version=""1.0""?>\n<Clock xmlns:dt=""urn:schemas-microsoft-com:datatypes""><Description dt:dt=""string"">E-Prime Primary Realtime Clock</Description><StartTime><Timestamp dt:dt=""int"">0</Timestamp><DateUtc dt:dt=""string"">2015-04-22T18:05:24Z</DateUtc></StartTime><FrequencyChanges><FrequencyChange><Frequency dt:dt=""r8"">2825556</Frequency><Timestamp dt:dt=""r8"">1271533933907</Timestamp><Current dt:dt=""r8"">0</Current><DateUtc dt:dt=""string"">2015-04-22T18:05:24Z</DateUtc></FrequencyChange></FrequencyChanges></Clock>\n"	Arrow Flanker 2014-12218-1	60.016	1.0.0.98	1	224150055	Professional	2.0.10.353	2.0.10.353	04-22-2015	4/22/2015 6:05:24 PM	14:05:24	2.0.10.248	1	NA	NA	NA	NA	NA	NA	NA	NA	NA	NA	NA	NA	NA	1	1	1	NA	NA	NA	NA	NA	NA	NA	NA	NA	NA	NA	MapBlockProc	MapBlockList	NA	6	{LEFTARROW}	-100	NA	1047	NA	1	1	6	0	16	123043	1049	1	{LEFTARROW}	-999999	0	124592	0	{LEFTARROW}	420	125012	NA	NA	NA	NA	NA	NA	MapTrialProc	MapTrialList	NA	NA	NA	NA	NA	NA	NA	NA	NA	NA	NA	NA	NA	NA	NA	NA	NA	NA	left	NA	L.bmp	354	NA	NA	NA	NA	NA	NA	NA	NA	NA	NA	NA	NA	NA	NA	NA	NA	NA	NA	NA	NA	NA
Arrow Flanker 2014	12218	1	"<?xml version=""1.0""?>\n<Clock xmlns:dt=""urn:schemas-microsoft-com:datatypes""><Description dt:dt=""string"">E-Prime Primary Realtime Clock</Description><StartTime><Timestamp dt:dt=""int"">0</Timestamp><DateUtc dt:dt=""string"">2015-04-22T18:05:24Z</DateUtc></StartTime><FrequencyChanges><FrequencyChange><Frequency dt:dt=""r8"">2825556</Frequency><Timestamp dt:dt=""r8"">1271533933907</Timestamp><Current dt:dt=""r8"">0</Current><DateUtc dt:dt=""string"">2015-04-22T18:05:24Z</DateUtc></FrequencyChange></FrequencyChanges></Clock>\n"	Arrow Flanker 2014-12218-1	60.016	1.0.0.98	1	224150055	Professional	2.0.10.353	2.0.10.353	04-22-2015	4/22/2015 6:05:24 PM	14:05:24	2.0.10.248	1	NA	NA	NA	NA	NA	NA	NA	NA	NA	NA	NA	NA	NA	1	1	1	NA	NA	NA	NA	NA	NA	NA	NA	NA	NA	NA	MapBlockProc	MapBlockList	NA	7	{RIGHTARROW}	-100	NA	547	NA	2	1	7	0	17	126542	549	1	{RIGHTARROW}	-999999	16	127608	0	{RIGHTARROW}	308	127916	NA	NA	NA	NA	NA	NA	MapTrialProc	MapTrialList	NA	NA	NA	NA	NA	NA	NA	NA	NA	NA	NA	NA	NA	NA	NA	NA	NA	NA	right	NA	R.bmp	354	NA	NA	NA	NA	NA	NA	NA	NA	NA	NA	NA	NA	NA	NA	NA	NA	NA	NA	NA	NA	NA
Arrow Flanker 2014	12218	1	"<?xml version=""1.0""?>\n<Clock xmlns:dt=""urn:schemas-microsoft-com:datatypes""><Description dt:dt=""string"">E-Prime Primary Realtime Clock</Description><StartTime><Timestamp dt:dt=""int"">0</Timestamp><DateUtc dt:dt=""string"">2015-04-22T18:05:24Z</DateUtc></StartTime><FrequencyChanges><FrequencyChange><Frequency dt:dt=""r8"">2825556</Frequency><Timestamp dt:dt=""r8"">1271533933907</Timestamp><Current dt:dt=""r8"">0</Current><DateUtc dt:dt=""string"">2015-04-22T18:05:24Z</DateUtc></FrequencyChange></FrequencyChanges></Clock>\n"	Arrow Flanker 2014-12218-1	60.016	1.0.0.98	1	224150055	Professional	2.0.10.353	2.0.10.353	04-22-2015	4/22/2015 6:05:24 PM	14:05:24	2.0.10.248	1	NA	NA	NA	NA	NA	NA	NA	NA	NA	NA	NA	NA	NA	1	1	1	NA	NA	NA	NA	NA	NA	NA	NA	NA	NA	NA	MapBlockProc	MapBlockList	NA	8	{RIGHTARROW}	-100	NA	499	NA	2	1	8	0	17	129458	500	0	{RIGHTARROW}	-999999	0	130457	0	{LEFTARROW}	315	130772	NA	NA	NA	NA	NA	NA	MapTrialProc	MapTrialList	NA	NA	NA	NA	NA	NA	NA	NA	NA	NA	NA	NA	NA	NA	NA	NA	NA	NA	right	NA	R.bmp	354	NA	NA	NA	NA	NA	NA	NA	NA	NA	NA	NA	NA	NA	NA	NA	NA	NA	NA	NA	NA	NA
Arrow Flanker 2014	12218	1	"<?xml version=""1.0""?>\n<Clock xmlns:dt=""urn:schemas-microsoft-com:datatypes""><Description dt:dt=""string"">E-Prime Primary Realtime Clock</Description><StartTime><Timestamp dt:dt=""int"">0</Timestamp><DateUtc dt:dt=""string"">2015-04-22T18:05:24Z</DateUtc></StartTime><FrequencyChanges><FrequencyChange><Frequency dt:dt=""r8"">2825556</Frequency><Timestamp dt:dt=""r8"">1271533933907</Timestamp><Current dt:dt=""r8"">0</Current><DateUtc dt:dt=""string"">2015-04-22T18:05:24Z</DateUtc></FrequencyChange></FrequencyChanges></Clock>\n"	Arrow Flanker 2014-12218-1	60.016	1.0.0.98	1	224150055	Professional	2.0.10.353	2.0.10.353	04-22-2015	4/22/2015 6:05:24 PM	14:05:24	2.0.10.248	1	NA	NA	NA	NA	NA	NA	NA	NA	NA	NA	NA	NA	NA	1	1	1	NA	NA	NA	NA	NA	NA	NA	NA	NA	NA	NA	MapBlockProc	MapBlockList	NA	9	{RIGHTARROW}	-100	NA	771	NA	2	1	9	0	16	132307	783	1	{RIGHTARROW}	-999999	0	133590	0	{RIGHTARROW}	470	134060	NA	NA	NA	NA	NA	NA	MapTrialProc	MapTrialList	NA	NA	NA	NA	NA	NA	NA	NA	NA	NA	NA	NA	NA	NA	NA	NA	NA	NA	right	NA	R.bmp	354	NA	NA	NA	NA	NA	NA	NA	NA	NA	NA	NA	NA	NA	NA	NA	NA	NA	NA	NA	NA	NA
Arrow Flanker 2014	12218	1	"<?xml version=""1.0""?>\n<Clock xmlns:dt=""urn:schemas-microsoft-com:datatypes""><Description dt:dt=""string"">E-Prime Primary Realtime Clock</Description><StartTime><Timestamp dt:dt=""int"">0</Timestamp><DateUtc dt:dt=""string"">2015-04-22T18:05:24Z</DateUtc></StartTime><FrequencyChanges><FrequencyChange><Frequency dt:dt=""r8"">2825556</Frequency><Timestamp dt:dt=""r8"">1271533933907</Timestamp><Current dt:dt=""r8"">0</Current><DateUtc dt:dt=""string"">2015-04-22T18:05:24Z</DateUtc></FrequencyChange></FrequencyChanges></Clock>\n"	Arrow Flanker 2014-12218-1	60.016	1.0.0.98	1	224150055	Professional	2.0.10.353	2.0.10.353	04-22-2015	4/22/2015 6:05:24 PM	14:05:24	2.0.10.248	1	NA	NA	NA	NA	NA	NA	NA	NA	NA	NA	NA	NA	NA	1	1	1	NA	NA	NA	NA	NA	NA	NA	NA	NA	NA	NA	MapBlockProc	MapBlockList	NA	10	{LEFTARROW}	-100	NA	1510	NA	1	1	10	0	16	135589	1517	1	{LEFTARROW}	-999999	-1	137605	0	{LEFTARROW}	423	138028	NA	NA	NA	NA	NA	NA	MapTrialProc	MapTrialList	NA	NA	NA	NA	NA	NA	NA	NA	NA	NA	NA	NA	NA	NA	NA	NA	NA	NA	left	NA	L.bmp	354	NA	NA	NA	NA	NA	NA	NA	NA	NA	NA	NA	NA	NA	NA	NA	NA	NA	NA	NA	NA	NA
Arrow Flanker 2014	12218	1	"<?xml version=""1.0""?>\n<Clock xmlns:dt=""urn:schemas-microsoft-com:datatypes""><Description dt:dt=""string"">E-Prime Primary Realtime Clock</Description><StartTime><Timestamp dt:dt=""int"">0</Timestamp><DateUtc dt:dt=""string"">2015-04-22T18:05:24Z</DateUtc></StartTime><FrequencyChanges><FrequencyChange><Frequency dt:dt=""r8"">2825556</Frequency><Timestamp dt:dt=""r8"">1271533933907</Timestamp><Current dt:dt=""r8"">0</Current><DateUtc dt:dt=""string"">2015-04-22T18:05:24Z</DateUtc></FrequencyChange></FrequencyChanges></Clock>\n"	Arrow Flanker 2014-12218-1	60.016	1.0.0.98	1	224150055	Professional	2.0.10.353	2.0.10.353	04-22-2015	4/22/2015 6:05:24 PM	14:05:24	2.0.10.248	2	NA	NA	NA	NA	NA	NA	NA	NA	NA	NA	NA	NA	NA	NA	NA	NA	NA	NA	NA	NA	NA	NA	NA	NA	1	1	1	PracBlockProc	PracBlockList	NA	1	{LEFTARROW}	-100	NA	1106	congruent	NA	NA	NA	0	7	161099	1117	1	{LEFTARROW}	-999999	0	162716	0	{LEFTARROW}	1263	163979	NA	1	1	1	NA	NA	PracTrialProc	PracTrialList	NA	NA	NA	NA	NA	NA	NA	NA	NA	NA	NA	NA	NA	NA	NA	NA	NA	NA	left	NA	lllll.bmp	354	NA	NA	NA	NA	NA	NA	NA	NA	NA	NA	NA	NA	NA	NA	NA	NA	NA	NA	NA	NA	NA
Arrow Flanker 2014	12218	1	"<?xml version=""1.0""?>\n<Clock xmlns:dt=""urn:schemas-microsoft-com:datatypes""><Description dt:dt=""string"">E-Prime Primary Realtime Clock</Description><StartTime><Timestamp dt:dt=""int"">0</Timestamp><DateUtc dt:dt=""string"">2015-04-22T18:05:24Z</DateUtc></StartTime><FrequencyChanges><FrequencyChange><Frequency dt:dt=""r8"">2825556</Frequency><Timestamp dt:dt=""r8"">1271533933907</Timestamp><Current dt:dt=""r8"">0</Current><DateUtc dt:dt=""string"">2015-04-22T18:05:24Z</DateUtc></FrequencyChange></FrequencyChanges></Clock>\n"	Arrow Flanker 2014-12218-1	60.016	1.0.0.98	1	224150055	Professional	2.0.10.353	2.0.10.353	04-22-2015	4/22/2015 6:05:24 PM	14:05:24	2.0.10.248	2	NA	NA	NA	NA	NA	NA	NA	NA	NA	NA	NA	NA	NA	NA	NA	NA	NA	NA	NA	NA	NA	NA	NA	NA	1	1	1	PracBlockProc	PracBlockList	NA	2	{RIGHTARROW}	-100	NA	849	congruent	NA	NA	NA	0	16	165515	850	1	{RIGHTARROW}	-999999	16	166881	0	{RIGHTARROW}	738	167619	NA	4	1	2	NA	NA	PracTrialProc	PracTrialList	NA	NA	NA	NA	NA	NA	NA	NA	NA	NA	NA	NA	NA	NA	NA	NA	NA	NA	right	NA	rrrrr.bmp	354	NA	NA	NA	NA	NA	NA	NA	NA	NA	NA	NA	NA	NA	NA	NA	NA	NA	NA	NA	NA	NA
Arrow Flanker 2014	12218	1	"<?xml version=""1.0""?>\n<Clock xmlns:dt=""urn:schemas-microsoft-com:datatypes""><Description dt:dt=""string"">E-Prime Primary Realtime Clock</Description><StartTime><Timestamp dt:dt=""int"">0</Timestamp><DateUtc dt:dt=""string"">2015-04-22T18:05:24Z</DateUtc></StartTime><FrequencyChanges><FrequencyChange><Frequency dt:dt=""r8"">2825556</Frequency><Timestamp dt:dt=""r8"">1271533933907</Timestamp><Current dt:dt=""r8"">0</Current><DateUtc dt:dt=""string"">2015-04-22T18:05:24Z</DateUtc></FrequencyChange></FrequencyChanges></Clock>\n"	Arrow Flanker 2014-12218-1	60.016	1.0.0.98	1	224150055	Professional	2.0.10.353	2.0.10.353	04-22-2015	4/22/2015 6:05:24 PM	14:05:24	2.0.10.248	2	NA	NA	NA	NA	NA	NA	NA	NA	NA	NA	NA	NA	NA	NA	NA	NA	NA	NA	NA	NA	NA	NA	NA	NA	1	1	1	PracBlockProc	PracBlockList	NA	3	{RIGHTARROW}	-100	NA	1543	neutral	NA	NA	NA	0	16	169147	1550	1	{RIGHTARROW}	-999999	0	171197	0	{RIGHTARROW}	878	172075	NA	6	1	3	NA	NA	PracTrialProc	PracTrialList	NA	NA	NA	NA	NA	NA	NA	NA	NA	NA	NA	NA	NA	NA	NA	NA	NA	NA	right	NA	ooroo.bmp	354	NA	NA	NA	NA	NA	NA	NA	NA	NA	NA	NA	NA	NA	NA	NA	NA	NA	NA	NA	NA	NA
Arrow Flanker 2014	12218	1	"<?xml version=""1.0""?>\n<Clock xmlns:dt=""urn:schemas-microsoft-com:datatypes""><Description dt:dt=""string"">E-Prime Primary Realtime Clock</Description><StartTime><Timestamp dt:dt=""int"">0</Timestamp><DateUtc dt:dt=""string"">2015-04-22T18:05:24Z</DateUtc></StartTime><FrequencyChanges><FrequencyChange><Frequency dt:dt=""r8"">2825556</Frequency><Timestamp dt:dt=""r8"">1271533933907</Timestamp><Current dt:dt=""r8"">0</Current><DateUtc dt:dt=""string"">2015-04-22T18:05:24Z</DateUtc></FrequencyChange></FrequencyChanges></Clock>\n"	Arrow Flanker 2014-12218-1	60.016	1.0.0.98	1	224150055	Professional	2.0.10.353	2.0.10.353	04-22-2015	4/22/2015 6:05:24 PM	14:05:24	2.0.10.248	2	NA	NA	NA	NA	NA	NA	NA	NA	NA	NA	NA	NA	NA	NA	NA	NA	NA	NA	NA	NA	NA	NA	NA	NA	1	1	1	PracBlockProc	PracBlockList	NA	4	{LEFTARROW}	-100	NA	1251	neutral	NA	NA	NA	0	17	173613	1266	1	{LEFTARROW}	-999999	0	175379	0	{LEFTARROW}	560	175939	NA	3	1	4	NA	NA	PracTrialProc	PracTrialList	NA	NA	NA	NA	NA	NA	NA	NA	NA	NA	NA	NA	NA	NA	NA	NA	NA	NA	left	NA	ooloo.bmp	354	NA	NA	NA	NA	NA	NA	NA	NA	NA	NA	NA	NA	NA	NA	NA	NA	NA	NA	NA	NA	NA
Arrow Flanker 2014	12218	1	"<?xml version=""1.0""?>\n<Clock xmlns:dt=""urn:schemas-microsoft-com:datatypes""><Description dt:dt=""string"">E-Prime Primary Realtime Clock</Description><StartTime><Timestamp dt:dt=""int"">0</Timestamp><DateUtc dt:dt=""string"">2015-04-22T18:05:24Z</DateUtc></StartTime><FrequencyChanges><FrequencyChange><Frequency dt:dt=""r8"">2825556</Frequency><Timestamp dt:dt=""r8"">1271533933907</Timestamp><Current dt:dt=""r8"">0</Current><DateUtc dt:dt=""string"">2015-04-22T18:05:24Z</DateUtc></FrequencyChange></FrequencyChanges></Clock>\n"	Arrow Flanker 2014-12218-1	60.016	1.0.0.98	1	224150055	Professional	2.0.10.353	2.0.10.353	04-22-2015	4/22/2015 6:05:24 PM	14:05:24	2.0.10.248	2	NA	NA	NA	NA	NA	NA	NA	NA	NA	NA	NA	NA	NA	NA	NA	NA	NA	NA	NA	NA	NA	NA	NA	NA	1	1	1	PracBlockProc	PracBlockList	NA	5	{LEFTARROW}	-100	NA	594	incongruent	NA	NA	NA	0	16	177478	600	1	{LEFTARROW}	-999999	0	178578	0	{LEFTARROW}	689	179267	NA	2	1	5	NA	NA	PracTrialProc	PracTrialList	NA	NA	NA	NA	NA	NA	NA	NA	NA	NA	NA	NA	NA	NA	NA	NA	NA	NA	left	NA	rrlrr.bmp	354	NA	NA	NA	NA	NA	NA	NA	NA	NA	NA	NA	NA	NA	NA	NA	NA	NA	NA	NA	NA	NA
Arrow Flanker 2014	12218	1	"<?xml version=""1.0""?>\n<Clock xmlns:dt=""urn:schemas-microsoft-com:datatypes""><Description dt:dt=""string"">E-Prime Primary Realtime Clock</Description><StartTime><Timestamp dt:dt=""int"">0</Timestamp><DateUtc dt:dt=""string"">2015-04-22T18:05:24Z</DateUtc></StartTime><FrequencyChanges><FrequencyChange><Frequency dt:dt=""r8"">2825556</Frequency><Timestamp dt:dt=""r8"">1271533933907</Timestamp><Current dt:dt=""r8"">0</Current><DateUtc dt:dt=""string"">2015-04-22T18:05:24Z</DateUtc></FrequencyChange></FrequencyChanges></Clock>\n"	Arrow Flanker 2014-12218-1	60.016	1.0.0.98	1	224150055	Professional	2.0.10.353	2.0.10.353	04-22-2015	4/22/2015 6:05:24 PM	14:05:24	2.0.10.248	2	NA	NA	NA	NA	NA	NA	NA	NA	NA	NA	NA	NA	NA	NA	NA	NA	NA	NA	NA	NA	NA	NA	NA	NA	1	1	1	PracBlockProc	PracBlockList	NA	6	{RIGHTARROW}	-100	NA	695	incongruent	NA	NA	NA	0	16	180794	700	1	{RIGHTARROW}	-999999	0	181994	0	{RIGHTARROW}	553	182547	NA	5	1	6	NA	NA	PracTrialProc	PracTrialList	NA	NA	NA	NA	NA	NA	NA	NA	NA	NA	NA	NA	NA	NA	NA	NA	NA	NA	right	NA	llrll.bmp	354	NA	NA	NA	NA	NA	NA	NA	NA	NA	NA	NA	NA	NA	NA	NA	NA	NA	NA	NA	NA	NA
Arrow Flanker 2014	12218	1	"<?xml version=""1.0""?>\n<Clock xmlns:dt=""urn:schemas-microsoft-com:datatypes""><Description dt:dt=""string"">E-Prime Primary Realtime Clock</Description><StartTime><Timestamp dt:dt=""int"">0</Timestamp><DateUtc dt:dt=""string"">2015-04-22T18:05:24Z</DateUtc></StartTime><FrequencyChanges><FrequencyChange><Frequency dt:dt=""r8"">2825556</Frequency><Timestamp dt:dt=""r8"">1271533933907</Timestamp><Current dt:dt=""r8"">0</Current><DateUtc dt:dt=""string"">2015-04-22T18:05:24Z</DateUtc></FrequencyChange></FrequencyChanges></Clock>\n"	Arrow Flanker 2014-12218-1	60.016	1.0.0.98	1	224150055	Professional	2.0.10.353	2.0.10.353	04-22-2015	4/22/2015 6:05:24 PM	14:05:24	2.0.10.248	3	1	1	1	NA	NA	NA	NA	NA	NA	NA	NA	NA	NA	NA	NA	NA	NA	NA	NA	NA	NA	NA	NA	NA	NA	NA	NA	BlockProc	BlockList	NA	1	{RIGHTARROW}	NA	-100	1916	incongruent	NA	NA	NA	NA	NA	NA	NA	NA	NA	NA	NA	NA	NA	NA	NA	NA	NA	NA	NA	NA	NA	NA	TrialProc	TrialList	0	10	199973	16	0	16	197590	1333	1	{RIGHTARROW}	-999999	0	199423	0	{RIGHTARROW}	540	199963	NA	NA	right	llrll.bmp	354	0	NA	0	0	0	0	NA	0	0	0	NA	0	0	0	0	NA	0	0	4	1	1
Arrow Flanker 2014	12218	1	"<?xml version=""1.0""?>\n<Clock xmlns:dt=""urn:schemas-microsoft-com:datatypes""><Description dt:dt=""string"">E-Prime Primary Realtime Clock</Description><StartTime><Timestamp dt:dt=""int"">0</Timestamp><DateUtc dt:dt=""string"">2015-04-22T18:05:24Z</DateUtc></StartTime><FrequencyChanges><FrequencyChange><Frequency dt:dt=""r8"">2825556</Frequency><Timestamp dt:dt=""r8"">1271533933907</Timestamp><Current dt:dt=""r8"">0</Current><DateUtc dt:dt=""string"">2015-04-22T18:05:24Z</DateUtc></FrequencyChange></FrequencyChanges></Clock>\n"	Arrow Flanker 2014-12218-1	60.016	1.0.0.98	1	224150055	Professional	2.0.10.353	2.0.10.353	04-22-2015	4/22/2015 6:05:24 PM	14:05:24	2.0.10.248	3	1	1	1	NA	NA	NA	NA	NA	NA	NA	NA	NA	NA	NA	NA	NA	NA	NA	NA	NA	NA	NA	NA	NA	NA	NA	NA	BlockProc	BlockList	NA	2	{RIGHTARROW}	NA	-100	508	incongruent	NA	NA	NA	NA	NA	NA	NA	NA	NA	NA	NA	NA	NA	NA	NA	NA	NA	NA	NA	NA	NA	NA	TrialProc	TrialList	1	12	202055	17	0	17	200506	483	1	{RIGHTARROW}	-999999	0	201489	0	{RIGHTARROW}	553	202042	NA	NA	right	llrll.bmp	354	0	NA	0	0	0	0	NA	0	0	0	NA	0	0	0	0	NA	0	0	4	1	2
Arrow Flanker 2014	12218	1	"<?xml version=""1.0""?>\n<Clock xmlns:dt=""urn:schemas-microsoft-com:datatypes""><Description dt:dt=""string"">E-Prime Primary Realtime Clock</Description><StartTime><Timestamp dt:dt=""int"">0</Timestamp><DateUtc dt:dt=""string"">2015-04-22T18:05:24Z</DateUtc></StartTime><FrequencyChanges><FrequencyChange><Frequency dt:dt=""r8"">2825556</Frequency><Timestamp dt:dt=""r8"">1271533933907</Timestamp><Current dt:dt=""r8"">0</Current><DateUtc dt:dt=""string"">2015-04-22T18:05:24Z</DateUtc></FrequencyChange></FrequencyChanges></Clock>\n"	Arrow Flanker 2014-12218-1	60.016	1.0.0.98	1	224150055	Professional	2.0.10.353	2.0.10.353	04-22-2015	4/22/2015 6:05:24 PM	14:05:24	2.0.10.248	3	1	1	1	NA	NA	NA	NA	NA	NA	NA	NA	NA	NA	NA	NA	NA	NA	NA	NA	NA	NA	NA	NA	NA	NA	NA	NA	BlockProc	BlockList	NA	3	{LEFTARROW}	NA	-100	899	neutral	NA	NA	NA	NA	NA	NA	NA	NA	NA	NA	NA	NA	NA	NA	NA	NA	NA	NA	NA	NA	NA	NA	TrialProc	TrialList	0	11	204405	16	0	17	202589	816	1	{LEFTARROW}	-999999	0	203905	0	{LEFTARROW}	489	204394	NA	NA	left	ooloo.bmp	354	0	NA	0	0	0	0	NA	0	0	0	NA	0	0	0	0	NA	0	0	5	1	3
Arrow Flanker 2014	12218	1	"<?xml version=""1.0""?>\n<Clock xmlns:dt=""urn:schemas-microsoft-com:datatypes""><Description dt:dt=""string"">E-Prime Primary Realtime Clock</Description><StartTime><Timestamp dt:dt=""int"">0</Timestamp><DateUtc dt:dt=""string"">2015-04-22T18:05:24Z</DateUtc></StartTime><FrequencyChanges><FrequencyChange><Frequency dt:dt=""r8"">2825556</Frequency><Timestamp dt:dt=""r8"">1271533933907</Timestamp><Current dt:dt=""r8"">0</Current><DateUtc dt:dt=""string"">2015-04-22T18:05:24Z</DateUtc></FrequencyChange></FrequencyChanges></Clock>\n"	Arrow Flanker 2014-12218-1	60.016	1.0.0.98	1	224150055	Professional	2.0.10.353	2.0.10.353	04-22-2015	4/22/2015 6:05:24 PM	14:05:24	2.0.10.248	3	1	1	1	NA	NA	NA	NA	NA	NA	NA	NA	NA	NA	NA	NA	NA	NA	NA	NA	NA	NA	NA	NA	NA	NA	NA	NA	BlockProc	BlockList	NA	4	{RIGHTARROW}	NA	-100	1097	neutral	NA	NA	NA	NA	NA	NA	NA	NA	NA	NA	NA	NA	NA	NA	NA	NA	NA	NA	NA	NA	NA	NA	TrialProc	TrialList	0	15	206954	17	0	17	204938	1066	1	{RIGHTARROW}	-999999	0	206504	0	{RIGHTARROW}	434	206938	NA	NA	right	ooroo.bmp	354	0	NA	0	0	0	0	NA	0	0	0	NA	0	0	0	0	NA	0	0	6	1	4
Arrow Flanker 2014	12218	1	"<?xml version=""1.0""?>\n<Clock xmlns:dt=""urn:schemas-microsoft-com:datatypes""><Description dt:dt=""string"">E-Prime Primary Realtime Clock</Description><StartTime><Timestamp dt:dt=""int"">0</Timestamp><DateUtc dt:dt=""string"">2015-04-22T18:05:24Z</DateUtc></StartTime><FrequencyChanges><FrequencyChange><Frequency dt:dt=""r8"">2825556</Frequency><Timestamp dt:dt=""r8"">1271533933907</Timestamp><Current dt:dt=""r8"">0</Current><DateUtc dt:dt=""string"">2015-04-22T18:05:24Z</DateUtc></FrequencyChange></FrequencyChanges></Clock>\n"	Arrow Flanker 2014-12218-1	60.016	1.0.0.98	1	224150055	Professional	2.0.10.353	2.0.10.353	04-22-2015	4/22/2015 6:05:24 PM	14:05:24	2.0.10.248	3	1	1	1	NA	NA	NA	NA	NA	NA	NA	NA	NA	NA	NA	NA	NA	NA	NA	NA	NA	NA	NA	NA	NA	NA	NA	NA	BlockProc	BlockList	NA	5	{LEFTARROW}	NA	-100	2063	incongruent	NA	NA	NA	NA	NA	NA	NA	NA	NA	NA	NA	NA	NA	NA	NA	NA	NA	NA	NA	NA	NA	NA	TrialProc	TrialList	0	16	209370	17	0	16	207487	900	0	{LEFTARROW}	-999999	0	208887	0	{RIGHTARROW}	467	209354	NA	NA	left	rrlrr.bmp	354	0	NA	0	0	0	0	NA	0	0	0	NA	0	0	0	0	NA	0	0	3	1	5
Arrow Flanker 2014	12218	1	"<?xml version=""1.0""?>\n<Clock xmlns:dt=""urn:schemas-microsoft-com:datatypes""><Description dt:dt=""string"">E-Prime Primary Realtime Clock</Description><StartTime><Timestamp dt:dt=""int"">0</Timestamp><DateUtc dt:dt=""string"">2015-04-22T18:05:24Z</DateUtc></StartTime><FrequencyChanges><FrequencyChange><Frequency dt:dt=""r8"">2825556</Frequency><Timestamp dt:dt=""r8"">1271533933907</Timestamp><Current dt:dt=""r8"">0</Current><DateUtc dt:dt=""string"">2015-04-22T18:05:24Z</DateUtc></FrequencyChange></FrequencyChanges></Clock>\n"	Arrow Flanker 2014-12218-1	60.016	1.0.0.98	1	224150055	Professional	2.0.10.353	2.0.10.353	04-22-2015	4/22/2015 6:05:24 PM	14:05:24	2.0.10.248	3	1	1	1	NA	NA	NA	NA	NA	NA	NA	NA	NA	NA	NA	NA	NA	NA	NA	NA	NA	NA	NA	NA	NA	NA	NA	NA	BlockProc	BlockList	NA	6	{RIGHTARROW}	NA	-100	1559	neutral	NA	NA	NA	NA	NA	NA	NA	NA	NA	NA	NA	NA	NA	NA	NA	NA	NA	NA	NA	NA	NA	NA	TrialProc	TrialList	1	7	211769	17	0	16	209903	900	1	{RIGHTARROW}	-999999	0	211303	0	{RIGHTARROW}	459	211762	NA	NA	right	ooroo.bmp	354	0	NA	0	0	0	0	NA	0	0	0	NA	0	0	0	0	NA	0	0	6	1	6
Arrow Flanker 2014	12218	1	"<?xml version=""1.0""?>\n<Clock xmlns:dt=""urn:schemas-microsoft-com:datatypes""><Description dt:dt=""string"">E-Prime Primary Realtime Clock</Description><StartTime><Timestamp dt:dt=""int"">0</Timestamp><DateUtc dt:dt=""string"">2015-04-22T18:05:24Z</DateUtc></StartTime><FrequencyChanges><FrequencyChange><Frequency dt:dt=""r8"">2825556</Frequency><Timestamp dt:dt=""r8"">1271533933907</Timestamp><Current dt:dt=""r8"">0</Current><DateUtc dt:dt=""string"">2015-04-22T18:05:24Z</DateUtc></FrequencyChange></FrequencyChanges></Clock>\n"	Arrow Flanker 2014-12218-1	60.016	1.0.0.98	1	224150055	Professional	2.0.10.353	2.0.10.353	04-22-2015	4/22/2015 6:05:24 PM	14:05:24	2.0.10.248	3	1	1	1	NA	NA	NA	NA	NA	NA	NA	NA	NA	NA	NA	NA	NA	NA	NA	NA	NA	NA	NA	NA	NA	NA	NA	NA	BlockProc	BlockList	NA	7	{RIGHTARROW}	NA	-100	2120	congruent	NA	NA	NA	NA	NA	NA	NA	NA	NA	NA	NA	NA	NA	NA	NA	NA	NA	NA	NA	NA	NA	NA	TrialProc	TrialList	1	15	214385	17	0	17	212303	1116	1	{RIGHTARROW}	-999999	0	213919	0	{RIGHTARROW}	451	214370	NA	NA	right	rrrrr.bmp	354	0	NA	0	0	0	0	NA	0	0	0	NA	0	0	0	0	NA	0	0	2	1	7
Arrow Flanker 2014	12218	1	"<?xml version=""1.0""?>\n<Clock xmlns:dt=""urn:schemas-microsoft-com:datatypes""><Description dt:dt=""string"">E-Prime Primary Realtime Clock</Description><StartTime><Timestamp dt:dt=""int"">0</Timestamp><DateUtc dt:dt=""string"">2015-04-22T18:05:24Z</DateUtc></StartTime><FrequencyChanges><FrequencyChange><Frequency dt:dt=""r8"">2825556</Frequency><Timestamp dt:dt=""r8"">1271533933907</Timestamp><Current dt:dt=""r8"">0</Current><DateUtc dt:dt=""string"">2015-04-22T18:05:24Z</DateUtc></FrequencyChange></FrequencyChanges></Clock>\n"	Arrow Flanker 2014-12218-1	60.016	1.0.0.98	1	224150055	Professional	2.0.10.353	2.0.10.353	04-22-2015	4/22/2015 6:05:24 PM	14:05:24	2.0.10.248	3	1	1	1	NA	NA	NA	NA	NA	NA	NA	NA	NA	NA	NA	NA	NA	NA	NA	NA	NA	NA	NA	NA	NA	NA	NA	NA	BlockProc	BlockList	NA	8	{RIGHTARROW}	NA	-100	1260	incongruent	NA	NA	NA	NA	NA	NA	NA	NA	NA	NA	NA	NA	NA	NA	NA	NA	NA	NA	NA	NA	NA	NA	TrialProc	TrialList	1	7	217001	17	0	17	214919	1033	1	{RIGHTARROW}	-999999	-1	216451	0	{RIGHTARROW}	543	216994	NA	NA	right	llrll.bmp	354	0	NA	0	0	0	0	NA	0	0	0	NA	0	0	0	0	NA	0	0	4	1	8
Arrow Flanker 2014	12218	1	"<?xml version=""1.0""?>\n<Clock xmlns:dt=""urn:schemas-microsoft-com:datatypes""><Description dt:dt=""string"">E-Prime Primary Realtime Clock</Description><StartTime><Timestamp dt:dt=""int"">0</Timestamp><DateUtc dt:dt=""string"">2015-04-22T18:05:24Z</DateUtc></StartTime><FrequencyChanges><FrequencyChange><Frequency dt:dt=""r8"">2825556</Frequency><Timestamp dt:dt=""r8"">1271533933907</Timestamp><Current dt:dt=""r8"">0</Current><DateUtc dt:dt=""string"">2015-04-22T18:05:24Z</DateUtc></FrequencyChange></FrequencyChanges></Clock>\n"	Arrow Flanker 2014-12218-1	60.016	1.0.0.98	1	224150055	Professional	2.0.10.353	2.0.10.353	04-22-2015	4/22/2015 6:05:24 PM	14:05:24	2.0.10.248	3	1	1	1	NA	NA	NA	NA	NA	NA	NA	NA	NA	NA	NA	NA	NA	NA	NA	NA	NA	NA	NA	NA	NA	NA	NA	NA	BlockProc	BlockList	NA	9	{LEFTARROW}	NA	-100	1777	incongruent	NA	NA	NA	NA	NA	NA	NA	NA	NA	NA	NA	NA	NA	NA	NA	NA	NA	NA	NA	NA	NA	NA	TrialProc	TrialList	1	13	219767	17	0	17	217535	1149	1	{LEFTARROW}	-999999	0	219184	0	{LEFTARROW}	570	219754	NA	NA	left	rrlrr.bmp	354	0	NA	0	0	0	0	NA	0	0	0	NA	0	0	0	0	NA	0	0	3	1	9
Arrow Flanker 2014	12218	1	"<?xml version=""1.0""?>\n<Clock xmlns:dt=""urn:schemas-microsoft-com:datatypes""><Description dt:dt=""string"">E-Prime Primary Realtime Clock</Description><StartTime><Timestamp dt:dt=""int"">0</Timestamp><DateUtc dt:dt=""string"">2015-04-22T18:05:24Z</DateUtc></StartTime><FrequencyChanges><FrequencyChange><Frequency dt:dt=""r8"">2825556</Frequency><Timestamp dt:dt=""r8"">1271533933907</Timestamp><Current dt:dt=""r8"">0</Current><DateUtc dt:dt=""string"">2015-04-22T18:05:24Z</DateUtc></FrequencyChange></FrequencyChanges></Clock>\n"	Arrow Flanker 2014-12218-1	60.016	1.0.0.98	1	224150055	Professional	2.0.10.353	2.0.10.353	04-22-2015	4/22/2015 6:05:24 PM	14:05:24	2.0.10.248	3	1	1	1	NA	NA	NA	NA	NA	NA	NA	NA	NA	NA	NA	NA	NA	NA	NA	NA	NA	NA	NA	NA	NA	NA	NA	NA	BlockProc	BlockList	NA	10	{RIGHTARROW}	NA	-100	1195	congruent	NA	NA	NA	NA	NA	NA	NA	NA	NA	NA	NA	NA	NA	NA	NA	NA	NA	NA	NA	NA	NA	NA	TrialProc	TrialList	1	3	222133	17	0	16	220300	950	1	{RIGHTARROW}	-999999	0	221750	0	{RIGHTARROW}	380	222130	NA	NA	right	rrrrr.bmp	354	0	NA	0	0	0	0	NA	0	0	0	NA	0	0	0	0	NA	0	0	2	1	10
Arrow Flanker 2014	12218	1	"<?xml version=""1.0""?>\n<Clock xmlns:dt=""urn:schemas-microsoft-com:datatypes""><Description dt:dt=""string"">E-Prime Primary Realtime Clock</Description><StartTime><Timestamp dt:dt=""int"">0</Timestamp><DateUtc dt:dt=""string"">2015-04-22T18:05:24Z</DateUtc></StartTime><FrequencyChanges><FrequencyChange><Frequency dt:dt=""r8"">2825556</Frequency><Timestamp dt:dt=""r8"">1271533933907</Timestamp><Current dt:dt=""r8"">0</Current><DateUtc dt:dt=""string"">2015-04-22T18:05:24Z</DateUtc></FrequencyChange></FrequencyChanges></Clock>\n"	Arrow Flanker 2014-12218-1	60.016	1.0.0.98	1	224150055	Professional	2.0.10.353	2.0.10.353	04-22-2015	4/22/2015 6:05:24 PM	14:05:24	2.0.10.248	3	1	1	1	NA	NA	NA	NA	NA	NA	NA	NA	NA	NA	NA	NA	NA	NA	NA	NA	NA	NA	NA	NA	NA	NA	NA	NA	BlockProc	BlockList	NA	11	{LEFTARROW}	NA	-100	1488	incongruent	NA	NA	NA	NA	NA	NA	NA	NA	NA	NA	NA	NA	NA	NA	NA	NA	NA	NA	NA	NA	NA	NA	TrialProc	TrialList	1	17	224299	17	0	17	222667	566	1	{LEFTARROW}	-999999	0	223733	0	{LEFTARROW}	549	224282	NA	NA	left	rrlrr.bmp	354	0	NA	0	0	0	0	NA	0	0	0	NA	0	0	0	0	NA	0	0	3	1	11
Arrow Flanker 2014	12218	1	"<?xml version=""1.0""?>\n<Clock xmlns:dt=""urn:schemas-microsoft-com:datatypes""><Description dt:dt=""string"">E-Prime Primary Realtime Clock</Description><StartTime><Timestamp dt:dt=""int"">0</Timestamp><DateUtc dt:dt=""string"">2015-04-22T18:05:24Z</DateUtc></StartTime><FrequencyChanges><FrequencyChange><Frequency dt:dt=""r8"">2825556</Frequency><Timestamp dt:dt=""r8"">1271533933907</Timestamp><Current dt:dt=""r8"">0</Current><DateUtc dt:dt=""string"">2015-04-22T18:05:24Z</DateUtc></FrequencyChange></FrequencyChanges></Clock>\n"	Arrow Flanker 2014-12218-1	60.016	1.0.0.98	1	224150055	Professional	2.0.10.353	2.0.10.353	04-22-2015	4/22/2015 6:05:24 PM	14:05:24	2.0.10.248	3	1	1	1	NA	NA	NA	NA	NA	NA	NA	NA	NA	NA	NA	NA	NA	NA	NA	NA	NA	NA	NA	NA	NA	NA	NA	NA	BlockProc	BlockList	NA	12	{LEFTARROW}	NA	-100	1480	incongruent	NA	NA	NA	NA	NA	NA	NA	NA	NA	NA	NA	NA	NA	NA	NA	NA	NA	NA	NA	NA	NA	NA	TrialProc	TrialList	1	17	226915	17	0	17	224833	1183	0	{LEFTARROW}	-999999	0	226516	0	{RIGHTARROW}	382	226898	NA	NA	left	rrlrr.bmp	354	0	NA	0	0	0	0	NA	0	0	0	NA	0	0	0	0	NA	0	0	3	1	12
Arrow Flanker 2014	12218	1	"<?xml version=""1.0""?>\n<Clock xmlns:dt=""urn:schemas-microsoft-com:datatypes""><Description dt:dt=""string"">E-Prime Primary Realtime Clock</Description><StartTime><Timestamp dt:dt=""int"">0</Timestamp><DateUtc dt:dt=""string"">2015-04-22T18:05:24Z</DateUtc></StartTime><FrequencyChanges><FrequencyChange><Frequency dt:dt=""r8"">2825556</Frequency><Timestamp dt:dt=""r8"">1271533933907</Timestamp><Current dt:dt=""r8"">0</Current><DateUtc dt:dt=""string"">2015-04-22T18:05:24Z</DateUtc></FrequencyChange></FrequencyChanges></Clock>\n"	Arrow Flanker 2014-12218-1	60.016	1.0.0.98	1	224150055	Professional	2.0.10.353	2.0.10.353	04-22-2015	4/22/2015 6:05:24 PM	14:05:24	2.0.10.248	3	1	1	1	NA	NA	NA	NA	NA	NA	NA	NA	NA	NA	NA	NA	NA	NA	NA	NA	NA	NA	NA	NA	NA	NA	NA	NA	BlockProc	BlockList	NA	13	{RIGHTARROW}	NA	-100	2214	congruent	NA	NA	NA	NA	NA	NA	NA	NA	NA	NA	NA	NA	NA	NA	NA	NA	NA	NA	NA	NA	NA	NA	TrialProc	TrialList	0	2	229548	17	0	17	227449	1149	1	{RIGHTARROW}	-999999	0	229098	0	{RIGHTARROW}	448	229546	NA	NA	right	rrrrr.bmp	354	0	NA	0	0	0	0	NA	0	0	0	NA	0	0	0	0	NA	0	0	2	1	13
Arrow Flanker 2014	12218	1	"<?xml version=""1.0""?>\n<Clock xmlns:dt=""urn:schemas-microsoft-com:datatypes""><Description dt:dt=""string"">E-Prime Primary Realtime Clock</Description><StartTime><Timestamp dt:dt=""int"">0</Timestamp><DateUtc dt:dt=""string"">2015-04-22T18:05:24Z</DateUtc></StartTime><FrequencyChanges><FrequencyChange><Frequency dt:dt=""r8"">2825556</Frequency><Timestamp dt:dt=""r8"">1271533933907</Timestamp><Current dt:dt=""r8"">0</Current><DateUtc dt:dt=""string"">2015-04-22T18:05:24Z</DateUtc></FrequencyChange></FrequencyChanges></Clock>\n"	Arrow Flanker 2014-12218-1	60.016	1.0.0.98	1	224150055	Professional	2.0.10.353	2.0.10.353	04-22-2015	4/22/2015 6:05:24 PM	14:05:24	2.0.10.248	3	1	1	1	NA	NA	NA	NA	NA	NA	NA	NA	NA	NA	NA	NA	NA	NA	NA	NA	NA	NA	NA	NA	NA	NA	NA	NA	BlockProc	BlockList	NA	14	{LEFTARROW}	NA	-100	1261	incongruent	NA	NA	NA	NA	NA	NA	NA	NA	NA	NA	NA	NA	NA	NA	NA	NA	NA	NA	NA	NA	NA	NA	TrialProc	TrialList	1	2	232164	17	0	16	230081	1017	1	{LEFTARROW}	-999999	0	231598	0	{LEFTARROW}	564	232162	NA	NA	left	rrlrr.bmp	354	0	NA	0	0	0	0	NA	0	0	0	NA	0	0	0	0	NA	0	0	3	1	14
Arrow Flanker 2014	12218	1	"<?xml version=""1.0""?>\n<Clock xmlns:dt=""urn:schemas-microsoft-com:datatypes""><Description dt:dt=""string"">E-Prime Primary Realtime Clock</Description><StartTime><Timestamp dt:dt=""int"">0</Timestamp><DateUtc dt:dt=""string"">2015-04-22T18:05:24Z</DateUtc></StartTime><FrequencyChanges><FrequencyChange><Frequency dt:dt=""r8"">2825556</Frequency><Timestamp dt:dt=""r8"">1271533933907</Timestamp><Current dt:dt=""r8"">0</Current><DateUtc dt:dt=""string"">2015-04-22T18:05:24Z</DateUtc></FrequencyChange></FrequencyChanges></Clock>\n"	Arrow Flanker 2014-12218-1	60.016	1.0.0.98	1	224150055	Professional	2.0.10.353	2.0.10.353	04-22-2015	4/22/2015 6:05:24 PM	14:05:24	2.0.10.248	3	1	1	1	NA	NA	NA	NA	NA	NA	NA	NA	NA	NA	NA	NA	NA	NA	NA	NA	NA	NA	NA	NA	NA	NA	NA	NA	BlockProc	BlockList	NA	15	{LEFTARROW}	NA	-100	779	neutral	NA	NA	NA	NA	NA	NA	NA	NA	NA	NA	NA	NA	NA	NA	NA	NA	NA	NA	NA	NA	NA	NA	TrialProc	TrialList	1	9	234563	17	0	16	232697	767	1	{LEFTARROW}	-999999	0	233964	0	{LEFTARROW}	590	234554	NA	NA	left	ooloo.bmp	354	0	NA	0	0	0	0	NA	0	0	0	NA	0	0	0	0	NA	0	0	5	1	15
Arrow Flanker 2014	12218	1	"<?xml version=""1.0""?>\n<Clock xmlns:dt=""urn:schemas-microsoft-com:datatypes""><Description dt:dt=""string"">E-Prime Primary Realtime Clock</Description><StartTime><Timestamp dt:dt=""int"">0</Timestamp><DateUtc dt:dt=""string"">2015-04-22T18:05:24Z</DateUtc></StartTime><FrequencyChanges><FrequencyChange><Frequency dt:dt=""r8"">2825556</Frequency><Timestamp dt:dt=""r8"">1271533933907</Timestamp><Current dt:dt=""r8"">0</Current><DateUtc dt:dt=""string"">2015-04-22T18:05:24Z</DateUtc></FrequencyChange></FrequencyChanges></Clock>\n"	Arrow Flanker 2014-12218-1	60.016	1.0.0.98	1	224150055	Professional	2.0.10.353	2.0.10.353	04-22-2015	4/22/2015 6:05:24 PM	14:05:24	2.0.10.248	3	1	1	1	NA	NA	NA	NA	NA	NA	NA	NA	NA	NA	NA	NA	NA	NA	NA	NA	NA	NA	NA	NA	NA	NA	NA	NA	BlockProc	BlockList	NA	16	{RIGHTARROW}	NA	-100	1635	neutral	NA	NA	NA	NA	NA	NA	NA	NA	NA	NA	NA	NA	NA	NA	NA	NA	NA	NA	NA	NA	NA	NA	TrialProc	TrialList	1	2	236580	16	0	17	235097	499	1	{RIGHTARROW}	-999999	0	236096	0	{RIGHTARROW}	482	236578	NA	NA	right	ooroo.bmp	354	0	NA	0	0	0	0	NA	0	0	0	NA	0	0	0	0	NA	0	0	6	1	16
Arrow Flanker 2014	12218	1	"<?xml version=""1.0""?>\n<Clock xmlns:dt=""urn:schemas-microsoft-com:datatypes""><Description dt:dt=""string"">E-Prime Primary Realtime Clock</Description><StartTime><Timestamp dt:dt=""int"">0</Timestamp><DateUtc dt:dt=""string"">2015-04-22T18:05:24Z</DateUtc></StartTime><FrequencyChanges><FrequencyChange><Frequency dt:dt=""r8"">2825556</Frequency><Timestamp dt:dt=""r8"">1271533933907</Timestamp><Current dt:dt=""r8"">0</Current><DateUtc dt:dt=""string"">2015-04-22T18:05:24Z</DateUtc></FrequencyChange></FrequencyChanges></Clock>\n"	Arrow Flanker 2014-12218-1	60.016	1.0.0.98	1	224150055	Professional	2.0.10.353	2.0.10.353	04-22-2015	4/22/2015 6:05:24 PM	14:05:24	2.0.10.248	3	1	1	1	NA	NA	NA	NA	NA	NA	NA	NA	NA	NA	NA	NA	NA	NA	NA	NA	NA	NA	NA	NA	NA	NA	NA	NA	BlockProc	BlockList	NA	17	{RIGHTARROW}	NA	-100	2259	incongruent	NA	NA	NA	NA	NA	NA	NA	NA	NA	NA	NA	NA	NA	NA	NA	NA	NA	NA	NA	NA	NA	NA	TrialProc	TrialList	0	7	239329	17	0	17	237113	1249	0	{RIGHTARROW}	-999999	0	238862	0	{LEFTARROW}	459	239321	NA	NA	right	llrll.bmp	354	0	NA	0	0	0	0	NA	0	0	0	NA	0	0	0	0	NA	0	0	4	1	17
Arrow Flanker 2014	12218	1	"<?xml version=""1.0""?>\n<Clock xmlns:dt=""urn:schemas-microsoft-com:datatypes""><Description dt:dt=""string"">E-Prime Primary Realtime Clock</Description><StartTime><Timestamp dt:dt=""int"">0</Timestamp><DateUtc dt:dt=""string"">2015-04-22T18:05:24Z</DateUtc></StartTime><FrequencyChanges><FrequencyChange><Frequency dt:dt=""r8"">2825556</Frequency><Timestamp dt:dt=""r8"">1271533933907</Timestamp><Current dt:dt=""r8"">0</Current><DateUtc dt:dt=""string"">2015-04-22T18:05:24Z</DateUtc></FrequencyChange></FrequencyChanges></Clock>\n"	Arrow Flanker 2014-12218-1	60.016	1.0.0.98	1	224150055	Professional	2.0.10.353	2.0.10.353	04-22-2015	4/22/2015 6:05:24 PM	14:05:24	2.0.10.248	3	1	1	1	NA	NA	NA	NA	NA	NA	NA	NA	NA	NA	NA	NA	NA	NA	NA	NA	NA	NA	NA	NA	NA	NA	NA	NA	BlockProc	BlockList	NA	18	{RIGHTARROW}	NA	-100	1009	congruent	NA	NA	NA	NA	NA	NA	NA	NA	NA	NA	NA	NA	NA	NA	NA	NA	NA	NA	NA	NA	NA	NA	TrialProc	TrialList	0	5	241662	16	0	16	239862	567	1	{RIGHTARROW}	-999999	16	240945	0	{RIGHTARROW}	712	241657	NA	NA	right	rrrrr.bmp	354	0	NA	0	0	0	0	NA	0	0	0	NA	0	0	0	0	NA	0	0	2	1	18
Arrow Flanker 2014	12218	1	"<?xml version=""1.0""?>\n<Clock xmlns:dt=""urn:schemas-microsoft-com:datatypes""><Description dt:dt=""string"">E-Prime Primary Realtime Clock</Description><StartTime><Timestamp dt:dt=""int"">0</Timestamp><DateUtc dt:dt=""string"">2015-04-22T18:05:24Z</DateUtc></StartTime><FrequencyChanges><FrequencyChange><Frequency dt:dt=""r8"">2825556</Frequency><Timestamp dt:dt=""r8"">1271533933907</Timestamp><Current dt:dt=""r8"">0</Current><DateUtc dt:dt=""string"">2015-04-22T18:05:24Z</DateUtc></FrequencyChange></FrequencyChanges></Clock>\n"	Arrow Flanker 2014-12218-1	60.016	1.0.0.98	1	224150055	Professional	2.0.10.353	2.0.10.353	04-22-2015	4/22/2015 6:05:24 PM	14:05:24	2.0.10.248	3	1	1	1	NA	NA	NA	NA	NA	NA	NA	NA	NA	NA	NA	NA	NA	NA	NA	NA	NA	NA	NA	NA	NA	NA	NA	NA	BlockProc	BlockList	NA	19	{RIGHTARROW}	NA	-100	1884	incongruent	NA	NA	NA	NA	NA	NA	NA	NA	NA	NA	NA	NA	NA	NA	NA	NA	NA	NA	NA	NA	NA	NA	TrialProc	TrialList	0	12	244061	17	0	17	242195	766	1	{RIGHTARROW}	-999999	0	243461	0	{RIGHTARROW}	588	244049	NA	NA	right	llrll.bmp	354	0	NA	0	0	0	0	NA	0	0	0	NA	0	0	0	0	NA	0	0	4	1	19
Arrow Flanker 2014	12218	1	"<?xml version=""1.0""?>\n<Clock xmlns:dt=""urn:schemas-microsoft-com:datatypes""><Description dt:dt=""string"">E-Prime Primary Realtime Clock</Description><StartTime><Timestamp dt:dt=""int"">0</Timestamp><DateUtc dt:dt=""string"">2015-04-22T18:05:24Z</DateUtc></StartTime><FrequencyChanges><FrequencyChange><Frequency dt:dt=""r8"">2825556</Frequency><Timestamp dt:dt=""r8"">1271533933907</Timestamp><Current dt:dt=""r8"">0</Current><DateUtc dt:dt=""string"">2015-04-22T18:05:24Z</DateUtc></FrequencyChange></FrequencyChanges></Clock>\n"	Arrow Flanker 2014-12218-1	60.016	1.0.0.98	1	224150055	Professional	2.0.10.353	2.0.10.353	04-22-2015	4/22/2015 6:05:24 PM	14:05:24	2.0.10.248	3	1	1	1	NA	NA	NA	NA	NA	NA	NA	NA	NA	NA	NA	NA	NA	NA	NA	NA	NA	NA	NA	NA	NA	NA	NA	NA	BlockProc	BlockList	NA	20	{LEFTARROW}	NA	-100	1755	neutral	NA	NA	NA	NA	NA	NA	NA	NA	NA	NA	NA	NA	NA	NA	NA	NA	NA	NA	NA	NA	NA	NA	TrialProc	TrialList	0	15	246744	16	0	16	244594	1117	1	{LEFTARROW}	-999999	0	246227	0	{LEFTARROW}	502	246729	NA	NA	left	ooloo.bmp	354	0	NA	0	0	0	0	NA	0	0	0	NA	0	0	0	0	NA	0	0	5	1	20
Arrow Flanker 2014	12218	1	"<?xml version=""1.0""?>\n<Clock xmlns:dt=""urn:schemas-microsoft-com:datatypes""><Description dt:dt=""string"">E-Prime Primary Realtime Clock</Description><StartTime><Timestamp dt:dt=""int"">0</Timestamp><DateUtc dt:dt=""string"">2015-04-22T18:05:24Z</DateUtc></StartTime><FrequencyChanges><FrequencyChange><Frequency dt:dt=""r8"">2825556</Frequency><Timestamp dt:dt=""r8"">1271533933907</Timestamp><Current dt:dt=""r8"">0</Current><DateUtc dt:dt=""string"">2015-04-22T18:05:24Z</DateUtc></FrequencyChange></FrequencyChanges></Clock>\n"	Arrow Flanker 2014-12218-1	60.016	1.0.0.98	1	224150055	Professional	2.0.10.353	2.0.10.353	04-22-2015	4/22/2015 6:05:24 PM	14:05:24	2.0.10.248	3	1	1	1	NA	NA	NA	NA	NA	NA	NA	NA	NA	NA	NA	NA	NA	NA	NA	NA	NA	NA	NA	NA	NA	NA	NA	NA	BlockProc	BlockList	NA	21	{RIGHTARROW}	NA	-100	2383	neutral	NA	NA	NA	NA	NA	NA	NA	NA	NA	NA	NA	NA	NA	NA	NA	NA	NA	NA	NA	NA	NA	NA	TrialProc	TrialList	1	16	249809	17	0	17	247277	1249	1	{RIGHTARROW}	-999999	0	249026	0	{RIGHTARROW}	767	249793	NA	NA	right	ooroo.bmp	354	0	NA	0	0	0	0	NA	0	0	0	NA	0	0	0	0	NA	0	0	6	1	21
Arrow Flanker 2014	12218	1	"<?xml version=""1.0""?>\n<Clock xmlns:dt=""urn:schemas-microsoft-com:datatypes""><Description dt:dt=""string"">E-Prime Primary Realtime Clock</Description><StartTime><Timestamp dt:dt=""int"">0</Timestamp><DateUtc dt:dt=""string"">2015-04-22T18:05:24Z</DateUtc></StartTime><FrequencyChanges><FrequencyChange><Frequency dt:dt=""r8"">2825556</Frequency><Timestamp dt:dt=""r8"">1271533933907</Timestamp><Current dt:dt=""r8"">0</Current><DateUtc dt:dt=""string"">2015-04-22T18:05:24Z</DateUtc></FrequencyChange></FrequencyChanges></Clock>\n"	Arrow Flanker 2014-12218-1	60.016	1.0.0.98	1	224150055	Professional	2.0.10.353	2.0.10.353	04-22-2015	4/22/2015 6:05:24 PM	14:05:24	2.0.10.248	3	1	1	1	NA	NA	NA	NA	NA	NA	NA	NA	NA	NA	NA	NA	NA	NA	NA	NA	NA	NA	NA	NA	NA	NA	NA	NA	BlockProc	BlockList	NA	22	{LEFTARROW}	NA	-100	1009	incongruent	NA	NA	NA	NA	NA	NA	NA	NA	NA	NA	NA	NA	NA	NA	NA	NA	NA	NA	NA	NA	2	1	TrialProc	TrialList	0	6	251759	17	0	17	250343	416	1	{LEFTARROW}	-999999	0	251259	0	{LEFTARROW}	494	251753	NA	NA	left	rrlrr.bmp	354	0	NA	-999999	16	252292	0	1	2673	254965	0	NA	-999999	10	254975	0	1	2062	257037	3	1	22
Arrow Flanker 2014	12218	1	"<?xml version=""1.0""?>\n<Clock xmlns:dt=""urn:schemas-microsoft-com:datatypes""><Description dt:dt=""string"">E-Prime Primary Realtime Clock</Description><StartTime><Timestamp dt:dt=""int"">0</Timestamp><DateUtc dt:dt=""string"">2015-04-22T18:05:24Z</DateUtc></StartTime><FrequencyChanges><FrequencyChange><Frequency dt:dt=""r8"">2825556</Frequency><Timestamp dt:dt=""r8"">1271533933907</Timestamp><Current dt:dt=""r8"">0</Current><DateUtc dt:dt=""string"">2015-04-22T18:05:24Z</DateUtc></FrequencyChange></FrequencyChanges></Clock>\n"	Arrow Flanker 2014-12218-1	60.016	1.0.0.98	1	224150055	Professional	2.0.10.353	2.0.10.353	04-22-2015	4/22/2015 6:05:24 PM	14:05:24	2.0.10.248	3	1	1	1	NA	NA	NA	NA	NA	NA	NA	NA	NA	NA	NA	NA	NA	NA	NA	NA	NA	NA	NA	NA	NA	NA	NA	NA	BlockProc	BlockList	NA	23	{RIGHTARROW}	NA	-100	1647	neutral	NA	NA	NA	NA	NA	NA	NA	NA	NA	NA	NA	NA	NA	NA	NA	NA	NA	NA	NA	NA	NA	NA	TrialProc	TrialList	0	10	260107	16	0	13	258374	633	1	{RIGHTARROW}	-999999	0	259507	0	{RIGHTARROW}	590	260097	NA	NA	right	ooroo.bmp	354	0	NA	0	0	0	0	NA	0	0	0	NA	0	0	0	0	NA	0	0	6	1	23
Arrow Flanker 2014	12218	1	"<?xml version=""1.0""?>\n<Clock xmlns:dt=""urn:schemas-microsoft-com:datatypes""><Description dt:dt=""string"">E-Prime Primary Realtime Clock</Description><StartTime><Timestamp dt:dt=""int"">0</Timestamp><DateUtc dt:dt=""string"">2015-04-22T18:05:24Z</DateUtc></StartTime><FrequencyChanges><FrequencyChange><Frequency dt:dt=""r8"">2825556</Frequency><Timestamp dt:dt=""r8"">1271533933907</Timestamp><Current dt:dt=""r8"">0</Current><DateUtc dt:dt=""string"">2015-04-22T18:05:24Z</DateUtc></FrequencyChange></FrequencyChanges></Clock>\n"	Arrow Flanker 2014-12218-1	60.016	1.0.0.98	1	224150055	Professional	2.0.10.353	2.0.10.353	04-22-2015	4/22/2015 6:05:24 PM	14:05:24	2.0.10.248	3	1	1	1	NA	NA	NA	NA	NA	NA	NA	NA	NA	NA	NA	NA	NA	NA	NA	NA	NA	NA	NA	NA	NA	NA	NA	NA	BlockProc	BlockList	NA	24	{RIGHTARROW}	NA	-100	1307	congruent	NA	NA	NA	NA	NA	NA	NA	NA	NA	NA	NA	NA	NA	NA	NA	NA	NA	NA	NA	NA	NA	NA	TrialProc	TrialList	0	15	262656	17	0	17	260640	1117	1	{RIGHTARROW}	-999999	0	262256	0	{RIGHTARROW}	385	262641	NA	NA	right	rrrrr.bmp	354	0	NA	0	0	0	0	NA	0	0	0	NA	0	0	0	0	NA	0	0	2	1	24
Arrow Flanker 2014	12218	1	"<?xml version=""1.0""?>\n<Clock xmlns:dt=""urn:schemas-microsoft-com:datatypes""><Description dt:dt=""string"">E-Prime Primary Realtime Clock</Description><StartTime><Timestamp dt:dt=""int"">0</Timestamp><DateUtc dt:dt=""string"">2015-04-22T18:05:24Z</DateUtc></StartTime><FrequencyChanges><FrequencyChange><Frequency dt:dt=""r8"">2825556</Frequency><Timestamp dt:dt=""r8"">1271533933907</Timestamp><Current dt:dt=""r8"">0</Current><DateUtc dt:dt=""string"">2015-04-22T18:05:24Z</DateUtc></FrequencyChange></FrequencyChanges></Clock>\n"	Arrow Flanker 2014-12218-1	60.016	1.0.0.98	1	224150055	Professional	2.0.10.353	2.0.10.353	04-22-2015	4/22/2015 6:05:24 PM	14:05:24	2.0.10.248	3	1	1	1	NA	NA	NA	NA	NA	NA	NA	NA	NA	NA	NA	NA	NA	NA	NA	NA	NA	NA	NA	NA	NA	NA	NA	NA	BlockProc	BlockList	NA	25	{RIGHTARROW}	NA	-100	1815	incongruent	NA	NA	NA	NA	NA	NA	NA	NA	NA	NA	NA	NA	NA	NA	NA	NA	NA	NA	NA	NA	NA	NA	TrialProc	TrialList	0	16	265689	16	0	16	263189	1433	1	{RIGHTARROW}	-999999	0	265122	0	{RIGHTARROW}	551	265673	NA	NA	right	llrll.bmp	354	0	NA	0	0	0	0	NA	0	0	0	NA	0	0	0	0	NA	0	0	4	1	25
Arrow Flanker 2014	12218	1	"<?xml version=""1.0""?>\n<Clock xmlns:dt=""urn:schemas-microsoft-com:datatypes""><Description dt:dt=""string"">E-Prime Primary Realtime Clock</Description><StartTime><Timestamp dt:dt=""int"">0</Timestamp><DateUtc dt:dt=""string"">2015-04-22T18:05:24Z</DateUtc></StartTime><FrequencyChanges><FrequencyChange><Frequency dt:dt=""r8"">2825556</Frequency><Timestamp dt:dt=""r8"">1271533933907</Timestamp><Current dt:dt=""r8"">0</Current><DateUtc dt:dt=""string"">2015-04-22T18:05:24Z</DateUtc></FrequencyChange></FrequencyChanges></Clock>\n"	Arrow Flanker 2014-12218-1	60.016	1.0.0.98	1	224150055	Professional	2.0.10.353	2.0.10.353	04-22-2015	4/22/2015 6:05:24 PM	14:05:24	2.0.10.248	3	1	1	1	NA	NA	NA	NA	NA	NA	NA	NA	NA	NA	NA	NA	NA	NA	NA	NA	NA	NA	NA	NA	NA	NA	NA	NA	BlockProc	BlockList	NA	26	{LEFTARROW}	NA	-100	1606	congruent	NA	NA	NA	NA	NA	NA	NA	NA	NA	NA	NA	NA	NA	NA	NA	NA	NA	NA	NA	NA	NA	NA	TrialProc	TrialList	1	2	268155	16	0	17	266222	0	1	{LEFTARROW}	-999999	0	267755	0	{LEFTARROW}	398	268153	NA	NA	left	lllll.bmp	354	0	NA	0	0	0	0	NA	0	0	0	NA	0	0	0	0	NA	0	0	1	1	26
Arrow Flanker 2014	12218	1	"<?xml version=""1.0""?>\n<Clock xmlns:dt=""urn:schemas-microsoft-com:datatypes""><Description dt:dt=""string"">E-Prime Primary Realtime Clock</Description><StartTime><Timestamp dt:dt=""int"">0</Timestamp><DateUtc dt:dt=""string"">2015-04-22T18:05:24Z</DateUtc></StartTime><FrequencyChanges><FrequencyChange><Frequency dt:dt=""r8"">2825556</Frequency><Timestamp dt:dt=""r8"">1271533933907</Timestamp><Current dt:dt=""r8"">0</Current><DateUtc dt:dt=""string"">2015-04-22T18:05:24Z</DateUtc></FrequencyChange></FrequencyChanges></Clock>\n"	Arrow Flanker 2014-12218-1	60.016	1.0.0.98	1	224150055	Professional	2.0.10.353	2.0.10.353	04-22-2015	4/22/2015 6:05:24 PM	14:05:24	2.0.10.248	3	1	1	1	NA	NA	NA	NA	NA	NA	NA	NA	NA	NA	NA	NA	NA	NA	NA	NA	NA	NA	NA	NA	NA	NA	NA	NA	BlockProc	BlockList	NA	27	{RIGHTARROW}	NA	-100	1484	congruent	NA	NA	NA	NA	NA	NA	NA	NA	NA	NA	NA	NA	NA	NA	NA	NA	NA	NA	NA	NA	NA	NA	TrialProc	TrialList	0	8	270121	16	0	17	268688	0	1	{RIGHTARROW}	-999999	0	269754	0	{RIGHTARROW}	359	270113	NA	NA	right	rrrrr.bmp	354	0	NA	0	0	0	0	NA	0	0	0	NA	0	0	0	0	NA	0	0	2	1	27
Arrow Flanker 2014	12218	1	"<?xml version=""1.0""?>\n<Clock xmlns:dt=""urn:schemas-microsoft-com:datatypes""><Description dt:dt=""string"">E-Prime Primary Realtime Clock</Description><StartTime><Timestamp dt:dt=""int"">0</Timestamp><DateUtc dt:dt=""string"">2015-04-22T18:05:24Z</DateUtc></StartTime><FrequencyChanges><FrequencyChange><Frequency dt:dt=""r8"">2825556</Frequency><Timestamp dt:dt=""r8"">1271533933907</Timestamp><Current dt:dt=""r8"">0</Current><DateUtc dt:dt=""string"">2015-04-22T18:05:24Z</DateUtc></FrequencyChange></FrequencyChanges></Clock>\n"	Arrow Flanker 2014-12218-1	60.016	1.0.0.98	1	224150055	Professional	2.0.10.353	2.0.10.353	04-22-2015	4/22/2015 6:05:24 PM	14:05:24	2.0.10.248	3	1	1	1	NA	NA	NA	NA	NA	NA	NA	NA	NA	NA	NA	NA	NA	NA	NA	NA	NA	NA	NA	NA	NA	NA	NA	NA	BlockProc	BlockList	NA	28	{LEFTARROW}	NA	-100	2075	congruent	NA	NA	NA	NA	NA	NA	NA	NA	NA	NA	NA	NA	NA	NA	NA	NA	NA	NA	NA	NA	NA	NA	TrialProc	TrialList	0	6	272887	16	0	17	270654	0	1	{LEFTARROW}	-999999	0	272320	0	{LEFTARROW}	561	272881	NA	NA	left	lllll.bmp	354	0	NA	0	0	0	0	NA	0	0	0	NA	0	0	0	0	NA	0	0	1	1	28
Arrow Flanker 2014	12218	1	"<?xml version=""1.0""?>\n<Clock xmlns:dt=""urn:schemas-microsoft-com:datatypes""><Description dt:dt=""string"">E-Prime Primary Realtime Clock</Description><StartTime><Timestamp dt:dt=""int"">0</Timestamp><DateUtc dt:dt=""string"">2015-04-22T18:05:24Z</DateUtc></StartTime><FrequencyChanges><FrequencyChange><Frequency dt:dt=""r8"">2825556</Frequency><Timestamp dt:dt=""r8"">1271533933907</Timestamp><Current dt:dt=""r8"">0</Current><DateUtc dt:dt=""string"">2015-04-22T18:05:24Z</DateUtc></FrequencyChange></FrequencyChanges></Clock>\n"	Arrow Flanker 2014-12218-1	60.016	1.0.0.98	1	224150055	Professional	2.0.10.353	2.0.10.353	04-22-2015	4/22/2015 6:05:24 PM	14:05:24	2.0.10.248	3	1	1	1	NA	NA	NA	NA	NA	NA	NA	NA	NA	NA	NA	NA	NA	NA	NA	NA	NA	NA	NA	NA	NA	NA	NA	NA	BlockProc	BlockList	NA	29	{RIGHTARROW}	NA	-100	1450	congruent	NA	NA	NA	NA	NA	NA	NA	NA	NA	NA	NA	NA	NA	NA	NA	NA	NA	NA	NA	NA	NA	NA	TrialProc	TrialList	1	8	275369	17	0	17	273420	0	1	{RIGHTARROW}	-999999	0	274836	0	{RIGHTARROW}	525	275361	NA	NA	right	rrrrr.bmp	354	0	NA	0	0	0	0	NA	0	0	0	NA	0	0	0	0	NA	0	0	2	1	29
Arrow Flanker 2014	12218	1	"<?xml version=""1.0""?>\n<Clock xmlns:dt=""urn:schemas-microsoft-com:datatypes""><Description dt:dt=""string"">E-Prime Primary Realtime Clock</Description><StartTime><Timestamp dt:dt=""int"">0</Timestamp><DateUtc dt:dt=""string"">2015-04-22T18:05:24Z</DateUtc></StartTime><FrequencyChanges><FrequencyChange><Frequency dt:dt=""r8"">2825556</Frequency><Timestamp dt:dt=""r8"">1271533933907</Timestamp><Current dt:dt=""r8"">0</Current><DateUtc dt:dt=""string"">2015-04-22T18:05:24Z</DateUtc></FrequencyChange></FrequencyChanges></Clock>\n"	Arrow Flanker 2014-12218-1	60.016	1.0.0.98	1	224150055	Professional	2.0.10.353	2.0.10.353	04-22-2015	4/22/2015 6:05:24 PM	14:05:24	2.0.10.248	3	1	1	1	NA	NA	NA	NA	NA	NA	NA	NA	NA	NA	NA	NA	NA	NA	NA	NA	NA	NA	NA	NA	NA	NA	NA	NA	BlockProc	BlockList	NA	30	{LEFTARROW}	NA	-100	1174	neutral	NA	NA	NA	NA	NA	NA	NA	NA	NA	NA	NA	NA	NA	NA	NA	NA	NA	NA	NA	NA	NA	NA	TrialProc	TrialList	0	15	277736	16	0	17	275903	0	1	{LEFTARROW}	-999999	0	277252	0	{LEFTARROW}	469	277721	NA	NA	left	ooloo.bmp	354	0	NA	0	0	0	0	NA	0	0	0	NA	0	0	0	0	NA	0	0	5	1	30
Arrow Flanker 2014	12218	1	"<?xml version=""1.0""?>\n<Clock xmlns:dt=""urn:schemas-microsoft-com:datatypes""><Description dt:dt=""string"">E-Prime Primary Realtime Clock</Description><StartTime><Timestamp dt:dt=""int"">0</Timestamp><DateUtc dt:dt=""string"">2015-04-22T18:05:24Z</DateUtc></StartTime><FrequencyChanges><FrequencyChange><Frequency dt:dt=""r8"">2825556</Frequency><Timestamp dt:dt=""r8"">1271533933907</Timestamp><Current dt:dt=""r8"">0</Current><DateUtc dt:dt=""string"">2015-04-22T18:05:24Z</DateUtc></FrequencyChange></FrequencyChanges></Clock>\n"	Arrow Flanker 2014-12218-1	60.016	1.0.0.98	1	224150055	Professional	2.0.10.353	2.0.10.353	04-22-2015	4/22/2015 6:05:24 PM	14:05:24	2.0.10.248	3	1	1	1	NA	NA	NA	NA	NA	NA	NA	NA	NA	NA	NA	NA	NA	NA	NA	NA	NA	NA	NA	NA	NA	NA	NA	NA	BlockProc	BlockList	NA	31	{RIGHTARROW}	NA	-100	945	neutral	NA	NA	NA	NA	NA	NA	NA	NA	NA	NA	NA	NA	NA	NA	NA	NA	NA	NA	NA	NA	NA	NA	TrialProc	TrialList	0	7	279952	16	0	17	278269	0	1	{RIGHTARROW}	-999999	0	279668	0	{RIGHTARROW}	277	279945	NA	NA	right	ooroo.bmp	354	0	NA	0	0	0	0	NA	0	0	0	NA	0	0	0	0	NA	0	0	6	1	31
Arrow Flanker 2014	12218	1	"<?xml version=""1.0""?>\n<Clock xmlns:dt=""urn:schemas-microsoft-com:datatypes""><Description dt:dt=""string"">E-Prime Primary Realtime Clock</Description><StartTime><Timestamp dt:dt=""int"">0</Timestamp><DateUtc dt:dt=""string"">2015-04-22T18:05:24Z</DateUtc></StartTime><FrequencyChanges><FrequencyChange><Frequency dt:dt=""r8"">2825556</Frequency><Timestamp dt:dt=""r8"">1271533933907</Timestamp><Current dt:dt=""r8"">0</Current><DateUtc dt:dt=""string"">2015-04-22T18:05:24Z</DateUtc></FrequencyChange></FrequencyChanges></Clock>\n"	Arrow Flanker 2014-12218-1	60.016	1.0.0.98	1	224150055	Professional	2.0.10.353	2.0.10.353	04-22-2015	4/22/2015 6:05:24 PM	14:05:24	2.0.10.248	3	1	1	1	NA	NA	NA	NA	NA	NA	NA	NA	NA	NA	NA	NA	NA	NA	NA	NA	NA	NA	NA	NA	NA	NA	NA	NA	BlockProc	BlockList	NA	32	{RIGHTARROW}	NA	-100	1563	neutral	NA	NA	NA	NA	NA	NA	NA	NA	NA	NA	NA	NA	NA	NA	NA	NA	NA	NA	NA	NA	NA	NA	TrialProc	TrialList	0	14	282151	17	0	17	280485	0	1	{RIGHTARROW}	-999999	0	281751	0	{RIGHTARROW}	385	282136	NA	NA	right	ooroo.bmp	354	0	NA	0	0	0	0	NA	0	0	0	NA	0	0	0	0	NA	0	0	6	1	32
Arrow Flanker 2014	12218	1	"<?xml version=""1.0""?>\n<Clock xmlns:dt=""urn:schemas-microsoft-com:datatypes""><Description dt:dt=""string"">E-Prime Primary Realtime Clock</Description><StartTime><Timestamp dt:dt=""int"">0</Timestamp><DateUtc dt:dt=""string"">2015-04-22T18:05:24Z</DateUtc></StartTime><FrequencyChanges><FrequencyChange><Frequency dt:dt=""r8"">2825556</Frequency><Timestamp dt:dt=""r8"">1271533933907</Timestamp><Current dt:dt=""r8"">0</Current><DateUtc dt:dt=""string"">2015-04-22T18:05:24Z</DateUtc></FrequencyChange></FrequencyChanges></Clock>\n"	Arrow Flanker 2014-12218-1	60.016	1.0.0.98	1	224150055	Professional	2.0.10.353	2.0.10.353	04-22-2015	4/22/2015 6:05:24 PM	14:05:24	2.0.10.248	3	1	1	1	NA	NA	NA	NA	NA	NA	NA	NA	NA	NA	NA	NA	NA	NA	NA	NA	NA	NA	NA	NA	NA	NA	NA	NA	BlockProc	BlockList	NA	33	{LEFTARROW}	NA	-100	1636	neutral	NA	NA	NA	NA	NA	NA	NA	NA	NA	NA	NA	NA	NA	NA	NA	NA	NA	NA	NA	NA	NA	NA	TrialProc	TrialList	0	4	284484	16	0	16	282684	0	1	{LEFTARROW}	-999999	0	284034	0	{LEFTARROW}	446	284480	NA	NA	left	ooloo.bmp	354	0	NA	0	0	0	0	NA	0	0	0	NA	0	0	0	0	NA	0	0	5	1	33
Arrow Flanker 2014	12218	1	"<?xml version=""1.0""?>\n<Clock xmlns:dt=""urn:schemas-microsoft-com:datatypes""><Description dt:dt=""string"">E-Prime Primary Realtime Clock</Description><StartTime><Timestamp dt:dt=""int"">0</Timestamp><DateUtc dt:dt=""string"">2015-04-22T18:05:24Z</DateUtc></StartTime><FrequencyChanges><FrequencyChange><Frequency dt:dt=""r8"">2825556</Frequency><Timestamp dt:dt=""r8"">1271533933907</Timestamp><Current dt:dt=""r8"">0</Current><DateUtc dt:dt=""string"">2015-04-22T18:05:24Z</DateUtc></FrequencyChange></FrequencyChanges></Clock>\n"	Arrow Flanker 2014-12218-1	60.016	1.0.0.98	1	224150055	Professional	2.0.10.353	2.0.10.353	04-22-2015	4/22/2015 6:05:24 PM	14:05:24	2.0.10.248	3	1	1	1	NA	NA	NA	NA	NA	NA	NA	NA	NA	NA	NA	NA	NA	NA	NA	NA	NA	NA	NA	NA	NA	NA	NA	NA	BlockProc	BlockList	NA	34	{RIGHTARROW}	NA	-100	1708	neutral	NA	NA	NA	NA	NA	NA	NA	NA	NA	NA	NA	NA	NA	NA	NA	NA	NA	NA	NA	NA	NA	NA	TrialProc	TrialList	0	16	287400	16	0	17	285017	0	1	{RIGHTARROW}	-999999	0	287000	0	{RIGHTARROW}	384	287384	NA	NA	right	ooroo.bmp	354	0	NA	0	0	0	0	NA	0	0	0	NA	0	0	0	0	NA	0	0	6	1	34
Arrow Flanker 2014	12218	1	"<?xml version=""1.0""?>\n<Clock xmlns:dt=""urn:schemas-microsoft-com:datatypes""><Description dt:dt=""string"">E-Prime Primary Realtime Clock</Description><StartTime><Timestamp dt:dt=""int"">0</Timestamp><DateUtc dt:dt=""string"">2015-04-22T18:05:24Z</DateUtc></StartTime><FrequencyChanges><FrequencyChange><Frequency dt:dt=""r8"">2825556</Frequency><Timestamp dt:dt=""r8"">1271533933907</Timestamp><Current dt:dt=""r8"">0</Current><DateUtc dt:dt=""string"">2015-04-22T18:05:24Z</DateUtc></FrequencyChange></FrequencyChanges></Clock>\n"	Arrow Flanker 2014-12218-1	60.016	1.0.0.98	1	224150055	Professional	2.0.10.353	2.0.10.353	04-22-2015	4/22/2015 6:05:24 PM	14:05:24	2.0.10.248	3	1	1	1	NA	NA	NA	NA	NA	NA	NA	NA	NA	NA	NA	NA	NA	NA	NA	NA	NA	NA	NA	NA	NA	NA	NA	NA	BlockProc	BlockList	NA	35	{LEFTARROW}	NA	-100	1165	congruent	NA	NA	NA	NA	NA	NA	NA	NA	NA	NA	NA	NA	NA	NA	NA	NA	NA	NA	NA	NA	NA	NA	TrialProc	TrialList	1	18	289682	17	0	17	287933	0	1	{LEFTARROW}	-999999	0	289283	0	{LEFTARROW}	381	289664	NA	NA	left	lllll.bmp	354	0	NA	0	0	0	0	NA	0	0	0	NA	0	0	0	0	NA	0	0	1	1	35
Arrow Flanker 2014	12218	1	"<?xml version=""1.0""?>\n<Clock xmlns:dt=""urn:schemas-microsoft-com:datatypes""><Description dt:dt=""string"">E-Prime Primary Realtime Clock</Description><StartTime><Timestamp dt:dt=""int"">0</Timestamp><DateUtc dt:dt=""string"">2015-04-22T18:05:24Z</DateUtc></StartTime><FrequencyChanges><FrequencyChange><Frequency dt:dt=""r8"">2825556</Frequency><Timestamp dt:dt=""r8"">1271533933907</Timestamp><Current dt:dt=""r8"">0</Current><DateUtc dt:dt=""string"">2015-04-22T18:05:24Z</DateUtc></FrequencyChange></FrequencyChanges></Clock>\n"	Arrow Flanker 2014-12218-1	60.016	1.0.0.98	1	224150055	Professional	2.0.10.353	2.0.10.353	04-22-2015	4/22/2015 6:05:24 PM	14:05:24	2.0.10.248	3	1	1	1	NA	NA	NA	NA	NA	NA	NA	NA	NA	NA	NA	NA	NA	NA	NA	NA	NA	NA	NA	NA	NA	NA	NA	NA	BlockProc	BlockList	NA	36	{LEFTARROW}	NA	-100	1877	neutral	NA	NA	NA	NA	NA	NA	NA	NA	NA	NA	NA	NA	NA	NA	NA	NA	NA	NA	NA	NA	NA	NA	TrialProc	TrialList	1	14	291998	17	0	17	290216	0	1	{LEFTARROW}	-999999	0	291465	0	{LEFTARROW}	519	291984	NA	NA	left	ooloo.bmp	354	0	NA	0	0	0	0	NA	0	0	0	NA	0	0	0	0	NA	0	0	5	1	36
Arrow Flanker 2014	12218	1	"<?xml version=""1.0""?>\n<Clock xmlns:dt=""urn:schemas-microsoft-com:datatypes""><Description dt:dt=""string"">E-Prime Primary Realtime Clock</Description><StartTime><Timestamp dt:dt=""int"">0</Timestamp><DateUtc dt:dt=""string"">2015-04-22T18:05:24Z</DateUtc></StartTime><FrequencyChanges><FrequencyChange><Frequency dt:dt=""r8"">2825556</Frequency><Timestamp dt:dt=""r8"">1271533933907</Timestamp><Current dt:dt=""r8"">0</Current><DateUtc dt:dt=""string"">2015-04-22T18:05:24Z</DateUtc></FrequencyChange></FrequencyChanges></Clock>\n"	Arrow Flanker 2014-12218-1	60.016	1.0.0.98	1	224150055	Professional	2.0.10.353	2.0.10.353	04-22-2015	4/22/2015 6:05:24 PM	14:05:24	2.0.10.248	3	1	1	1	NA	NA	NA	NA	NA	NA	NA	NA	NA	NA	NA	NA	NA	NA	NA	NA	NA	NA	NA	NA	NA	NA	NA	NA	BlockProc	BlockList	NA	37	{LEFTARROW}	NA	-100	1617	congruent	NA	NA	NA	NA	NA	NA	NA	NA	NA	NA	NA	NA	NA	NA	NA	NA	NA	NA	NA	NA	1	NA	TrialProc	TrialList	0	14	294398	16	0	17	292532	0	1	{LEFTARROW}	-999999	0	293981	0	{LEFTARROW}	403	294384	NA	NA	left	lllll.bmp	354	0	NA	-999999	17	294931	0	1	1889	296820	0	NA	0	0	0	0	NA	0	0	1	1	37
Arrow Flanker 2014	12218	1	"<?xml version=""1.0""?>\n<Clock xmlns:dt=""urn:schemas-microsoft-com:datatypes""><Description dt:dt=""string"">E-Prime Primary Realtime Clock</Description><StartTime><Timestamp dt:dt=""int"">0</Timestamp><DateUtc dt:dt=""string"">2015-04-22T18:05:24Z</DateUtc></StartTime><FrequencyChanges><FrequencyChange><Frequency dt:dt=""r8"">2825556</Frequency><Timestamp dt:dt=""r8"">1271533933907</Timestamp><Current dt:dt=""r8"">0</Current><DateUtc dt:dt=""string"">2015-04-22T18:05:24Z</DateUtc></FrequencyChange></FrequencyChanges></Clock>\n"	Arrow Flanker 2014-12218-1	60.016	1.0.0.98	1	224150055	Professional	2.0.10.353	2.0.10.353	04-22-2015	4/22/2015 6:05:24 PM	14:05:24	2.0.10.248	3	1	1	1	NA	NA	NA	NA	NA	NA	NA	NA	NA	NA	NA	NA	NA	NA	NA	NA	NA	NA	NA	NA	NA	NA	NA	NA	BlockProc	BlockList	NA	38	{RIGHTARROW}	NA	-100	1223	incongruent	NA	NA	NA	NA	NA	NA	NA	NA	NA	NA	NA	NA	NA	NA	NA	NA	NA	NA	NA	NA	NA	NA	TrialProc	TrialList	0	9	299913	17	0	7	297847	0	1	{RIGHTARROW}	-999999	0	299080	0	{RIGHTARROW}	824	299904	NA	NA	right	llrll.bmp	354	0	NA	0	0	0	0	NA	0	0	0	NA	0	0	0	0	NA	0	0	4	1	38
Arrow Flanker 2014	12218	1	"<?xml version=""1.0""?>\n<Clock xmlns:dt=""urn:schemas-microsoft-com:datatypes""><Description dt:dt=""string"">E-Prime Primary Realtime Clock</Description><StartTime><Timestamp dt:dt=""int"">0</Timestamp><DateUtc dt:dt=""string"">2015-04-22T18:05:24Z</DateUtc></StartTime><FrequencyChanges><FrequencyChange><Frequency dt:dt=""r8"">2825556</Frequency><Timestamp dt:dt=""r8"">1271533933907</Timestamp><Current dt:dt=""r8"">0</Current><DateUtc dt:dt=""string"">2015-04-22T18:05:24Z</DateUtc></FrequencyChange></FrequencyChanges></Clock>\n"	Arrow Flanker 2014-12218-1	60.016	1.0.0.98	1	224150055	Professional	2.0.10.353	2.0.10.353	04-22-2015	4/22/2015 6:05:24 PM	14:05:24	2.0.10.248	3	1	1	1	NA	NA	NA	NA	NA	NA	NA	NA	NA	NA	NA	NA	NA	NA	NA	NA	NA	NA	NA	NA	NA	NA	NA	NA	BlockProc	BlockList	NA	39	{RIGHTARROW}	NA	-100	2177	congruent	NA	NA	NA	NA	NA	NA	NA	NA	NA	NA	NA	NA	NA	NA	NA	NA	NA	NA	NA	NA	NA	NA	TrialProc	TrialList	0	8	302496	16	0	16	300446	0	1	{RIGHTARROW}	-999999	0	302079	0	{RIGHTARROW}	409	302488	NA	NA	right	rrrrr.bmp	354	0	NA	0	0	0	0	NA	0	0	0	NA	0	0	0	0	NA	0	0	2	1	39
Arrow Flanker 2014	12218	1	"<?xml version=""1.0""?>\n<Clock xmlns:dt=""urn:schemas-microsoft-com:datatypes""><Description dt:dt=""string"">E-Prime Primary Realtime Clock</Description><StartTime><Timestamp dt:dt=""int"">0</Timestamp><DateUtc dt:dt=""string"">2015-04-22T18:05:24Z</DateUtc></StartTime><FrequencyChanges><FrequencyChange><Frequency dt:dt=""r8"">2825556</Frequency><Timestamp dt:dt=""r8"">1271533933907</Timestamp><Current dt:dt=""r8"">0</Current><DateUtc dt:dt=""string"">2015-04-22T18:05:24Z</DateUtc></FrequencyChange></FrequencyChanges></Clock>\n"	Arrow Flanker 2014-12218-1	60.016	1.0.0.98	1	224150055	Professional	2.0.10.353	2.0.10.353	04-22-2015	4/22/2015 6:05:24 PM	14:05:24	2.0.10.248	3	1	1	1	NA	NA	NA	NA	NA	NA	NA	NA	NA	NA	NA	NA	NA	NA	NA	NA	NA	NA	NA	NA	NA	NA	NA	NA	BlockProc	BlockList	NA	40	{RIGHTARROW}	NA	-100	779	congruent	NA	NA	NA	NA	NA	NA	NA	NA	NA	NA	NA	NA	NA	NA	NA	NA	NA	NA	NA	NA	NA	NA	TrialProc	TrialList	1	13	304445	17	0	17	303029	0	1	{RIGHTARROW}	-999999	0	303962	0	{RIGHTARROW}	470	304432	NA	NA	right	rrrrr.bmp	354	0	NA	0	0	0	0	NA	0	0	0	NA	0	0	0	0	NA	0	0	2	1	40
Arrow Flanker 2014	12218	1	"<?xml version=""1.0""?>\n<Clock xmlns:dt=""urn:schemas-microsoft-com:datatypes""><Description dt:dt=""string"">E-Prime Primary Realtime Clock</Description><StartTime><Timestamp dt:dt=""int"">0</Timestamp><DateUtc dt:dt=""string"">2015-04-22T18:05:24Z</DateUtc></StartTime><FrequencyChanges><FrequencyChange><Frequency dt:dt=""r8"">2825556</Frequency><Timestamp dt:dt=""r8"">1271533933907</Timestamp><Current dt:dt=""r8"">0</Current><DateUtc dt:dt=""string"">2015-04-22T18:05:24Z</DateUtc></FrequencyChange></FrequencyChanges></Clock>\n"	Arrow Flanker 2014-12218-1	60.016	1.0.0.98	1	224150055	Professional	2.0.10.353	2.0.10.353	04-22-2015	4/22/2015 6:05:24 PM	14:05:24	2.0.10.248	3	1	1	1	NA	NA	NA	NA	NA	NA	NA	NA	NA	NA	NA	NA	NA	NA	NA	NA	NA	NA	NA	NA	NA	NA	NA	NA	BlockProc	BlockList	NA	41	{RIGHTARROW}	NA	-100	1189	congruent	NA	NA	NA	NA	NA	NA	NA	NA	NA	NA	NA	NA	NA	NA	NA	NA	NA	NA	NA	NA	NA	NA	TrialProc	TrialList	0	18	306378	17	0	16	304978	0	1	{RIGHTARROW}	-999999	0	306045	0	{RIGHTARROW}	315	306360	NA	NA	right	rrrrr.bmp	354	0	NA	0	0	0	0	NA	0	0	0	NA	0	0	0	0	NA	0	0	2	1	41
Arrow Flanker 2014	12218	1	"<?xml version=""1.0""?>\n<Clock xmlns:dt=""urn:schemas-microsoft-com:datatypes""><Description dt:dt=""string"">E-Prime Primary Realtime Clock</Description><StartTime><Timestamp dt:dt=""int"">0</Timestamp><DateUtc dt:dt=""string"">2015-04-22T18:05:24Z</DateUtc></StartTime><FrequencyChanges><FrequencyChange><Frequency dt:dt=""r8"">2825556</Frequency><Timestamp dt:dt=""r8"">1271533933907</Timestamp><Current dt:dt=""r8"">0</Current><DateUtc dt:dt=""string"">2015-04-22T18:05:24Z</DateUtc></FrequencyChange></FrequencyChanges></Clock>\n"	Arrow Flanker 2014-12218-1	60.016	1.0.0.98	1	224150055	Professional	2.0.10.353	2.0.10.353	04-22-2015	4/22/2015 6:05:24 PM	14:05:24	2.0.10.248	3	1	1	1	NA	NA	NA	NA	NA	NA	NA	NA	NA	NA	NA	NA	NA	NA	NA	NA	NA	NA	NA	NA	NA	NA	NA	NA	BlockProc	BlockList	NA	42	{RIGHTARROW}	NA	-100	1774	neutral	NA	NA	NA	NA	NA	NA	NA	NA	NA	NA	NA	NA	NA	NA	NA	NA	NA	NA	NA	NA	NA	NA	TrialProc	TrialList	1	8	308544	17	0	16	306911	0	1	{RIGHTARROW}	-999999	0	308161	0	{RIGHTARROW}	375	308536	NA	NA	right	ooroo.bmp	354	0	NA	0	0	0	0	NA	0	0	0	NA	0	0	0	0	NA	0	0	6	1	42
Arrow Flanker 2014	12218	1	"<?xml version=""1.0""?>\n<Clock xmlns:dt=""urn:schemas-microsoft-com:datatypes""><Description dt:dt=""string"">E-Prime Primary Realtime Clock</Description><StartTime><Timestamp dt:dt=""int"">0</Timestamp><DateUtc dt:dt=""string"">2015-04-22T18:05:24Z</DateUtc></StartTime><FrequencyChanges><FrequencyChange><Frequency dt:dt=""r8"">2825556</Frequency><Timestamp dt:dt=""r8"">1271533933907</Timestamp><Current dt:dt=""r8"">0</Current><DateUtc dt:dt=""string"">2015-04-22T18:05:24Z</DateUtc></FrequencyChange></FrequencyChanges></Clock>\n"	Arrow Flanker 2014-12218-1	60.016	1.0.0.98	1	224150055	Professional	2.0.10.353	2.0.10.353	04-22-2015	4/22/2015 6:05:24 PM	14:05:24	2.0.10.248	3	1	1	1	NA	NA	NA	NA	NA	NA	NA	NA	NA	NA	NA	NA	NA	NA	NA	NA	NA	NA	NA	NA	NA	NA	NA	NA	BlockProc	BlockList	NA	43	{LEFTARROW}	NA	-100	1327	incongruent	NA	NA	NA	NA	NA	NA	NA	NA	NA	NA	NA	NA	NA	NA	NA	NA	NA	NA	NA	NA	NA	NA	TrialProc	TrialList	0	10	310594	16	0	16	309077	0	1	{LEFTARROW}	-999999	0	310027	0	{LEFTARROW}	557	310584	NA	NA	left	rrlrr.bmp	354	0	NA	0	0	0	0	NA	0	0	0	NA	0	0	0	0	NA	0	0	3	1	43
Arrow Flanker 2014	12218	1	"<?xml version=""1.0""?>\n<Clock xmlns:dt=""urn:schemas-microsoft-com:datatypes""><Description dt:dt=""string"">E-Prime Primary Realtime Clock</Description><StartTime><Timestamp dt:dt=""int"">0</Timestamp><DateUtc dt:dt=""string"">2015-04-22T18:05:24Z</DateUtc></StartTime><FrequencyChanges><FrequencyChange><Frequency dt:dt=""r8"">2825556</Frequency><Timestamp dt:dt=""r8"">1271533933907</Timestamp><Current dt:dt=""r8"">0</Current><DateUtc dt:dt=""string"">2015-04-22T18:05:24Z</DateUtc></FrequencyChange></FrequencyChanges></Clock>\n"	Arrow Flanker 2014-12218-1	60.016	1.0.0.98	1	224150055	Professional	2.0.10.353	2.0.10.353	04-22-2015	4/22/2015 6:05:24 PM	14:05:24	2.0.10.248	3	1	1	1	NA	NA	NA	NA	NA	NA	NA	NA	NA	NA	NA	NA	NA	NA	NA	NA	NA	NA	NA	NA	NA	NA	NA	NA	BlockProc	BlockList	NA	44	{LEFTARROW}	NA	-100	949	congruent	NA	NA	NA	NA	NA	NA	NA	NA	NA	NA	NA	NA	NA	NA	NA	NA	NA	NA	NA	NA	NA	NA	TrialProc	TrialList	0	18	312610	16	0	17	311127	0	1	{LEFTARROW}	-999999	0	312127	0	{LEFTARROW}	465	312592	NA	NA	left	lllll.bmp	354	0	NA	0	0	0	0	NA	0	0	0	NA	0	0	0	0	NA	0	0	1	1	44
Arrow Flanker 2014	12218	1	"<?xml version=""1.0""?>\n<Clock xmlns:dt=""urn:schemas-microsoft-com:datatypes""><Description dt:dt=""string"">E-Prime Primary Realtime Clock</Description><StartTime><Timestamp dt:dt=""int"">0</Timestamp><DateUtc dt:dt=""string"">2015-04-22T18:05:24Z</DateUtc></StartTime><FrequencyChanges><FrequencyChange><Frequency dt:dt=""r8"">2825556</Frequency><Timestamp dt:dt=""r8"">1271533933907</Timestamp><Current dt:dt=""r8"">0</Current><DateUtc dt:dt=""string"">2015-04-22T18:05:24Z</DateUtc></FrequencyChange></FrequencyChanges></Clock>\n"	Arrow Flanker 2014-12218-1	60.016	1.0.0.98	1	224150055	Professional	2.0.10.353	2.0.10.353	04-22-2015	4/22/2015 6:05:24 PM	14:05:24	2.0.10.248	3	1	1	1	NA	NA	NA	NA	NA	NA	NA	NA	NA	NA	NA	NA	NA	NA	NA	NA	NA	NA	NA	NA	NA	NA	NA	NA	BlockProc	BlockList	NA	45	{LEFTARROW}	NA	-100	976	incongruent	NA	NA	NA	NA	NA	NA	NA	NA	NA	NA	NA	NA	NA	NA	NA	NA	NA	NA	NA	NA	NA	NA	TrialProc	TrialList	0	15	314743	16	0	17	313143	0	1	{LEFTARROW}	-999999	0	314176	0	{LEFTARROW}	552	314728	NA	NA	left	rrlrr.bmp	354	0	NA	0	0	0	0	NA	0	0	0	NA	0	0	0	0	NA	0	0	3	1	45
Arrow Flanker 2014	12218	1	"<?xml version=""1.0""?>\n<Clock xmlns:dt=""urn:schemas-microsoft-com:datatypes""><Description dt:dt=""string"">E-Prime Primary Realtime Clock</Description><StartTime><Timestamp dt:dt=""int"">0</Timestamp><DateUtc dt:dt=""string"">2015-04-22T18:05:24Z</DateUtc></StartTime><FrequencyChanges><FrequencyChange><Frequency dt:dt=""r8"">2825556</Frequency><Timestamp dt:dt=""r8"">1271533933907</Timestamp><Current dt:dt=""r8"">0</Current><DateUtc dt:dt=""string"">2015-04-22T18:05:24Z</DateUtc></FrequencyChange></FrequencyChanges></Clock>\n"	Arrow Flanker 2014-12218-1	60.016	1.0.0.98	1	224150055	Professional	2.0.10.353	2.0.10.353	04-22-2015	4/22/2015 6:05:24 PM	14:05:24	2.0.10.248	3	1	1	1	NA	NA	NA	NA	NA	NA	NA	NA	NA	NA	NA	NA	NA	NA	NA	NA	NA	NA	NA	NA	NA	NA	NA	NA	BlockProc	BlockList	NA	46	{LEFTARROW}	NA	-100	1957	congruent	NA	NA	NA	NA	NA	NA	NA	NA	NA	NA	NA	NA	NA	NA	NA	NA	NA	NA	NA	NA	NA	NA	TrialProc	TrialList	1	12	317508	17	0	17	315276	0	1	{LEFTARROW}	-999999	0	317125	0	{LEFTARROW}	371	317496	NA	NA	left	lllll.bmp	354	0	NA	0	0	0	0	NA	0	0	0	NA	0	0	0	0	NA	0	0	1	1	46
Arrow Flanker 2014	12218	1	"<?xml version=""1.0""?>\n<Clock xmlns:dt=""urn:schemas-microsoft-com:datatypes""><Description dt:dt=""string"">E-Prime Primary Realtime Clock</Description><StartTime><Timestamp dt:dt=""int"">0</Timestamp><DateUtc dt:dt=""string"">2015-04-22T18:05:24Z</DateUtc></StartTime><FrequencyChanges><FrequencyChange><Frequency dt:dt=""r8"">2825556</Frequency><Timestamp dt:dt=""r8"">1271533933907</Timestamp><Current dt:dt=""r8"">0</Current><DateUtc dt:dt=""string"">2015-04-22T18:05:24Z</DateUtc></FrequencyChange></FrequencyChanges></Clock>\n"	Arrow Flanker 2014-12218-1	60.016	1.0.0.98	1	224150055	Professional	2.0.10.353	2.0.10.353	04-22-2015	4/22/2015 6:05:24 PM	14:05:24	2.0.10.248	3	1	1	1	NA	NA	NA	NA	NA	NA	NA	NA	NA	NA	NA	NA	NA	NA	NA	NA	NA	NA	NA	NA	NA	NA	NA	NA	BlockProc	BlockList	NA	47	{RIGHTARROW}	NA	-100	1041	congruent	NA	NA	NA	NA	NA	NA	NA	NA	NA	NA	NA	NA	NA	NA	NA	NA	NA	NA	NA	NA	NA	NA	TrialProc	TrialList	0	18	319858	17	0	17	318042	0	1	{RIGHTARROW}	-999999	0	319391	0	{RIGHTARROW}	449	319840	NA	NA	right	rrrrr.bmp	354	0	NA	0	0	0	0	NA	0	0	0	NA	0	0	0	0	NA	0	0	2	1	47
Arrow Flanker 2014	12218	1	"<?xml version=""1.0""?>\n<Clock xmlns:dt=""urn:schemas-microsoft-com:datatypes""><Description dt:dt=""string"">E-Prime Primary Realtime Clock</Description><StartTime><Timestamp dt:dt=""int"">0</Timestamp><DateUtc dt:dt=""string"">2015-04-22T18:05:24Z</DateUtc></StartTime><FrequencyChanges><FrequencyChange><Frequency dt:dt=""r8"">2825556</Frequency><Timestamp dt:dt=""r8"">1271533933907</Timestamp><Current dt:dt=""r8"">0</Current><DateUtc dt:dt=""string"">2015-04-22T18:05:24Z</DateUtc></FrequencyChange></FrequencyChanges></Clock>\n"	Arrow Flanker 2014-12218-1	60.016	1.0.0.98	1	224150055	Professional	2.0.10.353	2.0.10.353	04-22-2015	4/22/2015 6:05:24 PM	14:05:24	2.0.10.248	3	1	1	1	NA	NA	NA	NA	NA	NA	NA	NA	NA	NA	NA	NA	NA	NA	NA	NA	NA	NA	NA	NA	NA	NA	NA	NA	BlockProc	BlockList	NA	48	{RIGHTARROW}	NA	-100	1365	congruent	NA	NA	NA	NA	NA	NA	NA	NA	NA	NA	NA	NA	NA	NA	NA	NA	NA	NA	NA	NA	NA	NA	TrialProc	TrialList	1	9	321857	17	0	16	320391	0	1	{RIGHTARROW}	-999999	0	321541	0	{RIGHTARROW}	307	321848	NA	NA	right	rrrrr.bmp	354	0	NA	0	0	0	0	NA	0	0	0	NA	0	0	0	0	NA	0	0	2	1	48
Arrow Flanker 2014	12218	1	"<?xml version=""1.0""?>\n<Clock xmlns:dt=""urn:schemas-microsoft-com:datatypes""><Description dt:dt=""string"">E-Prime Primary Realtime Clock</Description><StartTime><Timestamp dt:dt=""int"">0</Timestamp><DateUtc dt:dt=""string"">2015-04-22T18:05:24Z</DateUtc></StartTime><FrequencyChanges><FrequencyChange><Frequency dt:dt=""r8"">2825556</Frequency><Timestamp dt:dt=""r8"">1271533933907</Timestamp><Current dt:dt=""r8"">0</Current><DateUtc dt:dt=""string"">2015-04-22T18:05:24Z</DateUtc></FrequencyChange></FrequencyChanges></Clock>\n"	Arrow Flanker 2014-12218-1	60.016	1.0.0.98	1	224150055	Professional	2.0.10.353	2.0.10.353	04-22-2015	4/22/2015 6:05:24 PM	14:05:24	2.0.10.248	3	1	1	1	NA	NA	NA	NA	NA	NA	NA	NA	NA	NA	NA	NA	NA	NA	NA	NA	NA	NA	NA	NA	NA	NA	NA	NA	BlockProc	BlockList	NA	49	{RIGHTARROW}	NA	-100	1253	neutral	NA	NA	NA	NA	NA	NA	NA	NA	NA	NA	NA	NA	NA	NA	NA	NA	NA	NA	NA	NA	NA	NA	TrialProc	TrialList	0	2	323874	16	0	17	322391	0	1	{RIGHTARROW}	-999999	0	323524	0	{RIGHTARROW}	348	323872	NA	NA	right	ooroo.bmp	354	0	NA	0	0	0	0	NA	0	0	0	NA	0	0	0	0	NA	0	0	6	1	49
Arrow Flanker 2014	12218	1	"<?xml version=""1.0""?>\n<Clock xmlns:dt=""urn:schemas-microsoft-com:datatypes""><Description dt:dt=""string"">E-Prime Primary Realtime Clock</Description><StartTime><Timestamp dt:dt=""int"">0</Timestamp><DateUtc dt:dt=""string"">2015-04-22T18:05:24Z</DateUtc></StartTime><FrequencyChanges><FrequencyChange><Frequency dt:dt=""r8"">2825556</Frequency><Timestamp dt:dt=""r8"">1271533933907</Timestamp><Current dt:dt=""r8"">0</Current><DateUtc dt:dt=""string"">2015-04-22T18:05:24Z</DateUtc></FrequencyChange></FrequencyChanges></Clock>\n"	Arrow Flanker 2014-12218-1	60.016	1.0.0.98	1	224150055	Professional	2.0.10.353	2.0.10.353	04-22-2015	4/22/2015 6:05:24 PM	14:05:24	2.0.10.248	3	1	1	1	NA	NA	NA	NA	NA	NA	NA	NA	NA	NA	NA	NA	NA	NA	NA	NA	NA	NA	NA	NA	NA	NA	NA	NA	BlockProc	BlockList	NA	50	{LEFTARROW}	NA	-100	2523	incongruent	NA	NA	NA	NA	NA	NA	NA	NA	NA	NA	NA	NA	NA	NA	NA	NA	NA	NA	NA	NA	NA	NA	TrialProc	TrialList	0	5	326956	17	0	17	324407	0	1	{LEFTARROW}	-999999	16	326456	0	{LEFTARROW}	495	326951	NA	NA	left	rrlrr.bmp	354	0	NA	0	0	0	0	NA	0	0	0	NA	0	0	0	0	NA	0	0	3	1	50
Arrow Flanker 2014	12218	1	"<?xml version=""1.0""?>\n<Clock xmlns:dt=""urn:schemas-microsoft-com:datatypes""><Description dt:dt=""string"">E-Prime Primary Realtime Clock</Description><StartTime><Timestamp dt:dt=""int"">0</Timestamp><DateUtc dt:dt=""string"">2015-04-22T18:05:24Z</DateUtc></StartTime><FrequencyChanges><FrequencyChange><Frequency dt:dt=""r8"">2825556</Frequency><Timestamp dt:dt=""r8"">1271533933907</Timestamp><Current dt:dt=""r8"">0</Current><DateUtc dt:dt=""string"">2015-04-22T18:05:24Z</DateUtc></FrequencyChange></FrequencyChanges></Clock>\n"	Arrow Flanker 2014-12218-1	60.016	1.0.0.98	1	224150055	Professional	2.0.10.353	2.0.10.353	04-22-2015	4/22/2015 6:05:24 PM	14:05:24	2.0.10.248	3	1	1	1	NA	NA	NA	NA	NA	NA	NA	NA	NA	NA	NA	NA	NA	NA	NA	NA	NA	NA	NA	NA	NA	NA	NA	NA	BlockProc	BlockList	NA	51	{RIGHTARROW}	NA	-100	1890	incongruent	NA	NA	NA	NA	NA	NA	NA	NA	NA	NA	NA	NA	NA	NA	NA	NA	NA	NA	NA	NA	NA	NA	TrialProc	TrialList	0	7	329422	17	0	16	327489	0	1	{RIGHTARROW}	-999999	0	328889	0	{RIGHTARROW}	526	329415	NA	NA	right	llrll.bmp	354	0	NA	0	0	0	0	NA	0	0	0	NA	0	0	0	0	NA	0	0	4	1	51
Arrow Flanker 2014	12218	1	"<?xml version=""1.0""?>\n<Clock xmlns:dt=""urn:schemas-microsoft-com:datatypes""><Description dt:dt=""string"">E-Prime Primary Realtime Clock</Description><StartTime><Timestamp dt:dt=""int"">0</Timestamp><DateUtc dt:dt=""string"">2015-04-22T18:05:24Z</DateUtc></StartTime><FrequencyChanges><FrequencyChange><Frequency dt:dt=""r8"">2825556</Frequency><Timestamp dt:dt=""r8"">1271533933907</Timestamp><Current dt:dt=""r8"">0</Current><DateUtc dt:dt=""string"">2015-04-22T18:05:24Z</DateUtc></FrequencyChange></FrequencyChanges></Clock>\n"	Arrow Flanker 2014-12218-1	60.016	1.0.0.98	1	224150055	Professional	2.0.10.353	2.0.10.353	04-22-2015	4/22/2015 6:05:24 PM	14:05:24	2.0.10.248	3	1	1	1	NA	NA	NA	NA	NA	NA	NA	NA	NA	NA	NA	NA	NA	NA	NA	NA	NA	NA	NA	NA	NA	NA	NA	NA	BlockProc	BlockList	NA	52	{RIGHTARROW}	NA	-100	1870	incongruent	NA	NA	NA	NA	NA	NA	NA	NA	NA	NA	NA	NA	NA	NA	NA	NA	NA	NA	NA	NA	NA	NA	TrialProc	TrialList	0	3	332122	16	0	16	329955	0	1	{RIGHTARROW}	-999999	0	331555	0	{RIGHTARROW}	564	332119	NA	NA	right	llrll.bmp	354	0	NA	0	0	0	0	NA	0	0	0	NA	0	0	0	0	NA	0	0	4	1	52
Arrow Flanker 2014	12218	1	"<?xml version=""1.0""?>\n<Clock xmlns:dt=""urn:schemas-microsoft-com:datatypes""><Description dt:dt=""string"">E-Prime Primary Realtime Clock</Description><StartTime><Timestamp dt:dt=""int"">0</Timestamp><DateUtc dt:dt=""string"">2015-04-22T18:05:24Z</DateUtc></StartTime><FrequencyChanges><FrequencyChange><Frequency dt:dt=""r8"">2825556</Frequency><Timestamp dt:dt=""r8"">1271533933907</Timestamp><Current dt:dt=""r8"">0</Current><DateUtc dt:dt=""string"">2015-04-22T18:05:24Z</DateUtc></FrequencyChange></FrequencyChanges></Clock>\n"	Arrow Flanker 2014-12218-1	60.016	1.0.0.98	1	224150055	Professional	2.0.10.353	2.0.10.353	04-22-2015	4/22/2015 6:05:24 PM	14:05:24	2.0.10.248	3	1	1	1	NA	NA	NA	NA	NA	NA	NA	NA	NA	NA	NA	NA	NA	NA	NA	NA	NA	NA	NA	NA	NA	NA	NA	NA	BlockProc	BlockList	NA	53	{RIGHTARROW}	NA	-100	1559	congruent	NA	NA	NA	NA	NA	NA	NA	NA	NA	NA	NA	NA	NA	NA	NA	NA	NA	NA	NA	NA	NA	NA	TrialProc	TrialList	0	4	334571	16	0	17	332655	0	1	{RIGHTARROW}	-999999	0	334221	0	{RIGHTARROW}	346	334567	NA	NA	right	rrrrr.bmp	354	0	NA	0	0	0	0	NA	0	0	0	NA	0	0	0	0	NA	0	0	2	1	53
Arrow Flanker 2014	12218	1	"<?xml version=""1.0""?>\n<Clock xmlns:dt=""urn:schemas-microsoft-com:datatypes""><Description dt:dt=""string"">E-Prime Primary Realtime Clock</Description><StartTime><Timestamp dt:dt=""int"">0</Timestamp><DateUtc dt:dt=""string"">2015-04-22T18:05:24Z</DateUtc></StartTime><FrequencyChanges><FrequencyChange><Frequency dt:dt=""r8"">2825556</Frequency><Timestamp dt:dt=""r8"">1271533933907</Timestamp><Current dt:dt=""r8"">0</Current><DateUtc dt:dt=""string"">2015-04-22T18:05:24Z</DateUtc></FrequencyChange></FrequencyChanges></Clock>\n"	Arrow Flanker 2014-12218-1	60.016	1.0.0.98	1	224150055	Professional	2.0.10.353	2.0.10.353	04-22-2015	4/22/2015 6:05:24 PM	14:05:24	2.0.10.248	3	1	1	1	NA	NA	NA	NA	NA	NA	NA	NA	NA	NA	NA	NA	NA	NA	NA	NA	NA	NA	NA	NA	NA	NA	NA	NA	BlockProc	BlockList	NA	54	{RIGHTARROW}	NA	-100	1221	congruent	NA	NA	NA	NA	NA	NA	NA	NA	NA	NA	NA	NA	NA	NA	NA	NA	NA	NA	NA	NA	1	NA	TrialProc	TrialList	1	15	336670	17	0	17	335104	0	1	{RIGHTARROW}	-999999	0	336287	0	{RIGHTARROW}	368	336655	NA	NA	right	rrrrr.bmp	354	0	NA	-999999	13	338936	0	1	387	339323	0	NA	0	0	0	0	NA	0	0	2	1	54
Arrow Flanker 2014	12218	1	"<?xml version=""1.0""?>\n<Clock xmlns:dt=""urn:schemas-microsoft-com:datatypes""><Description dt:dt=""string"">E-Prime Primary Realtime Clock</Description><StartTime><Timestamp dt:dt=""int"">0</Timestamp><DateUtc dt:dt=""string"">2015-04-22T18:05:24Z</DateUtc></StartTime><FrequencyChanges><FrequencyChange><Frequency dt:dt=""r8"">2825556</Frequency><Timestamp dt:dt=""r8"">1271533933907</Timestamp><Current dt:dt=""r8"">0</Current><DateUtc dt:dt=""string"">2015-04-22T18:05:24Z</DateUtc></FrequencyChange></FrequencyChanges></Clock>\n"	Arrow Flanker 2014-12218-1	60.016	1.0.0.98	1	224150055	Professional	2.0.10.353	2.0.10.353	04-22-2015	4/22/2015 6:05:24 PM	14:05:24	2.0.10.248	3	1	1	1	NA	NA	NA	NA	NA	NA	NA	NA	NA	NA	NA	NA	NA	NA	NA	NA	NA	NA	NA	NA	NA	NA	NA	NA	BlockProc	BlockList	NA	55	{RIGHTARROW}	NA	-100	1714	incongruent	NA	NA	NA	NA	NA	NA	NA	NA	NA	NA	NA	NA	NA	NA	NA	NA	NA	NA	NA	NA	NA	NA	TrialProc	TrialList	0	5	343252	16	0	9	340336	0	1	{RIGHTARROW}	-999999	0	342385	0	{RIGHTARROW}	862	343247	NA	NA	right	llrll.bmp	354	0	NA	0	0	0	0	NA	0	0	0	NA	0	0	0	0	NA	0	0	4	1	55
Arrow Flanker 2014	12218	1	"<?xml version=""1.0""?>\n<Clock xmlns:dt=""urn:schemas-microsoft-com:datatypes""><Description dt:dt=""string"">E-Prime Primary Realtime Clock</Description><StartTime><Timestamp dt:dt=""int"">0</Timestamp><DateUtc dt:dt=""string"">2015-04-22T18:05:24Z</DateUtc></StartTime><FrequencyChanges><FrequencyChange><Frequency dt:dt=""r8"">2825556</Frequency><Timestamp dt:dt=""r8"">1271533933907</Timestamp><Current dt:dt=""r8"">0</Current><DateUtc dt:dt=""string"">2015-04-22T18:05:24Z</DateUtc></FrequencyChange></FrequencyChanges></Clock>\n"	Arrow Flanker 2014-12218-1	60.016	1.0.0.98	1	224150055	Professional	2.0.10.353	2.0.10.353	04-22-2015	4/22/2015 6:05:24 PM	14:05:24	2.0.10.248	3	1	1	1	NA	NA	NA	NA	NA	NA	NA	NA	NA	NA	NA	NA	NA	NA	NA	NA	NA	NA	NA	NA	NA	NA	NA	NA	BlockProc	BlockList	NA	56	{LEFTARROW}	NA	-100	1230	incongruent	NA	NA	NA	NA	NA	NA	NA	NA	NA	NA	NA	NA	NA	NA	NA	NA	NA	NA	NA	NA	NA	NA	TrialProc	TrialList	1	13	345884	17	0	17	343785	0	0	{LEFTARROW}	-999999	0	345418	0	{RIGHTARROW}	453	345871	NA	NA	left	rrlrr.bmp	354	0	NA	0	0	0	0	NA	0	0	0	NA	0	0	0	0	NA	0	0	3	1	56
Arrow Flanker 2014	12218	1	"<?xml version=""1.0""?>\n<Clock xmlns:dt=""urn:schemas-microsoft-com:datatypes""><Description dt:dt=""string"">E-Prime Primary Realtime Clock</Description><StartTime><Timestamp dt:dt=""int"">0</Timestamp><DateUtc dt:dt=""string"">2015-04-22T18:05:24Z</DateUtc></StartTime><FrequencyChanges><FrequencyChange><Frequency dt:dt=""r8"">2825556</Frequency><Timestamp dt:dt=""r8"">1271533933907</Timestamp><Current dt:dt=""r8"">0</Current><DateUtc dt:dt=""string"">2015-04-22T18:05:24Z</DateUtc></FrequencyChange></FrequencyChanges></Clock>\n"	Arrow Flanker 2014-12218-1	60.016	1.0.0.98	1	224150055	Professional	2.0.10.353	2.0.10.353	04-22-2015	4/22/2015 6:05:24 PM	14:05:24	2.0.10.248	3	1	1	1	NA	NA	NA	NA	NA	NA	NA	NA	NA	NA	NA	NA	NA	NA	NA	NA	NA	NA	NA	NA	NA	NA	NA	NA	BlockProc	BlockList	NA	57	{RIGHTARROW}	NA	-100	1763	neutral	NA	NA	NA	NA	NA	NA	NA	NA	NA	NA	NA	NA	NA	NA	NA	NA	NA	NA	NA	NA	NA	NA	TrialProc	TrialList	0	16	347951	16	0	17	346418	0	1	{RIGHTARROW}	-999999	0	347551	0	{RIGHTARROW}	384	347935	NA	NA	right	ooroo.bmp	354	0	NA	0	0	0	0	NA	0	0	0	NA	0	0	0	0	NA	0	0	6	1	57
Arrow Flanker 2014	12218	1	"<?xml version=""1.0""?>\n<Clock xmlns:dt=""urn:schemas-microsoft-com:datatypes""><Description dt:dt=""string"">E-Prime Primary Realtime Clock</Description><StartTime><Timestamp dt:dt=""int"">0</Timestamp><DateUtc dt:dt=""string"">2015-04-22T18:05:24Z</DateUtc></StartTime><FrequencyChanges><FrequencyChange><Frequency dt:dt=""r8"">2825556</Frequency><Timestamp dt:dt=""r8"">1271533933907</Timestamp><Current dt:dt=""r8"">0</Current><DateUtc dt:dt=""string"">2015-04-22T18:05:24Z</DateUtc></FrequencyChange></FrequencyChanges></Clock>\n"	Arrow Flanker 2014-12218-1	60.016	1.0.0.98	1	224150055	Professional	2.0.10.353	2.0.10.353	04-22-2015	4/22/2015 6:05:24 PM	14:05:24	2.0.10.248	3	1	1	1	NA	NA	NA	NA	NA	NA	NA	NA	NA	NA	NA	NA	NA	NA	NA	NA	NA	NA	NA	NA	NA	NA	NA	NA	BlockProc	BlockList	NA	58	{RIGHTARROW}	NA	-100	1745	congruent	NA	NA	NA	NA	NA	NA	NA	NA	NA	NA	NA	NA	NA	NA	NA	NA	NA	NA	NA	NA	NA	NA	TrialProc	TrialList	0	6	350117	16	0	17	348484	0	1	{RIGHTARROW}	-999999	0	349717	0	{RIGHTARROW}	394	350111	NA	NA	right	rrrrr.bmp	354	0	NA	0	0	0	0	NA	0	0	0	NA	0	0	0	0	NA	0	0	2	1	58
Arrow Flanker 2014	12218	1	"<?xml version=""1.0""?>\n<Clock xmlns:dt=""urn:schemas-microsoft-com:datatypes""><Description dt:dt=""string"">E-Prime Primary Realtime Clock</Description><StartTime><Timestamp dt:dt=""int"">0</Timestamp><DateUtc dt:dt=""string"">2015-04-22T18:05:24Z</DateUtc></StartTime><FrequencyChanges><FrequencyChange><Frequency dt:dt=""r8"">2825556</Frequency><Timestamp dt:dt=""r8"">1271533933907</Timestamp><Current dt:dt=""r8"">0</Current><DateUtc dt:dt=""string"">2015-04-22T18:05:24Z</DateUtc></FrequencyChange></FrequencyChanges></Clock>\n"	Arrow Flanker 2014-12218-1	60.016	1.0.0.98	1	224150055	Professional	2.0.10.353	2.0.10.353	04-22-2015	4/22/2015 6:05:24 PM	14:05:24	2.0.10.248	3	1	1	1	NA	NA	NA	NA	NA	NA	NA	NA	NA	NA	NA	NA	NA	NA	NA	NA	NA	NA	NA	NA	NA	NA	NA	NA	BlockProc	BlockList	NA	59	{LEFTARROW}	NA	-100	1908	neutral	NA	NA	NA	NA	NA	NA	NA	NA	NA	NA	NA	NA	NA	NA	NA	NA	NA	NA	NA	NA	NA	NA	TrialProc	TrialList	1	8	353199	17	0	17	350650	0	1	{LEFTARROW}	-999999	0	352716	0	{LEFTARROW}	475	353191	NA	NA	left	ooloo.bmp	354	0	NA	0	0	0	0	NA	0	0	0	NA	0	0	0	0	NA	0	0	5	1	59
Arrow Flanker 2014	12218	1	"<?xml version=""1.0""?>\n<Clock xmlns:dt=""urn:schemas-microsoft-com:datatypes""><Description dt:dt=""string"">E-Prime Primary Realtime Clock</Description><StartTime><Timestamp dt:dt=""int"">0</Timestamp><DateUtc dt:dt=""string"">2015-04-22T18:05:24Z</DateUtc></StartTime><FrequencyChanges><FrequencyChange><Frequency dt:dt=""r8"">2825556</Frequency><Timestamp dt:dt=""r8"">1271533933907</Timestamp><Current dt:dt=""r8"">0</Current><DateUtc dt:dt=""string"">2015-04-22T18:05:24Z</DateUtc></FrequencyChange></FrequencyChanges></Clock>\n"	Arrow Flanker 2014-12218-1	60.016	1.0.0.98	1	224150055	Professional	2.0.10.353	2.0.10.353	04-22-2015	4/22/2015 6:05:24 PM	14:05:24	2.0.10.248	3	1	1	1	NA	NA	NA	NA	NA	NA	NA	NA	NA	NA	NA	NA	NA	NA	NA	NA	NA	NA	NA	NA	NA	NA	NA	NA	BlockProc	BlockList	NA	60	{RIGHTARROW}	NA	-100	1961	incongruent	NA	NA	NA	NA	NA	NA	NA	NA	NA	NA	NA	NA	NA	NA	NA	NA	NA	NA	NA	NA	NA	NA	TrialProc	TrialList	0	4	355915	17	0	16	353732	0	1	{RIGHTARROW}	-999999	0	355415	0	{RIGHTARROW}	496	355911	NA	NA	right	llrll.bmp	354	0	NA	0	0	0	0	NA	0	0	0	NA	0	0	0	0	NA	0	0	4	1	60
Arrow Flanker 2014	12218	1	"<?xml version=""1.0""?>\n<Clock xmlns:dt=""urn:schemas-microsoft-com:datatypes""><Description dt:dt=""string"">E-Prime Primary Realtime Clock</Description><StartTime><Timestamp dt:dt=""int"">0</Timestamp><DateUtc dt:dt=""string"">2015-04-22T18:05:24Z</DateUtc></StartTime><FrequencyChanges><FrequencyChange><Frequency dt:dt=""r8"">2825556</Frequency><Timestamp dt:dt=""r8"">1271533933907</Timestamp><Current dt:dt=""r8"">0</Current><DateUtc dt:dt=""string"">2015-04-22T18:05:24Z</DateUtc></FrequencyChange></FrequencyChanges></Clock>\n"	Arrow Flanker 2014-12218-1	60.016	1.0.0.98	1	224150055	Professional	2.0.10.353	2.0.10.353	04-22-2015	4/22/2015 6:05:24 PM	14:05:24	2.0.10.248	3	1	1	1	NA	NA	NA	NA	NA	NA	NA	NA	NA	NA	NA	NA	NA	NA	NA	NA	NA	NA	NA	NA	NA	NA	NA	NA	BlockProc	BlockList	NA	61	{LEFTARROW}	NA	-100	1256	neutral	NA	NA	NA	NA	NA	NA	NA	NA	NA	NA	NA	NA	NA	NA	NA	NA	NA	NA	NA	NA	NA	NA	TrialProc	TrialList	1	12	358331	17	0	16	356448	0	1	{LEFTARROW}	-999999	0	357665	0	{LEFTARROW}	654	358319	NA	NA	left	ooloo.bmp	354	0	NA	0	0	0	0	NA	0	0	0	NA	0	0	0	0	NA	0	0	5	1	61
Arrow Flanker 2014	12218	1	"<?xml version=""1.0""?>\n<Clock xmlns:dt=""urn:schemas-microsoft-com:datatypes""><Description dt:dt=""string"">E-Prime Primary Realtime Clock</Description><StartTime><Timestamp dt:dt=""int"">0</Timestamp><DateUtc dt:dt=""string"">2015-04-22T18:05:24Z</DateUtc></StartTime><FrequencyChanges><FrequencyChange><Frequency dt:dt=""r8"">2825556</Frequency><Timestamp dt:dt=""r8"">1271533933907</Timestamp><Current dt:dt=""r8"">0</Current><DateUtc dt:dt=""string"">2015-04-22T18:05:24Z</DateUtc></FrequencyChange></FrequencyChanges></Clock>\n"	Arrow Flanker 2014-12218-1	60.016	1.0.0.98	1	224150055	Professional	2.0.10.353	2.0.10.353	04-22-2015	4/22/2015 6:05:24 PM	14:05:24	2.0.10.248	3	1	1	1	NA	NA	NA	NA	NA	NA	NA	NA	NA	NA	NA	NA	NA	NA	NA	NA	NA	NA	NA	NA	NA	NA	NA	NA	BlockProc	BlockList	NA	62	{LEFTARROW}	NA	-100	1727	incongruent	NA	NA	NA	NA	NA	NA	NA	NA	NA	NA	NA	NA	NA	NA	NA	NA	NA	NA	NA	NA	NA	NA	TrialProc	TrialList	0	17	360664	17	0	16	358864	0	1	{LEFTARROW}	-999999	0	360097	0	{LEFTARROW}	550	360647	NA	NA	left	rrlrr.bmp	354	0	NA	0	0	0	0	NA	0	0	0	NA	0	0	0	0	NA	0	0	3	1	62
Arrow Flanker 2014	12218	1	"<?xml version=""1.0""?>\n<Clock xmlns:dt=""urn:schemas-microsoft-com:datatypes""><Description dt:dt=""string"">E-Prime Primary Realtime Clock</Description><StartTime><Timestamp dt:dt=""int"">0</Timestamp><DateUtc dt:dt=""string"">2015-04-22T18:05:24Z</DateUtc></StartTime><FrequencyChanges><FrequencyChange><Frequency dt:dt=""r8"">2825556</Frequency><Timestamp dt:dt=""r8"">1271533933907</Timestamp><Current dt:dt=""r8"">0</Current><DateUtc dt:dt=""string"">2015-04-22T18:05:24Z</DateUtc></FrequencyChange></FrequencyChanges></Clock>\n"	Arrow Flanker 2014-12218-1	60.016	1.0.0.98	1	224150055	Professional	2.0.10.353	2.0.10.353	04-22-2015	4/22/2015 6:05:24 PM	14:05:24	2.0.10.248	3	1	1	1	NA	NA	NA	NA	NA	NA	NA	NA	NA	NA	NA	NA	NA	NA	NA	NA	NA	NA	NA	NA	NA	NA	NA	NA	BlockProc	BlockList	NA	63	{LEFTARROW}	NA	-100	1139	congruent	NA	NA	NA	NA	NA	NA	NA	NA	NA	NA	NA	NA	NA	NA	NA	NA	NA	NA	NA	NA	NA	NA	TrialProc	TrialList	0	11	362930	17	0	16	361197	0	1	{LEFTARROW}	-999999	16	362230	0	{LEFTARROW}	689	362919	NA	NA	left	lllll.bmp	354	0	NA	0	0	0	0	NA	0	0	0	NA	0	0	0	0	NA	0	0	1	1	63
Arrow Flanker 2014	12218	1	"<?xml version=""1.0""?>\n<Clock xmlns:dt=""urn:schemas-microsoft-com:datatypes""><Description dt:dt=""string"">E-Prime Primary Realtime Clock</Description><StartTime><Timestamp dt:dt=""int"">0</Timestamp><DateUtc dt:dt=""string"">2015-04-22T18:05:24Z</DateUtc></StartTime><FrequencyChanges><FrequencyChange><Frequency dt:dt=""r8"">2825556</Frequency><Timestamp dt:dt=""r8"">1271533933907</Timestamp><Current dt:dt=""r8"">0</Current><DateUtc dt:dt=""string"">2015-04-22T18:05:24Z</DateUtc></FrequencyChange></FrequencyChanges></Clock>\n"	Arrow Flanker 2014-12218-1	60.016	1.0.0.98	1	224150055	Professional	2.0.10.353	2.0.10.353	04-22-2015	4/22/2015 6:05:24 PM	14:05:24	2.0.10.248	3	1	1	1	NA	NA	NA	NA	NA	NA	NA	NA	NA	NA	NA	NA	NA	NA	NA	NA	NA	NA	NA	NA	NA	NA	NA	NA	BlockProc	BlockList	NA	64	{LEFTARROW}	NA	-100	1108	congruent	NA	NA	NA	NA	NA	NA	NA	NA	NA	NA	NA	NA	NA	NA	NA	NA	NA	NA	NA	NA	NA	NA	TrialProc	TrialList	0	12	364763	16	0	16	363463	0	1	{LEFTARROW}	-999999	0	364396	0	{LEFTARROW}	355	364751	NA	NA	left	lllll.bmp	354	0	NA	0	0	0	0	NA	0	0	0	NA	0	0	0	0	NA	0	0	1	1	64
Arrow Flanker 2014	12218	1	"<?xml version=""1.0""?>\n<Clock xmlns:dt=""urn:schemas-microsoft-com:datatypes""><Description dt:dt=""string"">E-Prime Primary Realtime Clock</Description><StartTime><Timestamp dt:dt=""int"">0</Timestamp><DateUtc dt:dt=""string"">2015-04-22T18:05:24Z</DateUtc></StartTime><FrequencyChanges><FrequencyChange><Frequency dt:dt=""r8"">2825556</Frequency><Timestamp dt:dt=""r8"">1271533933907</Timestamp><Current dt:dt=""r8"">0</Current><DateUtc dt:dt=""string"">2015-04-22T18:05:24Z</DateUtc></FrequencyChange></FrequencyChanges></Clock>\n"	Arrow Flanker 2014-12218-1	60.016	1.0.0.98	1	224150055	Professional	2.0.10.353	2.0.10.353	04-22-2015	4/22/2015 6:05:24 PM	14:05:24	2.0.10.248	3	1	1	1	NA	NA	NA	NA	NA	NA	NA	NA	NA	NA	NA	NA	NA	NA	NA	NA	NA	NA	NA	NA	NA	NA	NA	NA	BlockProc	BlockList	NA	65	{LEFTARROW}	NA	-100	1472	neutral	NA	NA	NA	NA	NA	NA	NA	NA	NA	NA	NA	NA	NA	NA	NA	NA	NA	NA	NA	NA	NA	NA	TrialProc	TrialList	1	15	367462	17	0	17	365296	0	1	{LEFTARROW}	-999999	0	366929	0	{LEFTARROW}	517	367446	NA	NA	left	ooloo.bmp	354	0	NA	0	0	0	0	NA	0	0	0	NA	0	0	0	0	NA	0	0	5	1	65
Arrow Flanker 2014	12218	1	"<?xml version=""1.0""?>\n<Clock xmlns:dt=""urn:schemas-microsoft-com:datatypes""><Description dt:dt=""string"">E-Prime Primary Realtime Clock</Description><StartTime><Timestamp dt:dt=""int"">0</Timestamp><DateUtc dt:dt=""string"">2015-04-22T18:05:24Z</DateUtc></StartTime><FrequencyChanges><FrequencyChange><Frequency dt:dt=""r8"">2825556</Frequency><Timestamp dt:dt=""r8"">1271533933907</Timestamp><Current dt:dt=""r8"">0</Current><DateUtc dt:dt=""string"">2015-04-22T18:05:24Z</DateUtc></FrequencyChange></FrequencyChanges></Clock>\n"	Arrow Flanker 2014-12218-1	60.016	1.0.0.98	1	224150055	Professional	2.0.10.353	2.0.10.353	04-22-2015	4/22/2015 6:05:24 PM	14:05:24	2.0.10.248	3	1	1	1	NA	NA	NA	NA	NA	NA	NA	NA	NA	NA	NA	NA	NA	NA	NA	NA	NA	NA	NA	NA	NA	NA	NA	NA	BlockProc	BlockList	NA	66	{LEFTARROW}	NA	-100	2288	neutral	NA	NA	NA	NA	NA	NA	NA	NA	NA	NA	NA	NA	NA	NA	NA	NA	NA	NA	NA	NA	NA	NA	TrialProc	TrialList	0	9	370095	16	0	16	367995	0	1	{LEFTARROW}	-999999	0	369712	0	{LEFTARROW}	374	370086	NA	NA	left	ooloo.bmp	354	0	NA	0	0	0	0	NA	0	0	0	NA	0	0	0	0	NA	0	0	5	1	66
Arrow Flanker 2014	12218	1	"<?xml version=""1.0""?>\n<Clock xmlns:dt=""urn:schemas-microsoft-com:datatypes""><Description dt:dt=""string"">E-Prime Primary Realtime Clock</Description><StartTime><Timestamp dt:dt=""int"">0</Timestamp><DateUtc dt:dt=""string"">2015-04-22T18:05:24Z</DateUtc></StartTime><FrequencyChanges><FrequencyChange><Frequency dt:dt=""r8"">2825556</Frequency><Timestamp dt:dt=""r8"">1271533933907</Timestamp><Current dt:dt=""r8"">0</Current><DateUtc dt:dt=""string"">2015-04-22T18:05:24Z</DateUtc></FrequencyChange></FrequencyChanges></Clock>\n"	Arrow Flanker 2014-12218-1	60.016	1.0.0.98	1	224150055	Professional	2.0.10.353	2.0.10.353	04-22-2015	4/22/2015 6:05:24 PM	14:05:24	2.0.10.248	3	1	1	1	NA	NA	NA	NA	NA	NA	NA	NA	NA	NA	NA	NA	NA	NA	NA	NA	NA	NA	NA	NA	NA	NA	NA	NA	BlockProc	BlockList	NA	67	{LEFTARROW}	NA	-100	847	congruent	NA	NA	NA	NA	NA	NA	NA	NA	NA	NA	NA	NA	NA	NA	NA	NA	NA	NA	NA	NA	NA	NA	TrialProc	TrialList	0	6	372028	16	0	17	370628	0	1	{LEFTARROW}	-999999	0	371694	0	{LEFTARROW}	328	372022	NA	NA	left	lllll.bmp	354	0	NA	0	0	0	0	NA	0	0	0	NA	0	0	0	0	NA	0	0	1	1	67
Arrow Flanker 2014	12218	1	"<?xml version=""1.0""?>\n<Clock xmlns:dt=""urn:schemas-microsoft-com:datatypes""><Description dt:dt=""string"">E-Prime Primary Realtime Clock</Description><StartTime><Timestamp dt:dt=""int"">0</Timestamp><DateUtc dt:dt=""string"">2015-04-22T18:05:24Z</DateUtc></StartTime><FrequencyChanges><FrequencyChange><Frequency dt:dt=""r8"">2825556</Frequency><Timestamp dt:dt=""r8"">1271533933907</Timestamp><Current dt:dt=""r8"">0</Current><DateUtc dt:dt=""string"">2015-04-22T18:05:24Z</DateUtc></FrequencyChange></FrequencyChanges></Clock>\n"	Arrow Flanker 2014-12218-1	60.016	1.0.0.98	1	224150055	Professional	2.0.10.353	2.0.10.353	04-22-2015	4/22/2015 6:05:24 PM	14:05:24	2.0.10.248	3	1	1	1	NA	NA	NA	NA	NA	NA	NA	NA	NA	NA	NA	NA	NA	NA	NA	NA	NA	NA	NA	NA	NA	NA	NA	NA	BlockProc	BlockList	NA	68	{LEFTARROW}	NA	-100	1977	incongruent	NA	NA	NA	NA	NA	NA	NA	NA	NA	NA	NA	NA	NA	NA	NA	NA	NA	NA	NA	NA	NA	NA	TrialProc	TrialList	0	11	374977	16	0	17	372561	0	1	{LEFTARROW}	-999999	0	374460	0	{LEFTARROW}	506	374966	NA	NA	left	rrlrr.bmp	354	0	NA	0	0	0	0	NA	0	0	0	NA	0	0	0	0	NA	0	0	3	1	68
Arrow Flanker 2014	12218	1	"<?xml version=""1.0""?>\n<Clock xmlns:dt=""urn:schemas-microsoft-com:datatypes""><Description dt:dt=""string"">E-Prime Primary Realtime Clock</Description><StartTime><Timestamp dt:dt=""int"">0</Timestamp><DateUtc dt:dt=""string"">2015-04-22T18:05:24Z</DateUtc></StartTime><FrequencyChanges><FrequencyChange><Frequency dt:dt=""r8"">2825556</Frequency><Timestamp dt:dt=""r8"">1271533933907</Timestamp><Current dt:dt=""r8"">0</Current><DateUtc dt:dt=""string"">2015-04-22T18:05:24Z</DateUtc></FrequencyChange></FrequencyChanges></Clock>\n"	Arrow Flanker 2014-12218-1	60.016	1.0.0.98	1	224150055	Professional	2.0.10.353	2.0.10.353	04-22-2015	4/22/2015 6:05:24 PM	14:05:24	2.0.10.248	3	1	1	1	NA	NA	NA	NA	NA	NA	NA	NA	NA	NA	NA	NA	NA	NA	NA	NA	NA	NA	NA	NA	NA	NA	NA	NA	BlockProc	BlockList	NA	69	{RIGHTARROW}	NA	-100	1734	incongruent	NA	NA	NA	NA	NA	NA	NA	NA	NA	NA	NA	NA	NA	NA	NA	NA	NA	NA	NA	NA	NA	NA	TrialProc	TrialList	0	11	377793	16	0	17	375510	0	0	{RIGHTARROW}	-999999	0	377476	0	{LEFTARROW}	306	377782	NA	NA	right	llrll.bmp	354	0	NA	0	0	0	0	NA	0	0	0	NA	0	0	0	0	NA	0	0	4	1	69
Arrow Flanker 2014	12218	1	"<?xml version=""1.0""?>\n<Clock xmlns:dt=""urn:schemas-microsoft-com:datatypes""><Description dt:dt=""string"">E-Prime Primary Realtime Clock</Description><StartTime><Timestamp dt:dt=""int"">0</Timestamp><DateUtc dt:dt=""string"">2015-04-22T18:05:24Z</DateUtc></StartTime><FrequencyChanges><FrequencyChange><Frequency dt:dt=""r8"">2825556</Frequency><Timestamp dt:dt=""r8"">1271533933907</Timestamp><Current dt:dt=""r8"">0</Current><DateUtc dt:dt=""string"">2015-04-22T18:05:24Z</DateUtc></FrequencyChange></FrequencyChanges></Clock>\n"	Arrow Flanker 2014-12218-1	60.016	1.0.0.98	1	224150055	Professional	2.0.10.353	2.0.10.353	04-22-2015	4/22/2015 6:05:24 PM	14:05:24	2.0.10.248	3	1	1	1	NA	NA	NA	NA	NA	NA	NA	NA	NA	NA	NA	NA	NA	NA	NA	NA	NA	NA	NA	NA	NA	NA	NA	NA	BlockProc	BlockList	NA	70	{LEFTARROW}	NA	-100	1049	congruent	NA	NA	NA	NA	NA	NA	NA	NA	NA	NA	NA	NA	NA	NA	NA	NA	NA	NA	NA	NA	2	1	TrialProc	TrialList	1	16	380142	17	0	17	378326	0	1	{LEFTARROW}	-999999	0	379709	0	{LEFTARROW}	417	380126	NA	NA	left	lllll.bmp	354	0	NA	-999999	24	382658	0	1	528	383186	0	NA	-999999	22	383208	0	1	1370	384578	1	1	70
Arrow Flanker 2014	12218	1	"<?xml version=""1.0""?>\n<Clock xmlns:dt=""urn:schemas-microsoft-com:datatypes""><Description dt:dt=""string"">E-Prime Primary Realtime Clock</Description><StartTime><Timestamp dt:dt=""int"">0</Timestamp><DateUtc dt:dt=""string"">2015-04-22T18:05:24Z</DateUtc></StartTime><FrequencyChanges><FrequencyChange><Frequency dt:dt=""r8"">2825556</Frequency><Timestamp dt:dt=""r8"">1271533933907</Timestamp><Current dt:dt=""r8"">0</Current><DateUtc dt:dt=""string"">2015-04-22T18:05:24Z</DateUtc></FrequencyChange></FrequencyChanges></Clock>\n"	Arrow Flanker 2014-12218-1	60.016	1.0.0.98	1	224150055	Professional	2.0.10.353	2.0.10.353	04-22-2015	4/22/2015 6:05:24 PM	14:05:24	2.0.10.248	3	1	1	1	NA	NA	NA	NA	NA	NA	NA	NA	NA	NA	NA	NA	NA	NA	NA	NA	NA	NA	NA	NA	NA	NA	NA	NA	BlockProc	BlockList	NA	71	{LEFTARROW}	NA	-100	563	incongruent	NA	NA	NA	NA	NA	NA	NA	NA	NA	NA	NA	NA	NA	NA	NA	NA	NA	NA	NA	NA	NA	NA	TrialProc	TrialList	0	17	387807	16	0	20	385874	0	1	{LEFTARROW}	-999999	0	386907	0	{LEFTARROW}	883	387790	NA	NA	left	rrlrr.bmp	354	0	NA	0	0	0	0	NA	0	0	0	NA	0	0	0	0	NA	0	0	3	1	71
Arrow Flanker 2014	12218	1	"<?xml version=""1.0""?>\n<Clock xmlns:dt=""urn:schemas-microsoft-com:datatypes""><Description dt:dt=""string"">E-Prime Primary Realtime Clock</Description><StartTime><Timestamp dt:dt=""int"">0</Timestamp><DateUtc dt:dt=""string"">2015-04-22T18:05:24Z</DateUtc></StartTime><FrequencyChanges><FrequencyChange><Frequency dt:dt=""r8"">2825556</Frequency><Timestamp dt:dt=""r8"">1271533933907</Timestamp><Current dt:dt=""r8"">0</Current><DateUtc dt:dt=""string"">2015-04-22T18:05:24Z</DateUtc></FrequencyChange></FrequencyChanges></Clock>\n"	Arrow Flanker 2014-12218-1	60.016	1.0.0.98	1	224150055	Professional	2.0.10.353	2.0.10.353	04-22-2015	4/22/2015 6:05:24 PM	14:05:24	2.0.10.248	3	1	1	1	NA	NA	NA	NA	NA	NA	NA	NA	NA	NA	NA	NA	NA	NA	NA	NA	NA	NA	NA	NA	NA	NA	NA	NA	BlockProc	BlockList	NA	72	{LEFTARROW}	NA	-100	2121	congruent	NA	NA	NA	NA	NA	NA	NA	NA	NA	NA	NA	NA	NA	NA	NA	NA	NA	NA	NA	NA	NA	NA	TrialProc	TrialList	1	13	390739	17	0	17	388340	0	1	{LEFTARROW}	-999999	0	390356	0	{LEFTARROW}	370	390726	NA	NA	left	lllll.bmp	354	0	NA	0	0	0	0	NA	0	0	0	NA	0	0	0	0	NA	0	0	1	1	72
Arrow Flanker 2014	12218	1	"<?xml version=""1.0""?>\n<Clock xmlns:dt=""urn:schemas-microsoft-com:datatypes""><Description dt:dt=""string"">E-Prime Primary Realtime Clock</Description><StartTime><Timestamp dt:dt=""int"">0</Timestamp><DateUtc dt:dt=""string"">2015-04-22T18:05:24Z</DateUtc></StartTime><FrequencyChanges><FrequencyChange><Frequency dt:dt=""r8"">2825556</Frequency><Timestamp dt:dt=""r8"">1271533933907</Timestamp><Current dt:dt=""r8"">0</Current><DateUtc dt:dt=""string"">2015-04-22T18:05:24Z</DateUtc></FrequencyChange></FrequencyChanges></Clock>\n"	Arrow Flanker 2014-12218-1	60.016	1.0.0.98	1	224150055	Professional	2.0.10.353	2.0.10.353	04-22-2015	4/22/2015 6:05:24 PM	14:05:24	2.0.10.248	3	1	1	1	NA	NA	NA	NA	NA	NA	NA	NA	NA	NA	NA	NA	NA	NA	NA	NA	NA	NA	NA	NA	NA	NA	NA	NA	BlockProc	BlockList	NA	73	{LEFTARROW}	NA	-100	1719	congruent	NA	NA	NA	NA	NA	NA	NA	NA	NA	NA	NA	NA	NA	NA	NA	NA	NA	NA	NA	NA	NA	NA	TrialProc	TrialList	1	13	392955	17	0	17	391273	0	1	{LEFTARROW}	-999999	0	392656	0	{LEFTARROW}	286	392942	NA	NA	left	lllll.bmp	354	0	NA	0	0	0	0	NA	0	0	0	NA	0	0	0	0	NA	0	0	1	1	73
