ExperimentName	Subject	Session	Clock.Information	DataFile.Basename	Display.RefreshRate	ExperimentVersion	Group	RandomSeed	RuntimeCapabilities	RuntimeVersion	RuntimeVersionExpected	SessionDate	SessionStartDateTimeUtc	SessionTime	StudioVersion	Block	BlockList	BlockList.Cycle	BlockList.Sample	Both	CompletelyMW	CongMeanRT	CongTotal	Fragmented	GoodByeList	GoodByeList.Cycle	GoodByeList.Sample	IncongMeanRT	IncongTotal	MapBlockList	MapBlockList.Cycle	MapBlockList.Sample	Mindwandering	MostlyMW	MostlyOT	NeutralMeanRT	NeutralTotal	NumberProbes1	NumberProbes2	OnTask	PracBlockList	PracBlockList.Cycle	PracBlockList.Sample	Procedure[Block]	Running[Block]	Sequential	Trial	CorrectAnswer	CuePositionY	CuePositionY2	DurationOfFixation	FlankerType	MapTrialList	MapTrialList.Cycle	MapTrialList.Sample	PracSlideFixationStart.DurationError	PracSlideFixationStart.OnsetDelay	PracSlideFixationStart.OnsetTime	PracSlideFixationStart.OnsetToOnsetTime	PracSlideTarget.ACC	PracSlideTarget.CRESP	PracSlideTarget.DurationError	PracSlideTarget.OnsetDelay	PracSlideTarget.OnsetTime	PracSlideTarget.OnsetToOnsetTime	PracSlideTarget.RESP	PracSlideTarget.RT	PracSlideTarget.RTTime	PracSlideTarget.Tag	PracTrialList	PracTrialList.Cycle	PracTrialList.Sample	Probe1Resp	Probe2Resp	Procedure[Trial]	Running[Trial]	SlideFixationEnd.DurationError	SlideFixationEnd.OnsetDelay	SlideFixationEnd.OnsetTime	SlideFixationEnd.OnsetToOnsetTime	SlideFixationStart.DurationError	SlideFixationStart.OnsetDelay	SlideFixationStart.OnsetTime	SlideFixationStart.OnsetToOnsetTime	SlideTarget.ACC	SlideTarget.CRESP	SlideTarget.DurationError	SlideTarget.OnsetDelay	SlideTarget.OnsetTime	SlideTarget.OnsetToOnsetTime	SlideTarget.RESP	SlideTarget.RT	SlideTarget.RTTime	SlideTarget.Tag	TargerDirection	TargetDirection	TargetImage	TargetPosition	ThoughtProbe1.ACC	ThoughtProbe1.CRESP	ThoughtProbe1.DurationError	ThoughtProbe1.OnsetDelay	ThoughtProbe1.OnsetTime	ThoughtProbe1.OnsetToOnsetTime	ThoughtProbe1.RESP	ThoughtProbe1.RT	ThoughtProbe1.RTTime	ThoughtProbe2.ACC	ThoughtProbe2.CRESP	ThoughtProbe2.DurationError	ThoughtProbe2.OnsetDelay	ThoughtProbe2.OnsetTime	ThoughtProbe2.OnsetToOnsetTime	ThoughtProbe2.RESP	ThoughtProbe2.RT	ThoughtProbe2.RTTime	TrialList	TrialList.Cycle	TrialList.Sample
Arrow Flanker 2014	12237	1	"<?xml version=""1.0""?>\n<Clock xmlns:dt=""urn:schemas-microsoft-com:datatypes""><Description dt:dt=""string"">E-Prime Primary Realtime Clock</Description><StartTime><Timestamp dt:dt=""int"">0</Timestamp><DateUtc dt:dt=""string"">2015-04-28T16:33:51Z</DateUtc></StartTime><FrequencyChanges><FrequencyChange><Frequency dt:dt=""r8"">2825683</Frequency><Timestamp dt:dt=""r8"">213287891307</Timestamp><Current dt:dt=""r8"">0</Current><DateUtc dt:dt=""string"">2015-04-28T16:33:51Z</DateUtc></FrequencyChange></FrequencyChanges></Clock>\n"	Arrow Flanker 2014-12237-1	60.018	1.0.0.98	1	-1459921193	Professional	2.0.10.353	2.0.10.353	04-28-2015	4/28/2015 4:33:51 PM	12:33:51	2.0.10.248	1	NA	NA	NA	NA	NA	NA	NA	NA	NA	NA	NA	NA	NA	1	1	1	NA	NA	NA	NA	NA	NA	NA	NA	NA	NA	NA	MapBlockProc	MapBlockList	NA	1	{LEFTARROW}	-100	NA	1019	NA	1	1	1	0	10	282630	1033	0	{LEFTARROW}	0	0	284163	1700	NA	0	0	NA	NA	NA	NA	NA	NA	MapTrialProc	MapTrialList	NA	NA	NA	NA	NA	NA	NA	NA	NA	NA	NA	NA	NA	NA	NA	NA	NA	NA	left	NA	L.bmp	354	NA	NA	NA	NA	NA	NA	NA	NA	NA	NA	NA	NA	NA	NA	NA	NA	NA	NA	NA	NA	NA
Arrow Flanker 2014	12237	1	"<?xml version=""1.0""?>\n<Clock xmlns:dt=""urn:schemas-microsoft-com:datatypes""><Description dt:dt=""string"">E-Prime Primary Realtime Clock</Description><StartTime><Timestamp dt:dt=""int"">0</Timestamp><DateUtc dt:dt=""string"">2015-04-28T16:33:51Z</DateUtc></StartTime><FrequencyChanges><FrequencyChange><Frequency dt:dt=""r8"">2825683</Frequency><Timestamp dt:dt=""r8"">213287891307</Timestamp><Current dt:dt=""r8"">0</Current><DateUtc dt:dt=""string"">2015-04-28T16:33:51Z</DateUtc></FrequencyChange></FrequencyChanges></Clock>\n"	Arrow Flanker 2014-12237-1	60.018	1.0.0.98	1	-1459921193	Professional	2.0.10.353	2.0.10.353	04-28-2015	4/28/2015 4:33:51 PM	12:33:51	2.0.10.248	1	NA	NA	NA	NA	NA	NA	NA	NA	NA	NA	NA	NA	NA	1	1	1	NA	NA	NA	NA	NA	NA	NA	NA	NA	NA	NA	MapBlockProc	MapBlockList	NA	2	{RIGHTARROW}	-100	NA	661	NA	2	1	2	0	16	287379	666	1	{RIGHTARROW}	-999999	0	288545	0	{RIGHTARROW}	890	289435	NA	NA	NA	NA	NA	NA	MapTrialProc	MapTrialList	NA	NA	NA	NA	NA	NA	NA	NA	NA	NA	NA	NA	NA	NA	NA	NA	NA	NA	right	NA	R.bmp	354	NA	NA	NA	NA	NA	NA	NA	NA	NA	NA	NA	NA	NA	NA	NA	NA	NA	NA	NA	NA	NA
Arrow Flanker 2014	12237	1	"<?xml version=""1.0""?>\n<Clock xmlns:dt=""urn:schemas-microsoft-com:datatypes""><Description dt:dt=""string"">E-Prime Primary Realtime Clock</Description><StartTime><Timestamp dt:dt=""int"">0</Timestamp><DateUtc dt:dt=""string"">2015-04-28T16:33:51Z</DateUtc></StartTime><FrequencyChanges><FrequencyChange><Frequency dt:dt=""r8"">2825683</Frequency><Timestamp dt:dt=""r8"">213287891307</Timestamp><Current dt:dt=""r8"">0</Current><DateUtc dt:dt=""string"">2015-04-28T16:33:51Z</DateUtc></FrequencyChange></FrequencyChanges></Clock>\n"	Arrow Flanker 2014-12237-1	60.018	1.0.0.98	1	-1459921193	Professional	2.0.10.353	2.0.10.353	04-28-2015	4/28/2015 4:33:51 PM	12:33:51	2.0.10.248	1	NA	NA	NA	NA	NA	NA	NA	NA	NA	NA	NA	NA	NA	1	1	1	NA	NA	NA	NA	NA	NA	NA	NA	NA	NA	NA	MapBlockProc	MapBlockList	NA	3	{LEFTARROW}	-100	NA	973	NA	1	1	3	0	16	290961	983	0	{LEFTARROW}	0	0	292444	1716	NA	0	0	NA	NA	NA	NA	NA	NA	MapTrialProc	MapTrialList	NA	NA	NA	NA	NA	NA	NA	NA	NA	NA	NA	NA	NA	NA	NA	NA	NA	NA	left	NA	L.bmp	354	NA	NA	NA	NA	NA	NA	NA	NA	NA	NA	NA	NA	NA	NA	NA	NA	NA	NA	NA	NA	NA
Arrow Flanker 2014	12237	1	"<?xml version=""1.0""?>\n<Clock xmlns:dt=""urn:schemas-microsoft-com:datatypes""><Description dt:dt=""string"">E-Prime Primary Realtime Clock</Description><StartTime><Timestamp dt:dt=""int"">0</Timestamp><DateUtc dt:dt=""string"">2015-04-28T16:33:51Z</DateUtc></StartTime><FrequencyChanges><FrequencyChange><Frequency dt:dt=""r8"">2825683</Frequency><Timestamp dt:dt=""r8"">213287891307</Timestamp><Current dt:dt=""r8"">0</Current><DateUtc dt:dt=""string"">2015-04-28T16:33:51Z</DateUtc></FrequencyChange></FrequencyChanges></Clock>\n"	Arrow Flanker 2014-12237-1	60.018	1.0.0.98	1	-1459921193	Professional	2.0.10.353	2.0.10.353	04-28-2015	4/28/2015 4:33:51 PM	12:33:51	2.0.10.248	1	NA	NA	NA	NA	NA	NA	NA	NA	NA	NA	NA	NA	NA	1	1	1	NA	NA	NA	NA	NA	NA	NA	NA	NA	NA	NA	MapBlockProc	MapBlockList	NA	4	{LEFTARROW}	-100	NA	758	NA	1	1	4	0	16	295676	767	1	{LEFTARROW}	-999999	16	296959	0	{LEFTARROW}	451	297410	NA	NA	NA	NA	NA	NA	MapTrialProc	MapTrialList	NA	NA	NA	NA	NA	NA	NA	NA	NA	NA	NA	NA	NA	NA	NA	NA	NA	NA	left	NA	L.bmp	354	NA	NA	NA	NA	NA	NA	NA	NA	NA	NA	NA	NA	NA	NA	NA	NA	NA	NA	NA	NA	NA
Arrow Flanker 2014	12237	1	"<?xml version=""1.0""?>\n<Clock xmlns:dt=""urn:schemas-microsoft-com:datatypes""><Description dt:dt=""string"">E-Prime Primary Realtime Clock</Description><StartTime><Timestamp dt:dt=""int"">0</Timestamp><DateUtc dt:dt=""string"">2015-04-28T16:33:51Z</DateUtc></StartTime><FrequencyChanges><FrequencyChange><Frequency dt:dt=""r8"">2825683</Frequency><Timestamp dt:dt=""r8"">213287891307</Timestamp><Current dt:dt=""r8"">0</Current><DateUtc dt:dt=""string"">2015-04-28T16:33:51Z</DateUtc></FrequencyChange></FrequencyChanges></Clock>\n"	Arrow Flanker 2014-12237-1	60.018	1.0.0.98	1	-1459921193	Professional	2.0.10.353	2.0.10.353	04-28-2015	4/28/2015 4:33:51 PM	12:33:51	2.0.10.248	1	NA	NA	NA	NA	NA	NA	NA	NA	NA	NA	NA	NA	NA	1	1	1	NA	NA	NA	NA	NA	NA	NA	NA	NA	NA	NA	MapBlockProc	MapBlockList	NA	5	{LEFTARROW}	-100	NA	459	NA	1	1	5	0	16	298942	466	1	{LEFTARROW}	-999999	0	299908	0	{LEFTARROW}	694	300602	NA	NA	NA	NA	NA	NA	MapTrialProc	MapTrialList	NA	NA	NA	NA	NA	NA	NA	NA	NA	NA	NA	NA	NA	NA	NA	NA	NA	NA	left	NA	L.bmp	354	NA	NA	NA	NA	NA	NA	NA	NA	NA	NA	NA	NA	NA	NA	NA	NA	NA	NA	NA	NA	NA
Arrow Flanker 2014	12237	1	"<?xml version=""1.0""?>\n<Clock xmlns:dt=""urn:schemas-microsoft-com:datatypes""><Description dt:dt=""string"">E-Prime Primary Realtime Clock</Description><StartTime><Timestamp dt:dt=""int"">0</Timestamp><DateUtc dt:dt=""string"">2015-04-28T16:33:51Z</DateUtc></StartTime><FrequencyChanges><FrequencyChange><Frequency dt:dt=""r8"">2825683</Frequency><Timestamp dt:dt=""r8"">213287891307</Timestamp><Current dt:dt=""r8"">0</Current><DateUtc dt:dt=""string"">2015-04-28T16:33:51Z</DateUtc></FrequencyChange></FrequencyChanges></Clock>\n"	Arrow Flanker 2014-12237-1	60.018	1.0.0.98	1	-1459921193	Professional	2.0.10.353	2.0.10.353	04-28-2015	4/28/2015 4:33:51 PM	12:33:51	2.0.10.248	1	NA	NA	NA	NA	NA	NA	NA	NA	NA	NA	NA	NA	NA	1	1	1	NA	NA	NA	NA	NA	NA	NA	NA	NA	NA	NA	MapBlockProc	MapBlockList	NA	6	{RIGHTARROW}	-100	NA	764	NA	2	1	6	0	16	302141	766	1	{RIGHTARROW}	-999999	0	303407	0	{RIGHTARROW}	451	303858	NA	NA	NA	NA	NA	NA	MapTrialProc	MapTrialList	NA	NA	NA	NA	NA	NA	NA	NA	NA	NA	NA	NA	NA	NA	NA	NA	NA	NA	right	NA	R.bmp	354	NA	NA	NA	NA	NA	NA	NA	NA	NA	NA	NA	NA	NA	NA	NA	NA	NA	NA	NA	NA	NA
Arrow Flanker 2014	12237	1	"<?xml version=""1.0""?>\n<Clock xmlns:dt=""urn:schemas-microsoft-com:datatypes""><Description dt:dt=""string"">E-Prime Primary Realtime Clock</Description><StartTime><Timestamp dt:dt=""int"">0</Timestamp><DateUtc dt:dt=""string"">2015-04-28T16:33:51Z</DateUtc></StartTime><FrequencyChanges><FrequencyChange><Frequency dt:dt=""r8"">2825683</Frequency><Timestamp dt:dt=""r8"">213287891307</Timestamp><Current dt:dt=""r8"">0</Current><DateUtc dt:dt=""string"">2015-04-28T16:33:51Z</DateUtc></FrequencyChange></FrequencyChanges></Clock>\n"	Arrow Flanker 2014-12237-1	60.018	1.0.0.98	1	-1459921193	Professional	2.0.10.353	2.0.10.353	04-28-2015	4/28/2015 4:33:51 PM	12:33:51	2.0.10.248	1	NA	NA	NA	NA	NA	NA	NA	NA	NA	NA	NA	NA	NA	1	1	1	NA	NA	NA	NA	NA	NA	NA	NA	NA	NA	NA	MapBlockProc	MapBlockList	NA	7	{LEFTARROW}	-100	NA	1380	NA	1	1	7	0	16	305390	1383	1	{LEFTARROW}	-999999	0	307273	0	{LEFTARROW}	513	307786	NA	NA	NA	NA	NA	NA	MapTrialProc	MapTrialList	NA	NA	NA	NA	NA	NA	NA	NA	NA	NA	NA	NA	NA	NA	NA	NA	NA	NA	left	NA	L.bmp	354	NA	NA	NA	NA	NA	NA	NA	NA	NA	NA	NA	NA	NA	NA	NA	NA	NA	NA	NA	NA	NA
Arrow Flanker 2014	12237	1	"<?xml version=""1.0""?>\n<Clock xmlns:dt=""urn:schemas-microsoft-com:datatypes""><Description dt:dt=""string"">E-Prime Primary Realtime Clock</Description><StartTime><Timestamp dt:dt=""int"">0</Timestamp><DateUtc dt:dt=""string"">2015-04-28T16:33:51Z</DateUtc></StartTime><FrequencyChanges><FrequencyChange><Frequency dt:dt=""r8"">2825683</Frequency><Timestamp dt:dt=""r8"">213287891307</Timestamp><Current dt:dt=""r8"">0</Current><DateUtc dt:dt=""string"">2015-04-28T16:33:51Z</DateUtc></FrequencyChange></FrequencyChanges></Clock>\n"	Arrow Flanker 2014-12237-1	60.018	1.0.0.98	1	-1459921193	Professional	2.0.10.353	2.0.10.353	04-28-2015	4/28/2015 4:33:51 PM	12:33:51	2.0.10.248	1	NA	NA	NA	NA	NA	NA	NA	NA	NA	NA	NA	NA	NA	1	1	1	NA	NA	NA	NA	NA	NA	NA	NA	NA	NA	NA	MapBlockProc	MapBlockList	NA	8	{RIGHTARROW}	-100	NA	494	NA	2	1	8	0	16	309322	500	1	{RIGHTARROW}	-999999	0	310322	0	{RIGHTARROW}	583	310905	NA	NA	NA	NA	NA	NA	MapTrialProc	MapTrialList	NA	NA	NA	NA	NA	NA	NA	NA	NA	NA	NA	NA	NA	NA	NA	NA	NA	NA	right	NA	R.bmp	354	NA	NA	NA	NA	NA	NA	NA	NA	NA	NA	NA	NA	NA	NA	NA	NA	NA	NA	NA	NA	NA
Arrow Flanker 2014	12237	1	"<?xml version=""1.0""?>\n<Clock xmlns:dt=""urn:schemas-microsoft-com:datatypes""><Description dt:dt=""string"">E-Prime Primary Realtime Clock</Description><StartTime><Timestamp dt:dt=""int"">0</Timestamp><DateUtc dt:dt=""string"">2015-04-28T16:33:51Z</DateUtc></StartTime><FrequencyChanges><FrequencyChange><Frequency dt:dt=""r8"">2825683</Frequency><Timestamp dt:dt=""r8"">213287891307</Timestamp><Current dt:dt=""r8"">0</Current><DateUtc dt:dt=""string"">2015-04-28T16:33:51Z</DateUtc></FrequencyChange></FrequencyChanges></Clock>\n"	Arrow Flanker 2014-12237-1	60.018	1.0.0.98	1	-1459921193	Professional	2.0.10.353	2.0.10.353	04-28-2015	4/28/2015 4:33:51 PM	12:33:51	2.0.10.248	1	NA	NA	NA	NA	NA	NA	NA	NA	NA	NA	NA	NA	NA	1	1	1	NA	NA	NA	NA	NA	NA	NA	NA	NA	NA	NA	MapBlockProc	MapBlockList	NA	9	{RIGHTARROW}	-100	NA	942	NA	2	1	9	0	16	312438	949	1	{RIGHTARROW}	-999999	0	313887	0	{RIGHTARROW}	538	314425	NA	NA	NA	NA	NA	NA	MapTrialProc	MapTrialList	NA	NA	NA	NA	NA	NA	NA	NA	NA	NA	NA	NA	NA	NA	NA	NA	NA	NA	right	NA	R.bmp	354	NA	NA	NA	NA	NA	NA	NA	NA	NA	NA	NA	NA	NA	NA	NA	NA	NA	NA	NA	NA	NA
Arrow Flanker 2014	12237	1	"<?xml version=""1.0""?>\n<Clock xmlns:dt=""urn:schemas-microsoft-com:datatypes""><Description dt:dt=""string"">E-Prime Primary Realtime Clock</Description><StartTime><Timestamp dt:dt=""int"">0</Timestamp><DateUtc dt:dt=""string"">2015-04-28T16:33:51Z</DateUtc></StartTime><FrequencyChanges><FrequencyChange><Frequency dt:dt=""r8"">2825683</Frequency><Timestamp dt:dt=""r8"">213287891307</Timestamp><Current dt:dt=""r8"">0</Current><DateUtc dt:dt=""string"">2015-04-28T16:33:51Z</DateUtc></FrequencyChange></FrequencyChanges></Clock>\n"	Arrow Flanker 2014-12237-1	60.018	1.0.0.98	1	-1459921193	Professional	2.0.10.353	2.0.10.353	04-28-2015	4/28/2015 4:33:51 PM	12:33:51	2.0.10.248	1	NA	NA	NA	NA	NA	NA	NA	NA	NA	NA	NA	NA	NA	1	1	1	NA	NA	NA	NA	NA	NA	NA	NA	NA	NA	NA	MapBlockProc	MapBlockList	NA	10	{RIGHTARROW}	-100	NA	1031	NA	2	1	10	0	16	315953	1033	1	{RIGHTARROW}	-999999	0	317486	0	{RIGHTARROW}	507	317993	NA	NA	NA	NA	NA	NA	MapTrialProc	MapTrialList	NA	NA	NA	NA	NA	NA	NA	NA	NA	NA	NA	NA	NA	NA	NA	NA	NA	NA	right	NA	R.bmp	354	NA	NA	NA	NA	NA	NA	NA	NA	NA	NA	NA	NA	NA	NA	NA	NA	NA	NA	NA	NA	NA
Arrow Flanker 2014	12237	1	"<?xml version=""1.0""?>\n<Clock xmlns:dt=""urn:schemas-microsoft-com:datatypes""><Description dt:dt=""string"">E-Prime Primary Realtime Clock</Description><StartTime><Timestamp dt:dt=""int"">0</Timestamp><DateUtc dt:dt=""string"">2015-04-28T16:33:51Z</DateUtc></StartTime><FrequencyChanges><FrequencyChange><Frequency dt:dt=""r8"">2825683</Frequency><Timestamp dt:dt=""r8"">213287891307</Timestamp><Current dt:dt=""r8"">0</Current><DateUtc dt:dt=""string"">2015-04-28T16:33:51Z</DateUtc></FrequencyChange></FrequencyChanges></Clock>\n"	Arrow Flanker 2014-12237-1	60.018	1.0.0.98	1	-1459921193	Professional	2.0.10.353	2.0.10.353	04-28-2015	4/28/2015 4:33:51 PM	12:33:51	2.0.10.248	2	NA	NA	NA	NA	NA	NA	NA	NA	NA	NA	NA	NA	NA	NA	NA	NA	NA	NA	NA	NA	NA	NA	NA	NA	1	1	1	PracBlockProc	PracBlockList	NA	1	{RIGHTARROW}	-100	NA	1470	congruent	NA	NA	NA	0	6	356141	1483	1	{RIGHTARROW}	-999999	0	358124	0	{RIGHTARROW}	930	359054	NA	4	1	1	NA	NA	PracTrialProc	PracTrialList	NA	NA	NA	NA	NA	NA	NA	NA	NA	NA	NA	NA	NA	NA	NA	NA	NA	NA	right	NA	rrrrr.bmp	354	NA	NA	NA	NA	NA	NA	NA	NA	NA	NA	NA	NA	NA	NA	NA	NA	NA	NA	NA	NA	NA
Arrow Flanker 2014	12237	1	"<?xml version=""1.0""?>\n<Clock xmlns:dt=""urn:schemas-microsoft-com:datatypes""><Description dt:dt=""string"">E-Prime Primary Realtime Clock</Description><StartTime><Timestamp dt:dt=""int"">0</Timestamp><DateUtc dt:dt=""string"">2015-04-28T16:33:51Z</DateUtc></StartTime><FrequencyChanges><FrequencyChange><Frequency dt:dt=""r8"">2825683</Frequency><Timestamp dt:dt=""r8"">213287891307</Timestamp><Current dt:dt=""r8"">0</Current><DateUtc dt:dt=""string"">2015-04-28T16:33:51Z</DateUtc></FrequencyChange></FrequencyChanges></Clock>\n"	Arrow Flanker 2014-12237-1	60.018	1.0.0.98	1	-1459921193	Professional	2.0.10.353	2.0.10.353	04-28-2015	4/28/2015 4:33:51 PM	12:33:51	2.0.10.248	2	NA	NA	NA	NA	NA	NA	NA	NA	NA	NA	NA	NA	NA	NA	NA	NA	NA	NA	NA	NA	NA	NA	NA	NA	1	1	1	PracBlockProc	PracBlockList	NA	2	{LEFTARROW}	-100	NA	592	incongruent	NA	NA	NA	0	17	360590	599	1	{LEFTARROW}	-999999	0	361689	0	{LEFTARROW}	981	362670	NA	2	1	2	NA	NA	PracTrialProc	PracTrialList	NA	NA	NA	NA	NA	NA	NA	NA	NA	NA	NA	NA	NA	NA	NA	NA	NA	NA	left	NA	rrlrr.bmp	354	NA	NA	NA	NA	NA	NA	NA	NA	NA	NA	NA	NA	NA	NA	NA	NA	NA	NA	NA	NA	NA
Arrow Flanker 2014	12237	1	"<?xml version=""1.0""?>\n<Clock xmlns:dt=""urn:schemas-microsoft-com:datatypes""><Description dt:dt=""string"">E-Prime Primary Realtime Clock</Description><StartTime><Timestamp dt:dt=""int"">0</Timestamp><DateUtc dt:dt=""string"">2015-04-28T16:33:51Z</DateUtc></StartTime><FrequencyChanges><FrequencyChange><Frequency dt:dt=""r8"">2825683</Frequency><Timestamp dt:dt=""r8"">213287891307</Timestamp><Current dt:dt=""r8"">0</Current><DateUtc dt:dt=""string"">2015-04-28T16:33:51Z</DateUtc></FrequencyChange></FrequencyChanges></Clock>\n"	Arrow Flanker 2014-12237-1	60.018	1.0.0.98	1	-1459921193	Professional	2.0.10.353	2.0.10.353	04-28-2015	4/28/2015 4:33:51 PM	12:33:51	2.0.10.248	2	NA	NA	NA	NA	NA	NA	NA	NA	NA	NA	NA	NA	NA	NA	NA	NA	NA	NA	NA	NA	NA	NA	NA	NA	1	1	1	PracBlockProc	PracBlockList	NA	3	{LEFTARROW}	-100	NA	843	congruent	NA	NA	NA	0	16	364205	850	1	{LEFTARROW}	-999999	0	365555	0	{LEFTARROW}	755	366310	NA	1	1	3	NA	NA	PracTrialProc	PracTrialList	NA	NA	NA	NA	NA	NA	NA	NA	NA	NA	NA	NA	NA	NA	NA	NA	NA	NA	left	NA	lllll.bmp	354	NA	NA	NA	NA	NA	NA	NA	NA	NA	NA	NA	NA	NA	NA	NA	NA	NA	NA	NA	NA	NA
Arrow Flanker 2014	12237	1	"<?xml version=""1.0""?>\n<Clock xmlns:dt=""urn:schemas-microsoft-com:datatypes""><Description dt:dt=""string"">E-Prime Primary Realtime Clock</Description><StartTime><Timestamp dt:dt=""int"">0</Timestamp><DateUtc dt:dt=""string"">2015-04-28T16:33:51Z</DateUtc></StartTime><FrequencyChanges><FrequencyChange><Frequency dt:dt=""r8"">2825683</Frequency><Timestamp dt:dt=""r8"">213287891307</Timestamp><Current dt:dt=""r8"">0</Current><DateUtc dt:dt=""string"">2015-04-28T16:33:51Z</DateUtc></FrequencyChange></FrequencyChanges></Clock>\n"	Arrow Flanker 2014-12237-1	60.018	1.0.0.98	1	-1459921193	Professional	2.0.10.353	2.0.10.353	04-28-2015	4/28/2015 4:33:51 PM	12:33:51	2.0.10.248	2	NA	NA	NA	NA	NA	NA	NA	NA	NA	NA	NA	NA	NA	NA	NA	NA	NA	NA	NA	NA	NA	NA	NA	NA	1	1	1	PracBlockProc	PracBlockList	NA	4	{RIGHTARROW}	-100	NA	1317	neutral	NA	NA	NA	0	16	367837	1317	1	{RIGHTARROW}	-999999	0	369654	0	{RIGHTARROW}	647	370301	NA	6	1	4	NA	NA	PracTrialProc	PracTrialList	NA	NA	NA	NA	NA	NA	NA	NA	NA	NA	NA	NA	NA	NA	NA	NA	NA	NA	right	NA	ooroo.bmp	354	NA	NA	NA	NA	NA	NA	NA	NA	NA	NA	NA	NA	NA	NA	NA	NA	NA	NA	NA	NA	NA
Arrow Flanker 2014	12237	1	"<?xml version=""1.0""?>\n<Clock xmlns:dt=""urn:schemas-microsoft-com:datatypes""><Description dt:dt=""string"">E-Prime Primary Realtime Clock</Description><StartTime><Timestamp dt:dt=""int"">0</Timestamp><DateUtc dt:dt=""string"">2015-04-28T16:33:51Z</DateUtc></StartTime><FrequencyChanges><FrequencyChange><Frequency dt:dt=""r8"">2825683</Frequency><Timestamp dt:dt=""r8"">213287891307</Timestamp><Current dt:dt=""r8"">0</Current><DateUtc dt:dt=""string"">2015-04-28T16:33:51Z</DateUtc></FrequencyChange></FrequencyChanges></Clock>\n"	Arrow Flanker 2014-12237-1	60.018	1.0.0.98	1	-1459921193	Professional	2.0.10.353	2.0.10.353	04-28-2015	4/28/2015 4:33:51 PM	12:33:51	2.0.10.248	2	NA	NA	NA	NA	NA	NA	NA	NA	NA	NA	NA	NA	NA	NA	NA	NA	NA	NA	NA	NA	NA	NA	NA	NA	1	1	1	PracBlockProc	PracBlockList	NA	5	{LEFTARROW}	-100	NA	1075	neutral	NA	NA	NA	0	16	371836	1083	1	{LEFTARROW}	-999999	0	373419	0	{LEFTARROW}	546	373965	NA	3	1	5	NA	NA	PracTrialProc	PracTrialList	NA	NA	NA	NA	NA	NA	NA	NA	NA	NA	NA	NA	NA	NA	NA	NA	NA	NA	left	NA	ooloo.bmp	354	NA	NA	NA	NA	NA	NA	NA	NA	NA	NA	NA	NA	NA	NA	NA	NA	NA	NA	NA	NA	NA
Arrow Flanker 2014	12237	1	"<?xml version=""1.0""?>\n<Clock xmlns:dt=""urn:schemas-microsoft-com:datatypes""><Description dt:dt=""string"">E-Prime Primary Realtime Clock</Description><StartTime><Timestamp dt:dt=""int"">0</Timestamp><DateUtc dt:dt=""string"">2015-04-28T16:33:51Z</DateUtc></StartTime><FrequencyChanges><FrequencyChange><Frequency dt:dt=""r8"">2825683</Frequency><Timestamp dt:dt=""r8"">213287891307</Timestamp><Current dt:dt=""r8"">0</Current><DateUtc dt:dt=""string"">2015-04-28T16:33:51Z</DateUtc></FrequencyChange></FrequencyChanges></Clock>\n"	Arrow Flanker 2014-12237-1	60.018	1.0.0.98	1	-1459921193	Professional	2.0.10.353	2.0.10.353	04-28-2015	4/28/2015 4:33:51 PM	12:33:51	2.0.10.248	2	NA	NA	NA	NA	NA	NA	NA	NA	NA	NA	NA	NA	NA	NA	NA	NA	NA	NA	NA	NA	NA	NA	NA	NA	1	1	1	PracBlockProc	PracBlockList	NA	6	{RIGHTARROW}	-100	NA	1288	incongruent	NA	NA	NA	0	16	375502	1299	1	{RIGHTARROW}	-999999	0	377301	0	{RIGHTARROW}	656	377957	NA	5	1	6	NA	NA	PracTrialProc	PracTrialList	NA	NA	NA	NA	NA	NA	NA	NA	NA	NA	NA	NA	NA	NA	NA	NA	NA	NA	right	NA	llrll.bmp	354	NA	NA	NA	NA	NA	NA	NA	NA	NA	NA	NA	NA	NA	NA	NA	NA	NA	NA	NA	NA	NA
Arrow Flanker 2014	12237	1	"<?xml version=""1.0""?>\n<Clock xmlns:dt=""urn:schemas-microsoft-com:datatypes""><Description dt:dt=""string"">E-Prime Primary Realtime Clock</Description><StartTime><Timestamp dt:dt=""int"">0</Timestamp><DateUtc dt:dt=""string"">2015-04-28T16:33:51Z</DateUtc></StartTime><FrequencyChanges><FrequencyChange><Frequency dt:dt=""r8"">2825683</Frequency><Timestamp dt:dt=""r8"">213287891307</Timestamp><Current dt:dt=""r8"">0</Current><DateUtc dt:dt=""string"">2015-04-28T16:33:51Z</DateUtc></FrequencyChange></FrequencyChanges></Clock>\n"	Arrow Flanker 2014-12237-1	60.018	1.0.0.98	1	-1459921193	Professional	2.0.10.353	2.0.10.353	04-28-2015	4/28/2015 4:33:51 PM	12:33:51	2.0.10.248	3	1	1	1	NA	NA	NA	NA	NA	NA	NA	NA	NA	NA	NA	NA	NA	NA	NA	NA	NA	NA	NA	NA	NA	NA	NA	NA	BlockProc	BlockList	NA	1	{LEFTARROW}	NA	-100	1942	congruent	NA	NA	NA	NA	NA	NA	NA	NA	NA	NA	NA	NA	NA	NA	NA	NA	NA	NA	NA	NA	NA	NA	TrialProc	TrialList	0	5	395929	16	0	16	393096	1567	1	{LEFTARROW}	-999999	16	395179	0	{LEFTARROW}	745	395924	NA	NA	left	lllll.bmp	354	0	NA	0	0	0	0	NA	0	0	0	NA	0	0	0	0	NA	0	0	1	1	1
Arrow Flanker 2014	12237	1	"<?xml version=""1.0""?>\n<Clock xmlns:dt=""urn:schemas-microsoft-com:datatypes""><Description dt:dt=""string"">E-Prime Primary Realtime Clock</Description><StartTime><Timestamp dt:dt=""int"">0</Timestamp><DateUtc dt:dt=""string"">2015-04-28T16:33:51Z</DateUtc></StartTime><FrequencyChanges><FrequencyChange><Frequency dt:dt=""r8"">2825683</Frequency><Timestamp dt:dt=""r8"">213287891307</Timestamp><Current dt:dt=""r8"">0</Current><DateUtc dt:dt=""string"">2015-04-28T16:33:51Z</DateUtc></FrequencyChange></FrequencyChanges></Clock>\n"	Arrow Flanker 2014-12237-1	60.018	1.0.0.98	1	-1459921193	Professional	2.0.10.353	2.0.10.353	04-28-2015	4/28/2015 4:33:51 PM	12:33:51	2.0.10.248	3	1	1	1	NA	NA	NA	NA	NA	NA	NA	NA	NA	NA	NA	NA	NA	NA	NA	NA	NA	NA	NA	NA	NA	NA	NA	NA	BlockProc	BlockList	NA	2	{LEFTARROW}	NA	-100	1202	congruent	NA	NA	NA	NA	NA	NA	NA	NA	NA	NA	NA	NA	NA	NA	NA	NA	NA	NA	NA	NA	NA	NA	TrialProc	TrialList	0	8	398212	16	0	17	396462	567	1	{LEFTARROW}	-999999	0	397545	0	{LEFTARROW}	658	398203	NA	NA	left	lllll.bmp	354	0	NA	0	0	0	0	NA	0	0	0	NA	0	0	0	0	NA	0	0	1	1	2
Arrow Flanker 2014	12237	1	"<?xml version=""1.0""?>\n<Clock xmlns:dt=""urn:schemas-microsoft-com:datatypes""><Description dt:dt=""string"">E-Prime Primary Realtime Clock</Description><StartTime><Timestamp dt:dt=""int"">0</Timestamp><DateUtc dt:dt=""string"">2015-04-28T16:33:51Z</DateUtc></StartTime><FrequencyChanges><FrequencyChange><Frequency dt:dt=""r8"">2825683</Frequency><Timestamp dt:dt=""r8"">213287891307</Timestamp><Current dt:dt=""r8"">0</Current><DateUtc dt:dt=""string"">2015-04-28T16:33:51Z</DateUtc></FrequencyChange></FrequencyChanges></Clock>\n"	Arrow Flanker 2014-12237-1	60.018	1.0.0.98	1	-1459921193	Professional	2.0.10.353	2.0.10.353	04-28-2015	4/28/2015 4:33:51 PM	12:33:51	2.0.10.248	3	1	1	1	NA	NA	NA	NA	NA	NA	NA	NA	NA	NA	NA	NA	NA	NA	NA	NA	NA	NA	NA	NA	NA	NA	NA	NA	BlockProc	BlockList	NA	3	{LEFTARROW}	NA	-100	1633	incongruent	NA	NA	NA	NA	NA	NA	NA	NA	NA	NA	NA	NA	NA	NA	NA	NA	NA	NA	NA	NA	NA	NA	TrialProc	TrialList	0	11	400911	16	0	17	398745	949	1	{LEFTARROW}	-999999	0	400194	0	{LEFTARROW}	705	400899	NA	NA	left	rrlrr.bmp	354	0	NA	0	0	0	0	NA	0	0	0	NA	0	0	0	0	NA	0	0	3	1	3
Arrow Flanker 2014	12237	1	"<?xml version=""1.0""?>\n<Clock xmlns:dt=""urn:schemas-microsoft-com:datatypes""><Description dt:dt=""string"">E-Prime Primary Realtime Clock</Description><StartTime><Timestamp dt:dt=""int"">0</Timestamp><DateUtc dt:dt=""string"">2015-04-28T16:33:51Z</DateUtc></StartTime><FrequencyChanges><FrequencyChange><Frequency dt:dt=""r8"">2825683</Frequency><Timestamp dt:dt=""r8"">213287891307</Timestamp><Current dt:dt=""r8"">0</Current><DateUtc dt:dt=""string"">2015-04-28T16:33:51Z</DateUtc></FrequencyChange></FrequencyChanges></Clock>\n"	Arrow Flanker 2014-12237-1	60.018	1.0.0.98	1	-1459921193	Professional	2.0.10.353	2.0.10.353	04-28-2015	4/28/2015 4:33:51 PM	12:33:51	2.0.10.248	3	1	1	1	NA	NA	NA	NA	NA	NA	NA	NA	NA	NA	NA	NA	NA	NA	NA	NA	NA	NA	NA	NA	NA	NA	NA	NA	BlockProc	BlockList	NA	4	{RIGHTARROW}	NA	-100	926	neutral	NA	NA	NA	NA	NA	NA	NA	NA	NA	NA	NA	NA	NA	NA	NA	NA	NA	NA	NA	NA	NA	NA	TrialProc	TrialList	0	16	403227	16	0	17	401444	666	1	{RIGHTARROW}	-999999	0	402610	0	{RIGHTARROW}	601	403211	NA	NA	right	ooroo.bmp	354	0	NA	0	0	0	0	NA	0	0	0	NA	0	0	0	0	NA	0	0	6	1	4
Arrow Flanker 2014	12237	1	"<?xml version=""1.0""?>\n<Clock xmlns:dt=""urn:schemas-microsoft-com:datatypes""><Description dt:dt=""string"">E-Prime Primary Realtime Clock</Description><StartTime><Timestamp dt:dt=""int"">0</Timestamp><DateUtc dt:dt=""string"">2015-04-28T16:33:51Z</DateUtc></StartTime><FrequencyChanges><FrequencyChange><Frequency dt:dt=""r8"">2825683</Frequency><Timestamp dt:dt=""r8"">213287891307</Timestamp><Current dt:dt=""r8"">0</Current><DateUtc dt:dt=""string"">2015-04-28T16:33:51Z</DateUtc></FrequencyChange></FrequencyChanges></Clock>\n"	Arrow Flanker 2014-12237-1	60.018	1.0.0.98	1	-1459921193	Professional	2.0.10.353	2.0.10.353	04-28-2015	4/28/2015 4:33:51 PM	12:33:51	2.0.10.248	3	1	1	1	NA	NA	NA	NA	NA	NA	NA	NA	NA	NA	NA	NA	NA	NA	NA	NA	NA	NA	NA	NA	NA	NA	NA	NA	BlockProc	BlockList	NA	5	{RIGHTARROW}	NA	-100	1418	incongruent	NA	NA	NA	NA	NA	NA	NA	NA	NA	NA	NA	NA	NA	NA	NA	NA	NA	NA	NA	NA	NA	NA	TrialProc	TrialList	0	10	406109	17	0	17	403760	1266	1	{RIGHTARROW}	-999999	0	405526	0	{RIGHTARROW}	573	406099	NA	NA	right	llrll.bmp	354	0	NA	0	0	0	0	NA	0	0	0	NA	0	0	0	0	NA	0	0	4	1	5
Arrow Flanker 2014	12237	1	"<?xml version=""1.0""?>\n<Clock xmlns:dt=""urn:schemas-microsoft-com:datatypes""><Description dt:dt=""string"">E-Prime Primary Realtime Clock</Description><StartTime><Timestamp dt:dt=""int"">0</Timestamp><DateUtc dt:dt=""string"">2015-04-28T16:33:51Z</DateUtc></StartTime><FrequencyChanges><FrequencyChange><Frequency dt:dt=""r8"">2825683</Frequency><Timestamp dt:dt=""r8"">213287891307</Timestamp><Current dt:dt=""r8"">0</Current><DateUtc dt:dt=""string"">2015-04-28T16:33:51Z</DateUtc></FrequencyChange></FrequencyChanges></Clock>\n"	Arrow Flanker 2014-12237-1	60.018	1.0.0.98	1	-1459921193	Professional	2.0.10.353	2.0.10.353	04-28-2015	4/28/2015 4:33:51 PM	12:33:51	2.0.10.248	3	1	1	1	NA	NA	NA	NA	NA	NA	NA	NA	NA	NA	NA	NA	NA	NA	NA	NA	NA	NA	NA	NA	NA	NA	NA	NA	BlockProc	BlockList	NA	6	{RIGHTARROW}	NA	-100	1214	incongruent	NA	NA	NA	NA	NA	NA	NA	NA	NA	NA	NA	NA	NA	NA	NA	NA	NA	NA	NA	NA	NA	NA	TrialProc	TrialList	1	19	408758	17	0	16	406642	1083	1	{RIGHTARROW}	-999999	0	408225	0	{RIGHTARROW}	514	408739	NA	NA	right	llrll.bmp	354	0	NA	0	0	0	0	NA	0	0	0	NA	0	0	0	0	NA	0	0	4	1	6
Arrow Flanker 2014	12237	1	"<?xml version=""1.0""?>\n<Clock xmlns:dt=""urn:schemas-microsoft-com:datatypes""><Description dt:dt=""string"">E-Prime Primary Realtime Clock</Description><StartTime><Timestamp dt:dt=""int"">0</Timestamp><DateUtc dt:dt=""string"">2015-04-28T16:33:51Z</DateUtc></StartTime><FrequencyChanges><FrequencyChange><Frequency dt:dt=""r8"">2825683</Frequency><Timestamp dt:dt=""r8"">213287891307</Timestamp><Current dt:dt=""r8"">0</Current><DateUtc dt:dt=""string"">2015-04-28T16:33:51Z</DateUtc></FrequencyChange></FrequencyChanges></Clock>\n"	Arrow Flanker 2014-12237-1	60.018	1.0.0.98	1	-1459921193	Professional	2.0.10.353	2.0.10.353	04-28-2015	4/28/2015 4:33:51 PM	12:33:51	2.0.10.248	3	1	1	1	NA	NA	NA	NA	NA	NA	NA	NA	NA	NA	NA	NA	NA	NA	NA	NA	NA	NA	NA	NA	NA	NA	NA	NA	BlockProc	BlockList	NA	7	{LEFTARROW}	NA	-100	1599	neutral	NA	NA	NA	NA	NA	NA	NA	NA	NA	NA	NA	NA	NA	NA	NA	NA	NA	NA	NA	NA	NA	NA	TrialProc	TrialList	0	19	410958	16	0	16	409291	617	1	{LEFTARROW}	-999999	0	410408	0	{LEFTARROW}	531	410939	NA	NA	left	ooloo.bmp	354	0	NA	0	0	0	0	NA	0	0	0	NA	0	0	0	0	NA	0	0	5	1	7
Arrow Flanker 2014	12237	1	"<?xml version=""1.0""?>\n<Clock xmlns:dt=""urn:schemas-microsoft-com:datatypes""><Description dt:dt=""string"">E-Prime Primary Realtime Clock</Description><StartTime><Timestamp dt:dt=""int"">0</Timestamp><DateUtc dt:dt=""string"">2015-04-28T16:33:51Z</DateUtc></StartTime><FrequencyChanges><FrequencyChange><Frequency dt:dt=""r8"">2825683</Frequency><Timestamp dt:dt=""r8"">213287891307</Timestamp><Current dt:dt=""r8"">0</Current><DateUtc dt:dt=""string"">2015-04-28T16:33:51Z</DateUtc></FrequencyChange></FrequencyChanges></Clock>\n"	Arrow Flanker 2014-12237-1	60.018	1.0.0.98	1	-1459921193	Professional	2.0.10.353	2.0.10.353	04-28-2015	4/28/2015 4:33:51 PM	12:33:51	2.0.10.248	3	1	1	1	NA	NA	NA	NA	NA	NA	NA	NA	NA	NA	NA	NA	NA	NA	NA	NA	NA	NA	NA	NA	NA	NA	NA	NA	BlockProc	BlockList	NA	8	{LEFTARROW}	NA	-100	1756	incongruent	NA	NA	NA	NA	NA	NA	NA	NA	NA	NA	NA	NA	NA	NA	NA	NA	NA	NA	NA	NA	NA	NA	TrialProc	TrialList	0	18	413357	17	0	17	411491	833	1	{LEFTARROW}	-999999	0	412824	0	{LEFTARROW}	514	413338	NA	NA	left	rrlrr.bmp	354	0	NA	0	0	0	0	NA	0	0	0	NA	0	0	0	0	NA	0	0	3	1	8
Arrow Flanker 2014	12237	1	"<?xml version=""1.0""?>\n<Clock xmlns:dt=""urn:schemas-microsoft-com:datatypes""><Description dt:dt=""string"">E-Prime Primary Realtime Clock</Description><StartTime><Timestamp dt:dt=""int"">0</Timestamp><DateUtc dt:dt=""string"">2015-04-28T16:33:51Z</DateUtc></StartTime><FrequencyChanges><FrequencyChange><Frequency dt:dt=""r8"">2825683</Frequency><Timestamp dt:dt=""r8"">213287891307</Timestamp><Current dt:dt=""r8"">0</Current><DateUtc dt:dt=""string"">2015-04-28T16:33:51Z</DateUtc></FrequencyChange></FrequencyChanges></Clock>\n"	Arrow Flanker 2014-12237-1	60.018	1.0.0.98	1	-1459921193	Professional	2.0.10.353	2.0.10.353	04-28-2015	4/28/2015 4:33:51 PM	12:33:51	2.0.10.248	3	1	1	1	NA	NA	NA	NA	NA	NA	NA	NA	NA	NA	NA	NA	NA	NA	NA	NA	NA	NA	NA	NA	NA	NA	NA	NA	BlockProc	BlockList	NA	9	{RIGHTARROW}	NA	-100	735	neutral	NA	NA	NA	NA	NA	NA	NA	NA	NA	NA	NA	NA	NA	NA	NA	NA	NA	NA	NA	NA	NA	NA	TrialProc	TrialList	0	11	415373	17	0	16	413890	467	1	{RIGHTARROW}	-999999	16	414873	0	{RIGHTARROW}	489	415362	NA	NA	right	ooroo.bmp	354	0	NA	0	0	0	0	NA	0	0	0	NA	0	0	0	0	NA	0	0	6	1	9
Arrow Flanker 2014	12237	1	"<?xml version=""1.0""?>\n<Clock xmlns:dt=""urn:schemas-microsoft-com:datatypes""><Description dt:dt=""string"">E-Prime Primary Realtime Clock</Description><StartTime><Timestamp dt:dt=""int"">0</Timestamp><DateUtc dt:dt=""string"">2015-04-28T16:33:51Z</DateUtc></StartTime><FrequencyChanges><FrequencyChange><Frequency dt:dt=""r8"">2825683</Frequency><Timestamp dt:dt=""r8"">213287891307</Timestamp><Current dt:dt=""r8"">0</Current><DateUtc dt:dt=""string"">2015-04-28T16:33:51Z</DateUtc></FrequencyChange></FrequencyChanges></Clock>\n"	Arrow Flanker 2014-12237-1	60.018	1.0.0.98	1	-1459921193	Professional	2.0.10.353	2.0.10.353	04-28-2015	4/28/2015 4:33:51 PM	12:33:51	2.0.10.248	3	1	1	1	NA	NA	NA	NA	NA	NA	NA	NA	NA	NA	NA	NA	NA	NA	NA	NA	NA	NA	NA	NA	NA	NA	NA	NA	BlockProc	BlockList	NA	10	{RIGHTARROW}	NA	-100	1827	incongruent	NA	NA	NA	NA	NA	NA	NA	NA	NA	NA	NA	NA	NA	NA	NA	NA	NA	NA	NA	NA	NA	NA	TrialProc	TrialList	0	7	417689	17	0	16	415906	866	0	{RIGHTARROW}	-999999	0	417272	0	{LEFTARROW}	410	417682	NA	NA	right	llrll.bmp	354	0	NA	0	0	0	0	NA	0	0	0	NA	0	0	0	0	NA	0	0	4	1	10
Arrow Flanker 2014	12237	1	"<?xml version=""1.0""?>\n<Clock xmlns:dt=""urn:schemas-microsoft-com:datatypes""><Description dt:dt=""string"">E-Prime Primary Realtime Clock</Description><StartTime><Timestamp dt:dt=""int"">0</Timestamp><DateUtc dt:dt=""string"">2015-04-28T16:33:51Z</DateUtc></StartTime><FrequencyChanges><FrequencyChange><Frequency dt:dt=""r8"">2825683</Frequency><Timestamp dt:dt=""r8"">213287891307</Timestamp><Current dt:dt=""r8"">0</Current><DateUtc dt:dt=""string"">2015-04-28T16:33:51Z</DateUtc></FrequencyChange></FrequencyChanges></Clock>\n"	Arrow Flanker 2014-12237-1	60.018	1.0.0.98	1	-1459921193	Professional	2.0.10.353	2.0.10.353	04-28-2015	4/28/2015 4:33:51 PM	12:33:51	2.0.10.248	3	1	1	1	NA	NA	NA	NA	NA	NA	NA	NA	NA	NA	NA	NA	NA	NA	NA	NA	NA	NA	NA	NA	NA	NA	NA	NA	BlockProc	BlockList	NA	11	{LEFTARROW}	NA	-100	608	neutral	NA	NA	NA	NA	NA	NA	NA	NA	NA	NA	NA	NA	NA	NA	NA	NA	NA	NA	NA	NA	NA	NA	TrialProc	TrialList	1	17	419771	17	0	16	418222	466	1	{LEFTARROW}	-999999	0	419188	0	{LEFTARROW}	566	419754	NA	NA	left	ooloo.bmp	354	0	NA	0	0	0	0	NA	0	0	0	NA	0	0	0	0	NA	0	0	5	1	11
Arrow Flanker 2014	12237	1	"<?xml version=""1.0""?>\n<Clock xmlns:dt=""urn:schemas-microsoft-com:datatypes""><Description dt:dt=""string"">E-Prime Primary Realtime Clock</Description><StartTime><Timestamp dt:dt=""int"">0</Timestamp><DateUtc dt:dt=""string"">2015-04-28T16:33:51Z</DateUtc></StartTime><FrequencyChanges><FrequencyChange><Frequency dt:dt=""r8"">2825683</Frequency><Timestamp dt:dt=""r8"">213287891307</Timestamp><Current dt:dt=""r8"">0</Current><DateUtc dt:dt=""string"">2015-04-28T16:33:51Z</DateUtc></FrequencyChange></FrequencyChanges></Clock>\n"	Arrow Flanker 2014-12237-1	60.018	1.0.0.98	1	-1459921193	Professional	2.0.10.353	2.0.10.353	04-28-2015	4/28/2015 4:33:51 PM	12:33:51	2.0.10.248	3	1	1	1	NA	NA	NA	NA	NA	NA	NA	NA	NA	NA	NA	NA	NA	NA	NA	NA	NA	NA	NA	NA	NA	NA	NA	NA	BlockProc	BlockList	NA	12	{RIGHTARROW}	NA	-100	1487	incongruent	NA	NA	NA	NA	NA	NA	NA	NA	NA	NA	NA	NA	NA	NA	NA	NA	NA	NA	NA	NA	NA	NA	TrialProc	TrialList	0	8	422554	17	0	17	420305	1199	1	{RIGHTARROW}	-999999	0	422004	0	{RIGHTARROW}	542	422546	NA	NA	right	llrll.bmp	354	0	NA	0	0	0	0	NA	0	0	0	NA	0	0	0	0	NA	0	0	4	1	12
Arrow Flanker 2014	12237	1	"<?xml version=""1.0""?>\n<Clock xmlns:dt=""urn:schemas-microsoft-com:datatypes""><Description dt:dt=""string"">E-Prime Primary Realtime Clock</Description><StartTime><Timestamp dt:dt=""int"">0</Timestamp><DateUtc dt:dt=""string"">2015-04-28T16:33:51Z</DateUtc></StartTime><FrequencyChanges><FrequencyChange><Frequency dt:dt=""r8"">2825683</Frequency><Timestamp dt:dt=""r8"">213287891307</Timestamp><Current dt:dt=""r8"">0</Current><DateUtc dt:dt=""string"">2015-04-28T16:33:51Z</DateUtc></FrequencyChange></FrequencyChanges></Clock>\n"	Arrow Flanker 2014-12237-1	60.018	1.0.0.98	1	-1459921193	Professional	2.0.10.353	2.0.10.353	04-28-2015	4/28/2015 4:33:51 PM	12:33:51	2.0.10.248	3	1	1	1	NA	NA	NA	NA	NA	NA	NA	NA	NA	NA	NA	NA	NA	NA	NA	NA	NA	NA	NA	NA	NA	NA	NA	NA	BlockProc	BlockList	NA	13	{LEFTARROW}	NA	-100	1202	neutral	NA	NA	NA	NA	NA	NA	NA	NA	NA	NA	NA	NA	NA	NA	NA	NA	NA	NA	NA	NA	NA	NA	TrialProc	TrialList	0	6	424920	17	0	16	423087	867	1	{LEFTARROW}	-999999	16	424470	0	{LEFTARROW}	444	424914	NA	NA	left	ooloo.bmp	354	0	NA	0	0	0	0	NA	0	0	0	NA	0	0	0	0	NA	0	0	5	1	13
Arrow Flanker 2014	12237	1	"<?xml version=""1.0""?>\n<Clock xmlns:dt=""urn:schemas-microsoft-com:datatypes""><Description dt:dt=""string"">E-Prime Primary Realtime Clock</Description><StartTime><Timestamp dt:dt=""int"">0</Timestamp><DateUtc dt:dt=""string"">2015-04-28T16:33:51Z</DateUtc></StartTime><FrequencyChanges><FrequencyChange><Frequency dt:dt=""r8"">2825683</Frequency><Timestamp dt:dt=""r8"">213287891307</Timestamp><Current dt:dt=""r8"">0</Current><DateUtc dt:dt=""string"">2015-04-28T16:33:51Z</DateUtc></FrequencyChange></FrequencyChanges></Clock>\n"	Arrow Flanker 2014-12237-1	60.018	1.0.0.98	1	-1459921193	Professional	2.0.10.353	2.0.10.353	04-28-2015	4/28/2015 4:33:51 PM	12:33:51	2.0.10.248	3	1	1	1	NA	NA	NA	NA	NA	NA	NA	NA	NA	NA	NA	NA	NA	NA	NA	NA	NA	NA	NA	NA	NA	NA	NA	NA	BlockProc	BlockList	NA	14	{RIGHTARROW}	NA	-100	1995	incongruent	NA	NA	NA	NA	NA	NA	NA	NA	NA	NA	NA	NA	NA	NA	NA	NA	NA	NA	NA	NA	NA	NA	TrialProc	TrialList	0	6	428119	17	0	16	425453	1600	1	{RIGHTARROW}	-999999	16	427569	0	{RIGHTARROW}	544	428113	NA	NA	right	llrll.bmp	354	0	NA	0	0	0	0	NA	0	0	0	NA	0	0	0	0	NA	0	0	4	1	14
Arrow Flanker 2014	12237	1	"<?xml version=""1.0""?>\n<Clock xmlns:dt=""urn:schemas-microsoft-com:datatypes""><Description dt:dt=""string"">E-Prime Primary Realtime Clock</Description><StartTime><Timestamp dt:dt=""int"">0</Timestamp><DateUtc dt:dt=""string"">2015-04-28T16:33:51Z</DateUtc></StartTime><FrequencyChanges><FrequencyChange><Frequency dt:dt=""r8"">2825683</Frequency><Timestamp dt:dt=""r8"">213287891307</Timestamp><Current dt:dt=""r8"">0</Current><DateUtc dt:dt=""string"">2015-04-28T16:33:51Z</DateUtc></FrequencyChange></FrequencyChanges></Clock>\n"	Arrow Flanker 2014-12237-1	60.018	1.0.0.98	1	-1459921193	Professional	2.0.10.353	2.0.10.353	04-28-2015	4/28/2015 4:33:51 PM	12:33:51	2.0.10.248	3	1	1	1	NA	NA	NA	NA	NA	NA	NA	NA	NA	NA	NA	NA	NA	NA	NA	NA	NA	NA	NA	NA	NA	NA	NA	NA	BlockProc	BlockList	NA	15	{RIGHTARROW}	NA	-100	1639	neutral	NA	NA	NA	NA	NA	NA	NA	NA	NA	NA	NA	NA	NA	NA	NA	NA	NA	NA	NA	NA	NA	NA	TrialProc	TrialList	0	3	430852	16	0	16	428652	1200	1	{RIGHTARROW}	-999999	0	430352	0	{RIGHTARROW}	497	430849	NA	NA	right	ooroo.bmp	354	0	NA	0	0	0	0	NA	0	0	0	NA	0	0	0	0	NA	0	0	6	1	15
Arrow Flanker 2014	12237	1	"<?xml version=""1.0""?>\n<Clock xmlns:dt=""urn:schemas-microsoft-com:datatypes""><Description dt:dt=""string"">E-Prime Primary Realtime Clock</Description><StartTime><Timestamp dt:dt=""int"">0</Timestamp><DateUtc dt:dt=""string"">2015-04-28T16:33:51Z</DateUtc></StartTime><FrequencyChanges><FrequencyChange><Frequency dt:dt=""r8"">2825683</Frequency><Timestamp dt:dt=""r8"">213287891307</Timestamp><Current dt:dt=""r8"">0</Current><DateUtc dt:dt=""string"">2015-04-28T16:33:51Z</DateUtc></FrequencyChange></FrequencyChanges></Clock>\n"	Arrow Flanker 2014-12237-1	60.018	1.0.0.98	1	-1459921193	Professional	2.0.10.353	2.0.10.353	04-28-2015	4/28/2015 4:33:51 PM	12:33:51	2.0.10.248	3	1	1	1	NA	NA	NA	NA	NA	NA	NA	NA	NA	NA	NA	NA	NA	NA	NA	NA	NA	NA	NA	NA	NA	NA	NA	NA	BlockProc	BlockList	NA	16	{LEFTARROW}	NA	-100	1766	incongruent	NA	NA	NA	NA	NA	NA	NA	NA	NA	NA	NA	NA	NA	NA	NA	NA	NA	NA	NA	NA	NA	NA	TrialProc	TrialList	0	13	433134	17	0	17	431385	749	1	{LEFTARROW}	-999999	0	432634	0	{LEFTARROW}	487	433121	NA	NA	left	rrlrr.bmp	354	0	NA	0	0	0	0	NA	0	0	0	NA	0	0	0	0	NA	0	0	3	1	16
Arrow Flanker 2014	12237	1	"<?xml version=""1.0""?>\n<Clock xmlns:dt=""urn:schemas-microsoft-com:datatypes""><Description dt:dt=""string"">E-Prime Primary Realtime Clock</Description><StartTime><Timestamp dt:dt=""int"">0</Timestamp><DateUtc dt:dt=""string"">2015-04-28T16:33:51Z</DateUtc></StartTime><FrequencyChanges><FrequencyChange><Frequency dt:dt=""r8"">2825683</Frequency><Timestamp dt:dt=""r8"">213287891307</Timestamp><Current dt:dt=""r8"">0</Current><DateUtc dt:dt=""string"">2015-04-28T16:33:51Z</DateUtc></FrequencyChange></FrequencyChanges></Clock>\n"	Arrow Flanker 2014-12237-1	60.018	1.0.0.98	1	-1459921193	Professional	2.0.10.353	2.0.10.353	04-28-2015	4/28/2015 4:33:51 PM	12:33:51	2.0.10.248	3	1	1	1	NA	NA	NA	NA	NA	NA	NA	NA	NA	NA	NA	NA	NA	NA	NA	NA	NA	NA	NA	NA	NA	NA	NA	NA	BlockProc	BlockList	NA	17	{RIGHTARROW}	NA	-100	1608	incongruent	NA	NA	NA	NA	NA	NA	NA	NA	NA	NA	NA	NA	NA	NA	NA	NA	NA	NA	NA	NA	NA	NA	TrialProc	TrialList	0	17	435250	17	0	16	433667	433	1	{RIGHTARROW}	-999999	0	434600	0	{RIGHTARROW}	633	435233	NA	NA	right	llrll.bmp	354	0	NA	0	0	0	0	NA	0	0	0	NA	0	0	0	0	NA	0	0	4	1	17
Arrow Flanker 2014	12237	1	"<?xml version=""1.0""?>\n<Clock xmlns:dt=""urn:schemas-microsoft-com:datatypes""><Description dt:dt=""string"">E-Prime Primary Realtime Clock</Description><StartTime><Timestamp dt:dt=""int"">0</Timestamp><DateUtc dt:dt=""string"">2015-04-28T16:33:51Z</DateUtc></StartTime><FrequencyChanges><FrequencyChange><Frequency dt:dt=""r8"">2825683</Frequency><Timestamp dt:dt=""r8"">213287891307</Timestamp><Current dt:dt=""r8"">0</Current><DateUtc dt:dt=""string"">2015-04-28T16:33:51Z</DateUtc></FrequencyChange></FrequencyChanges></Clock>\n"	Arrow Flanker 2014-12237-1	60.018	1.0.0.98	1	-1459921193	Professional	2.0.10.353	2.0.10.353	04-28-2015	4/28/2015 4:33:51 PM	12:33:51	2.0.10.248	3	1	1	1	NA	NA	NA	NA	NA	NA	NA	NA	NA	NA	NA	NA	NA	NA	NA	NA	NA	NA	NA	NA	NA	NA	NA	NA	BlockProc	BlockList	NA	18	{LEFTARROW}	NA	-100	1946	neutral	NA	NA	NA	NA	NA	NA	NA	NA	NA	NA	NA	NA	NA	NA	NA	NA	NA	NA	NA	NA	NA	NA	TrialProc	TrialList	0	4	437933	16	0	16	435783	1200	1	{LEFTARROW}	-999999	0	437483	0	{LEFTARROW}	446	437929	NA	NA	left	ooloo.bmp	354	0	NA	0	0	0	0	NA	0	0	0	NA	0	0	0	0	NA	0	0	5	1	18
Arrow Flanker 2014	12237	1	"<?xml version=""1.0""?>\n<Clock xmlns:dt=""urn:schemas-microsoft-com:datatypes""><Description dt:dt=""string"">E-Prime Primary Realtime Clock</Description><StartTime><Timestamp dt:dt=""int"">0</Timestamp><DateUtc dt:dt=""string"">2015-04-28T16:33:51Z</DateUtc></StartTime><FrequencyChanges><FrequencyChange><Frequency dt:dt=""r8"">2825683</Frequency><Timestamp dt:dt=""r8"">213287891307</Timestamp><Current dt:dt=""r8"">0</Current><DateUtc dt:dt=""string"">2015-04-28T16:33:51Z</DateUtc></FrequencyChange></FrequencyChanges></Clock>\n"	Arrow Flanker 2014-12237-1	60.018	1.0.0.98	1	-1459921193	Professional	2.0.10.353	2.0.10.353	04-28-2015	4/28/2015 4:33:51 PM	12:33:51	2.0.10.248	3	1	1	1	NA	NA	NA	NA	NA	NA	NA	NA	NA	NA	NA	NA	NA	NA	NA	NA	NA	NA	NA	NA	NA	NA	NA	NA	BlockProc	BlockList	NA	19	{LEFTARROW}	NA	-100	1094	incongruent	NA	NA	NA	NA	NA	NA	NA	NA	NA	NA	NA	NA	NA	NA	NA	NA	NA	NA	NA	NA	NA	NA	TrialProc	TrialList	0	6	440199	16	0	17	438466	584	1	{LEFTARROW}	-999999	0	439549	0	{LEFTARROW}	644	440193	NA	NA	left	rrlrr.bmp	354	0	NA	0	0	0	0	NA	0	0	0	NA	0	0	0	0	NA	0	0	3	1	19
Arrow Flanker 2014	12237	1	"<?xml version=""1.0""?>\n<Clock xmlns:dt=""urn:schemas-microsoft-com:datatypes""><Description dt:dt=""string"">E-Prime Primary Realtime Clock</Description><StartTime><Timestamp dt:dt=""int"">0</Timestamp><DateUtc dt:dt=""string"">2015-04-28T16:33:51Z</DateUtc></StartTime><FrequencyChanges><FrequencyChange><Frequency dt:dt=""r8"">2825683</Frequency><Timestamp dt:dt=""r8"">213287891307</Timestamp><Current dt:dt=""r8"">0</Current><DateUtc dt:dt=""string"">2015-04-28T16:33:51Z</DateUtc></FrequencyChange></FrequencyChanges></Clock>\n"	Arrow Flanker 2014-12237-1	60.018	1.0.0.98	1	-1459921193	Professional	2.0.10.353	2.0.10.353	04-28-2015	4/28/2015 4:33:51 PM	12:33:51	2.0.10.248	3	1	1	1	NA	NA	NA	NA	NA	NA	NA	NA	NA	NA	NA	NA	NA	NA	NA	NA	NA	NA	NA	NA	NA	NA	NA	NA	BlockProc	BlockList	NA	20	{RIGHTARROW}	NA	-100	1440	neutral	NA	NA	NA	NA	NA	NA	NA	NA	NA	NA	NA	NA	NA	NA	NA	NA	NA	NA	NA	NA	NA	NA	TrialProc	TrialList	1	14	443014	17	0	17	440732	983	1	{RIGHTARROW}	-999999	0	442215	0	{RIGHTARROW}	785	443000	NA	NA	right	ooroo.bmp	354	0	NA	0	0	0	0	NA	0	0	0	NA	0	0	0	0	NA	0	0	6	1	20
Arrow Flanker 2014	12237	1	"<?xml version=""1.0""?>\n<Clock xmlns:dt=""urn:schemas-microsoft-com:datatypes""><Description dt:dt=""string"">E-Prime Primary Realtime Clock</Description><StartTime><Timestamp dt:dt=""int"">0</Timestamp><DateUtc dt:dt=""string"">2015-04-28T16:33:51Z</DateUtc></StartTime><FrequencyChanges><FrequencyChange><Frequency dt:dt=""r8"">2825683</Frequency><Timestamp dt:dt=""r8"">213287891307</Timestamp><Current dt:dt=""r8"">0</Current><DateUtc dt:dt=""string"">2015-04-28T16:33:51Z</DateUtc></FrequencyChange></FrequencyChanges></Clock>\n"	Arrow Flanker 2014-12237-1	60.018	1.0.0.98	1	-1459921193	Professional	2.0.10.353	2.0.10.353	04-28-2015	4/28/2015 4:33:51 PM	12:33:51	2.0.10.248	3	1	1	1	NA	NA	NA	NA	NA	NA	NA	NA	NA	NA	NA	NA	NA	NA	NA	NA	NA	NA	NA	NA	NA	NA	NA	NA	BlockProc	BlockList	NA	21	{LEFTARROW}	NA	-100	2597	neutral	NA	NA	NA	NA	NA	NA	NA	NA	NA	NA	NA	NA	NA	NA	NA	NA	NA	NA	NA	NA	NA	NA	TrialProc	TrialList	0	17	446097	16	0	17	443548	1516	1	{LEFTARROW}	-999999	0	445564	0	{LEFTARROW}	516	446080	NA	NA	left	ooloo.bmp	354	0	NA	0	0	0	0	NA	0	0	0	NA	0	0	0	0	NA	0	0	5	1	21
Arrow Flanker 2014	12237	1	"<?xml version=""1.0""?>\n<Clock xmlns:dt=""urn:schemas-microsoft-com:datatypes""><Description dt:dt=""string"">E-Prime Primary Realtime Clock</Description><StartTime><Timestamp dt:dt=""int"">0</Timestamp><DateUtc dt:dt=""string"">2015-04-28T16:33:51Z</DateUtc></StartTime><FrequencyChanges><FrequencyChange><Frequency dt:dt=""r8"">2825683</Frequency><Timestamp dt:dt=""r8"">213287891307</Timestamp><Current dt:dt=""r8"">0</Current><DateUtc dt:dt=""string"">2015-04-28T16:33:51Z</DateUtc></FrequencyChange></FrequencyChanges></Clock>\n"	Arrow Flanker 2014-12237-1	60.018	1.0.0.98	1	-1459921193	Professional	2.0.10.353	2.0.10.353	04-28-2015	4/28/2015 4:33:51 PM	12:33:51	2.0.10.248	3	1	1	1	NA	NA	NA	NA	NA	NA	NA	NA	NA	NA	NA	NA	NA	NA	NA	NA	NA	NA	NA	NA	NA	NA	NA	NA	BlockProc	BlockList	NA	22	{LEFTARROW}	NA	-100	2170	incongruent	NA	NA	NA	NA	NA	NA	NA	NA	NA	NA	NA	NA	NA	NA	NA	NA	NA	NA	NA	NA	1	NA	TrialProc	TrialList	1	4	449212	17	0	17	446630	1466	1	{LEFTARROW}	-999999	0	448596	0	{LEFTARROW}	612	449208	NA	NA	left	rrlrr.bmp	354	0	NA	-999999	17	449746	0	1	11369	461115	0	NA	0	0	0	0	NA	0	0	3	1	22
Arrow Flanker 2014	12237	1	"<?xml version=""1.0""?>\n<Clock xmlns:dt=""urn:schemas-microsoft-com:datatypes""><Description dt:dt=""string"">E-Prime Primary Realtime Clock</Description><StartTime><Timestamp dt:dt=""int"">0</Timestamp><DateUtc dt:dt=""string"">2015-04-28T16:33:51Z</DateUtc></StartTime><FrequencyChanges><FrequencyChange><Frequency dt:dt=""r8"">2825683</Frequency><Timestamp dt:dt=""r8"">213287891307</Timestamp><Current dt:dt=""r8"">0</Current><DateUtc dt:dt=""string"">2015-04-28T16:33:51Z</DateUtc></FrequencyChange></FrequencyChanges></Clock>\n"	Arrow Flanker 2014-12237-1	60.018	1.0.0.98	1	-1459921193	Professional	2.0.10.353	2.0.10.353	04-28-2015	4/28/2015 4:33:51 PM	12:33:51	2.0.10.248	3	1	1	1	NA	NA	NA	NA	NA	NA	NA	NA	NA	NA	NA	NA	NA	NA	NA	NA	NA	NA	NA	NA	NA	NA	NA	NA	BlockProc	BlockList	NA	23	{RIGHTARROW}	NA	-100	1475	neutral	NA	NA	NA	NA	NA	NA	NA	NA	NA	NA	NA	NA	NA	NA	NA	NA	NA	NA	NA	NA	NA	NA	TrialProc	TrialList	1	10	466257	17	0	14	463925	1266	1	{RIGHTARROW}	-999999	0	465691	0	{RIGHTARROW}	556	466247	NA	NA	right	ooroo.bmp	354	0	NA	0	0	0	0	NA	0	0	0	NA	0	0	0	0	NA	0	0	6	1	23
Arrow Flanker 2014	12237	1	"<?xml version=""1.0""?>\n<Clock xmlns:dt=""urn:schemas-microsoft-com:datatypes""><Description dt:dt=""string"">E-Prime Primary Realtime Clock</Description><StartTime><Timestamp dt:dt=""int"">0</Timestamp><DateUtc dt:dt=""string"">2015-04-28T16:33:51Z</DateUtc></StartTime><FrequencyChanges><FrequencyChange><Frequency dt:dt=""r8"">2825683</Frequency><Timestamp dt:dt=""r8"">213287891307</Timestamp><Current dt:dt=""r8"">0</Current><DateUtc dt:dt=""string"">2015-04-28T16:33:51Z</DateUtc></FrequencyChange></FrequencyChanges></Clock>\n"	Arrow Flanker 2014-12237-1	60.018	1.0.0.98	1	-1459921193	Professional	2.0.10.353	2.0.10.353	04-28-2015	4/28/2015 4:33:51 PM	12:33:51	2.0.10.248	3	1	1	1	NA	NA	NA	NA	NA	NA	NA	NA	NA	NA	NA	NA	NA	NA	NA	NA	NA	NA	NA	NA	NA	NA	NA	NA	BlockProc	BlockList	NA	24	{RIGHTARROW}	NA	-100	631	neutral	NA	NA	NA	NA	NA	NA	NA	NA	NA	NA	NA	NA	NA	NA	NA	NA	NA	NA	NA	NA	NA	NA	TrialProc	TrialList	0	14	468357	16	0	16	466790	517	1	{RIGHTARROW}	-999999	0	467807	0	{RIGHTARROW}	536	468343	NA	NA	right	ooroo.bmp	354	0	NA	0	0	0	0	NA	0	0	0	NA	0	0	0	0	NA	0	0	6	1	24
Arrow Flanker 2014	12237	1	"<?xml version=""1.0""?>\n<Clock xmlns:dt=""urn:schemas-microsoft-com:datatypes""><Description dt:dt=""string"">E-Prime Primary Realtime Clock</Description><StartTime><Timestamp dt:dt=""int"">0</Timestamp><DateUtc dt:dt=""string"">2015-04-28T16:33:51Z</DateUtc></StartTime><FrequencyChanges><FrequencyChange><Frequency dt:dt=""r8"">2825683</Frequency><Timestamp dt:dt=""r8"">213287891307</Timestamp><Current dt:dt=""r8"">0</Current><DateUtc dt:dt=""string"">2015-04-28T16:33:51Z</DateUtc></FrequencyChange></FrequencyChanges></Clock>\n"	Arrow Flanker 2014-12237-1	60.018	1.0.0.98	1	-1459921193	Professional	2.0.10.353	2.0.10.353	04-28-2015	4/28/2015 4:33:51 PM	12:33:51	2.0.10.248	3	1	1	1	NA	NA	NA	NA	NA	NA	NA	NA	NA	NA	NA	NA	NA	NA	NA	NA	NA	NA	NA	NA	NA	NA	NA	NA	BlockProc	BlockList	NA	25	{LEFTARROW}	NA	-100	947	congruent	NA	NA	NA	NA	NA	NA	NA	NA	NA	NA	NA	NA	NA	NA	NA	NA	NA	NA	NA	NA	NA	NA	TrialProc	TrialList	0	12	470906	17	0	17	468890	800	1	{LEFTARROW}	-999999	16	470206	0	{LEFTARROW}	688	470894	NA	NA	left	lllll.bmp	354	0	NA	0	0	0	0	NA	0	0	0	NA	0	0	0	0	NA	0	0	1	1	25
Arrow Flanker 2014	12237	1	"<?xml version=""1.0""?>\n<Clock xmlns:dt=""urn:schemas-microsoft-com:datatypes""><Description dt:dt=""string"">E-Prime Primary Realtime Clock</Description><StartTime><Timestamp dt:dt=""int"">0</Timestamp><DateUtc dt:dt=""string"">2015-04-28T16:33:51Z</DateUtc></StartTime><FrequencyChanges><FrequencyChange><Frequency dt:dt=""r8"">2825683</Frequency><Timestamp dt:dt=""r8"">213287891307</Timestamp><Current dt:dt=""r8"">0</Current><DateUtc dt:dt=""string"">2015-04-28T16:33:51Z</DateUtc></FrequencyChange></FrequencyChanges></Clock>\n"	Arrow Flanker 2014-12237-1	60.018	1.0.0.98	1	-1459921193	Professional	2.0.10.353	2.0.10.353	04-28-2015	4/28/2015 4:33:51 PM	12:33:51	2.0.10.248	3	1	1	1	NA	NA	NA	NA	NA	NA	NA	NA	NA	NA	NA	NA	NA	NA	NA	NA	NA	NA	NA	NA	NA	NA	NA	NA	BlockProc	BlockList	NA	26	{LEFTARROW}	NA	-100	2094	congruent	NA	NA	NA	NA	NA	NA	NA	NA	NA	NA	NA	NA	NA	NA	NA	NA	NA	NA	NA	NA	NA	NA	TrialProc	TrialList	0	11	473905	17	0	16	471439	1383	1	{LEFTARROW}	-999999	0	473322	0	{LEFTARROW}	572	473894	NA	NA	left	lllll.bmp	354	0	NA	0	0	0	0	NA	0	0	0	NA	0	0	0	0	NA	0	0	1	1	26
Arrow Flanker 2014	12237	1	"<?xml version=""1.0""?>\n<Clock xmlns:dt=""urn:schemas-microsoft-com:datatypes""><Description dt:dt=""string"">E-Prime Primary Realtime Clock</Description><StartTime><Timestamp dt:dt=""int"">0</Timestamp><DateUtc dt:dt=""string"">2015-04-28T16:33:51Z</DateUtc></StartTime><FrequencyChanges><FrequencyChange><Frequency dt:dt=""r8"">2825683</Frequency><Timestamp dt:dt=""r8"">213287891307</Timestamp><Current dt:dt=""r8"">0</Current><DateUtc dt:dt=""string"">2015-04-28T16:33:51Z</DateUtc></FrequencyChange></FrequencyChanges></Clock>\n"	Arrow Flanker 2014-12237-1	60.018	1.0.0.98	1	-1459921193	Professional	2.0.10.353	2.0.10.353	04-28-2015	4/28/2015 4:33:51 PM	12:33:51	2.0.10.248	3	1	1	1	NA	NA	NA	NA	NA	NA	NA	NA	NA	NA	NA	NA	NA	NA	NA	NA	NA	NA	NA	NA	NA	NA	NA	NA	BlockProc	BlockList	NA	27	{RIGHTARROW}	NA	-100	1565	neutral	NA	NA	NA	NA	NA	NA	NA	NA	NA	NA	NA	NA	NA	NA	NA	NA	NA	NA	NA	NA	NA	NA	TrialProc	TrialList	0	12	476754	17	0	16	474438	0	1	{RIGHTARROW}	-999999	0	476238	0	{RIGHTARROW}	504	476742	NA	NA	right	ooroo.bmp	354	0	NA	0	0	0	0	NA	0	0	0	NA	0	0	0	0	NA	0	0	6	1	27
Arrow Flanker 2014	12237	1	"<?xml version=""1.0""?>\n<Clock xmlns:dt=""urn:schemas-microsoft-com:datatypes""><Description dt:dt=""string"">E-Prime Primary Realtime Clock</Description><StartTime><Timestamp dt:dt=""int"">0</Timestamp><DateUtc dt:dt=""string"">2015-04-28T16:33:51Z</DateUtc></StartTime><FrequencyChanges><FrequencyChange><Frequency dt:dt=""r8"">2825683</Frequency><Timestamp dt:dt=""r8"">213287891307</Timestamp><Current dt:dt=""r8"">0</Current><DateUtc dt:dt=""string"">2015-04-28T16:33:51Z</DateUtc></FrequencyChange></FrequencyChanges></Clock>\n"	Arrow Flanker 2014-12237-1	60.018	1.0.0.98	1	-1459921193	Professional	2.0.10.353	2.0.10.353	04-28-2015	4/28/2015 4:33:51 PM	12:33:51	2.0.10.248	3	1	1	1	NA	NA	NA	NA	NA	NA	NA	NA	NA	NA	NA	NA	NA	NA	NA	NA	NA	NA	NA	NA	NA	NA	NA	NA	BlockProc	BlockList	NA	28	{RIGHTARROW}	NA	-100	1612	neutral	NA	NA	NA	NA	NA	NA	NA	NA	NA	NA	NA	NA	NA	NA	NA	NA	NA	NA	NA	NA	NA	NA	TrialProc	TrialList	0	7	479437	16	0	16	477287	0	1	{RIGHTARROW}	-999999	0	478920	0	{RIGHTARROW}	510	479430	NA	NA	right	ooroo.bmp	354	0	NA	0	0	0	0	NA	0	0	0	NA	0	0	0	0	NA	0	0	6	1	28
Arrow Flanker 2014	12237	1	"<?xml version=""1.0""?>\n<Clock xmlns:dt=""urn:schemas-microsoft-com:datatypes""><Description dt:dt=""string"">E-Prime Primary Realtime Clock</Description><StartTime><Timestamp dt:dt=""int"">0</Timestamp><DateUtc dt:dt=""string"">2015-04-28T16:33:51Z</DateUtc></StartTime><FrequencyChanges><FrequencyChange><Frequency dt:dt=""r8"">2825683</Frequency><Timestamp dt:dt=""r8"">213287891307</Timestamp><Current dt:dt=""r8"">0</Current><DateUtc dt:dt=""string"">2015-04-28T16:33:51Z</DateUtc></FrequencyChange></FrequencyChanges></Clock>\n"	Arrow Flanker 2014-12237-1	60.018	1.0.0.98	1	-1459921193	Professional	2.0.10.353	2.0.10.353	04-28-2015	4/28/2015 4:33:51 PM	12:33:51	2.0.10.248	3	1	1	1	NA	NA	NA	NA	NA	NA	NA	NA	NA	NA	NA	NA	NA	NA	NA	NA	NA	NA	NA	NA	NA	NA	NA	NA	BlockProc	BlockList	NA	29	{LEFTARROW}	NA	-100	1034	neutral	NA	NA	NA	NA	NA	NA	NA	NA	NA	NA	NA	NA	NA	NA	NA	NA	NA	NA	NA	NA	NA	NA	TrialProc	TrialList	0	5	481603	16	0	17	479970	0	1	{LEFTARROW}	-999999	0	481053	0	{LEFTARROW}	545	481598	NA	NA	left	ooloo.bmp	354	0	NA	0	0	0	0	NA	0	0	0	NA	0	0	0	0	NA	0	0	5	1	29
Arrow Flanker 2014	12237	1	"<?xml version=""1.0""?>\n<Clock xmlns:dt=""urn:schemas-microsoft-com:datatypes""><Description dt:dt=""string"">E-Prime Primary Realtime Clock</Description><StartTime><Timestamp dt:dt=""int"">0</Timestamp><DateUtc dt:dt=""string"">2015-04-28T16:33:51Z</DateUtc></StartTime><FrequencyChanges><FrequencyChange><Frequency dt:dt=""r8"">2825683</Frequency><Timestamp dt:dt=""r8"">213287891307</Timestamp><Current dt:dt=""r8"">0</Current><DateUtc dt:dt=""string"">2015-04-28T16:33:51Z</DateUtc></FrequencyChange></FrequencyChanges></Clock>\n"	Arrow Flanker 2014-12237-1	60.018	1.0.0.98	1	-1459921193	Professional	2.0.10.353	2.0.10.353	04-28-2015	4/28/2015 4:33:51 PM	12:33:51	2.0.10.248	3	1	1	1	NA	NA	NA	NA	NA	NA	NA	NA	NA	NA	NA	NA	NA	NA	NA	NA	NA	NA	NA	NA	NA	NA	NA	NA	BlockProc	BlockList	NA	30	{LEFTARROW}	NA	-100	1268	congruent	NA	NA	NA	NA	NA	NA	NA	NA	NA	NA	NA	NA	NA	NA	NA	NA	NA	NA	NA	NA	NA	NA	TrialProc	TrialList	0	18	484552	16	0	17	482136	0	1	{LEFTARROW}	-999999	0	483852	0	{LEFTARROW}	681	484533	NA	NA	left	lllll.bmp	354	0	NA	0	0	0	0	NA	0	0	0	NA	0	0	0	0	NA	0	0	1	1	30
Arrow Flanker 2014	12237	1	"<?xml version=""1.0""?>\n<Clock xmlns:dt=""urn:schemas-microsoft-com:datatypes""><Description dt:dt=""string"">E-Prime Primary Realtime Clock</Description><StartTime><Timestamp dt:dt=""int"">0</Timestamp><DateUtc dt:dt=""string"">2015-04-28T16:33:51Z</DateUtc></StartTime><FrequencyChanges><FrequencyChange><Frequency dt:dt=""r8"">2825683</Frequency><Timestamp dt:dt=""r8"">213287891307</Timestamp><Current dt:dt=""r8"">0</Current><DateUtc dt:dt=""string"">2015-04-28T16:33:51Z</DateUtc></FrequencyChange></FrequencyChanges></Clock>\n"	Arrow Flanker 2014-12237-1	60.018	1.0.0.98	1	-1459921193	Professional	2.0.10.353	2.0.10.353	04-28-2015	4/28/2015 4:33:51 PM	12:33:51	2.0.10.248	3	1	1	1	NA	NA	NA	NA	NA	NA	NA	NA	NA	NA	NA	NA	NA	NA	NA	NA	NA	NA	NA	NA	NA	NA	NA	NA	BlockProc	BlockList	NA	31	{LEFTARROW}	NA	-100	915	incongruent	NA	NA	NA	NA	NA	NA	NA	NA	NA	NA	NA	NA	NA	NA	NA	NA	NA	NA	NA	NA	NA	NA	TrialProc	TrialList	0	17	487118	16	0	17	485085	0	1	{LEFTARROW}	-999999	0	486368	0	{LEFTARROW}	733	487101	NA	NA	left	rrlrr.bmp	354	0	NA	0	0	0	0	NA	0	0	0	NA	0	0	0	0	NA	0	0	3	1	31
Arrow Flanker 2014	12237	1	"<?xml version=""1.0""?>\n<Clock xmlns:dt=""urn:schemas-microsoft-com:datatypes""><Description dt:dt=""string"">E-Prime Primary Realtime Clock</Description><StartTime><Timestamp dt:dt=""int"">0</Timestamp><DateUtc dt:dt=""string"">2015-04-28T16:33:51Z</DateUtc></StartTime><FrequencyChanges><FrequencyChange><Frequency dt:dt=""r8"">2825683</Frequency><Timestamp dt:dt=""r8"">213287891307</Timestamp><Current dt:dt=""r8"">0</Current><DateUtc dt:dt=""string"">2015-04-28T16:33:51Z</DateUtc></FrequencyChange></FrequencyChanges></Clock>\n"	Arrow Flanker 2014-12237-1	60.018	1.0.0.98	1	-1459921193	Professional	2.0.10.353	2.0.10.353	04-28-2015	4/28/2015 4:33:51 PM	12:33:51	2.0.10.248	3	1	1	1	NA	NA	NA	NA	NA	NA	NA	NA	NA	NA	NA	NA	NA	NA	NA	NA	NA	NA	NA	NA	NA	NA	NA	NA	BlockProc	BlockList	NA	32	{LEFTARROW}	NA	-100	1018	congruent	NA	NA	NA	NA	NA	NA	NA	NA	NA	NA	NA	NA	NA	NA	NA	NA	NA	NA	NA	NA	NA	NA	TrialProc	TrialList	0	10	489367	17	0	17	487651	0	1	{LEFTARROW}	-999999	16	488667	0	{LEFTARROW}	690	489357	NA	NA	left	lllll.bmp	354	0	NA	0	0	0	0	NA	0	0	0	NA	0	0	0	0	NA	0	0	1	1	32
Arrow Flanker 2014	12237	1	"<?xml version=""1.0""?>\n<Clock xmlns:dt=""urn:schemas-microsoft-com:datatypes""><Description dt:dt=""string"">E-Prime Primary Realtime Clock</Description><StartTime><Timestamp dt:dt=""int"">0</Timestamp><DateUtc dt:dt=""string"">2015-04-28T16:33:51Z</DateUtc></StartTime><FrequencyChanges><FrequencyChange><Frequency dt:dt=""r8"">2825683</Frequency><Timestamp dt:dt=""r8"">213287891307</Timestamp><Current dt:dt=""r8"">0</Current><DateUtc dt:dt=""string"">2015-04-28T16:33:51Z</DateUtc></FrequencyChange></FrequencyChanges></Clock>\n"	Arrow Flanker 2014-12237-1	60.018	1.0.0.98	1	-1459921193	Professional	2.0.10.353	2.0.10.353	04-28-2015	4/28/2015 4:33:51 PM	12:33:51	2.0.10.248	3	1	1	1	NA	NA	NA	NA	NA	NA	NA	NA	NA	NA	NA	NA	NA	NA	NA	NA	NA	NA	NA	NA	NA	NA	NA	NA	BlockProc	BlockList	NA	33	{RIGHTARROW}	NA	-100	1636	incongruent	NA	NA	NA	NA	NA	NA	NA	NA	NA	NA	NA	NA	NA	NA	NA	NA	NA	NA	NA	NA	NA	NA	TrialProc	TrialList	0	12	492433	16	0	16	489900	0	1	{RIGHTARROW}	-999999	0	491816	0	{RIGHTARROW}	605	492421	NA	NA	right	llrll.bmp	354	0	NA	0	0	0	0	NA	0	0	0	NA	0	0	0	0	NA	0	0	4	1	33
Arrow Flanker 2014	12237	1	"<?xml version=""1.0""?>\n<Clock xmlns:dt=""urn:schemas-microsoft-com:datatypes""><Description dt:dt=""string"">E-Prime Primary Realtime Clock</Description><StartTime><Timestamp dt:dt=""int"">0</Timestamp><DateUtc dt:dt=""string"">2015-04-28T16:33:51Z</DateUtc></StartTime><FrequencyChanges><FrequencyChange><Frequency dt:dt=""r8"">2825683</Frequency><Timestamp dt:dt=""r8"">213287891307</Timestamp><Current dt:dt=""r8"">0</Current><DateUtc dt:dt=""string"">2015-04-28T16:33:51Z</DateUtc></FrequencyChange></FrequencyChanges></Clock>\n"	Arrow Flanker 2014-12237-1	60.018	1.0.0.98	1	-1459921193	Professional	2.0.10.353	2.0.10.353	04-28-2015	4/28/2015 4:33:51 PM	12:33:51	2.0.10.248	3	1	1	1	NA	NA	NA	NA	NA	NA	NA	NA	NA	NA	NA	NA	NA	NA	NA	NA	NA	NA	NA	NA	NA	NA	NA	NA	BlockProc	BlockList	NA	34	{LEFTARROW}	NA	-100	1203	neutral	NA	NA	NA	NA	NA	NA	NA	NA	NA	NA	NA	NA	NA	NA	NA	NA	NA	NA	NA	NA	NA	NA	TrialProc	TrialList	1	11	495048	17	0	17	492966	0	1	{LEFTARROW}	-999999	0	494499	0	{LEFTARROW}	538	495037	NA	NA	left	ooloo.bmp	354	0	NA	0	0	0	0	NA	0	0	0	NA	0	0	0	0	NA	0	0	5	1	34
Arrow Flanker 2014	12237	1	"<?xml version=""1.0""?>\n<Clock xmlns:dt=""urn:schemas-microsoft-com:datatypes""><Description dt:dt=""string"">E-Prime Primary Realtime Clock</Description><StartTime><Timestamp dt:dt=""int"">0</Timestamp><DateUtc dt:dt=""string"">2015-04-28T16:33:51Z</DateUtc></StartTime><FrequencyChanges><FrequencyChange><Frequency dt:dt=""r8"">2825683</Frequency><Timestamp dt:dt=""r8"">213287891307</Timestamp><Current dt:dt=""r8"">0</Current><DateUtc dt:dt=""string"">2015-04-28T16:33:51Z</DateUtc></FrequencyChange></FrequencyChanges></Clock>\n"	Arrow Flanker 2014-12237-1	60.018	1.0.0.98	1	-1459921193	Professional	2.0.10.353	2.0.10.353	04-28-2015	4/28/2015 4:33:51 PM	12:33:51	2.0.10.248	3	1	1	1	NA	NA	NA	NA	NA	NA	NA	NA	NA	NA	NA	NA	NA	NA	NA	NA	NA	NA	NA	NA	NA	NA	NA	NA	BlockProc	BlockList	NA	35	{RIGHTARROW}	NA	-100	1590	incongruent	NA	NA	NA	NA	NA	NA	NA	NA	NA	NA	NA	NA	NA	NA	NA	NA	NA	NA	NA	NA	NA	NA	TrialProc	TrialList	0	17	498198	16	0	17	495582	0	1	{RIGHTARROW}	-999999	0	497581	0	{RIGHTARROW}	600	498181	NA	NA	right	llrll.bmp	354	0	NA	0	0	0	0	NA	0	0	0	NA	0	0	0	0	NA	0	0	4	1	35
Arrow Flanker 2014	12237	1	"<?xml version=""1.0""?>\n<Clock xmlns:dt=""urn:schemas-microsoft-com:datatypes""><Description dt:dt=""string"">E-Prime Primary Realtime Clock</Description><StartTime><Timestamp dt:dt=""int"">0</Timestamp><DateUtc dt:dt=""string"">2015-04-28T16:33:51Z</DateUtc></StartTime><FrequencyChanges><FrequencyChange><Frequency dt:dt=""r8"">2825683</Frequency><Timestamp dt:dt=""r8"">213287891307</Timestamp><Current dt:dt=""r8"">0</Current><DateUtc dt:dt=""string"">2015-04-28T16:33:51Z</DateUtc></FrequencyChange></FrequencyChanges></Clock>\n"	Arrow Flanker 2014-12237-1	60.018	1.0.0.98	1	-1459921193	Professional	2.0.10.353	2.0.10.353	04-28-2015	4/28/2015 4:33:51 PM	12:33:51	2.0.10.248	3	1	1	1	NA	NA	NA	NA	NA	NA	NA	NA	NA	NA	NA	NA	NA	NA	NA	NA	NA	NA	NA	NA	NA	NA	NA	NA	BlockProc	BlockList	NA	36	{LEFTARROW}	NA	-100	1881	incongruent	NA	NA	NA	NA	NA	NA	NA	NA	NA	NA	NA	NA	NA	NA	NA	NA	NA	NA	NA	NA	NA	NA	TrialProc	TrialList	1	10	500630	17	0	17	498731	0	1	{LEFTARROW}	-999999	0	499964	0	{LEFTARROW}	656	500620	NA	NA	left	rrlrr.bmp	354	0	NA	0	0	0	0	NA	0	0	0	NA	0	0	0	0	NA	0	0	3	1	36
Arrow Flanker 2014	12237	1	"<?xml version=""1.0""?>\n<Clock xmlns:dt=""urn:schemas-microsoft-com:datatypes""><Description dt:dt=""string"">E-Prime Primary Realtime Clock</Description><StartTime><Timestamp dt:dt=""int"">0</Timestamp><DateUtc dt:dt=""string"">2015-04-28T16:33:51Z</DateUtc></StartTime><FrequencyChanges><FrequencyChange><Frequency dt:dt=""r8"">2825683</Frequency><Timestamp dt:dt=""r8"">213287891307</Timestamp><Current dt:dt=""r8"">0</Current><DateUtc dt:dt=""string"">2015-04-28T16:33:51Z</DateUtc></FrequencyChange></FrequencyChanges></Clock>\n"	Arrow Flanker 2014-12237-1	60.018	1.0.0.98	1	-1459921193	Professional	2.0.10.353	2.0.10.353	04-28-2015	4/28/2015 4:33:51 PM	12:33:51	2.0.10.248	3	1	1	1	NA	NA	NA	NA	NA	NA	NA	NA	NA	NA	NA	NA	NA	NA	NA	NA	NA	NA	NA	NA	NA	NA	NA	NA	BlockProc	BlockList	NA	37	{RIGHTARROW}	NA	-100	1287	congruent	NA	NA	NA	NA	NA	NA	NA	NA	NA	NA	NA	NA	NA	NA	NA	NA	NA	NA	NA	NA	1	NA	TrialProc	TrialList	0	17	503213	16	0	16	501163	950	1	{RIGHTARROW}	-999999	0	502613	0	{RIGHTARROW}	583	503196	NA	NA	right	rrrrr.bmp	354	0	NA	-999999	17	503746	0	1	7814	511560	0	NA	0	0	0	0	NA	0	0	2	1	37
Arrow Flanker 2014	12237	1	"<?xml version=""1.0""?>\n<Clock xmlns:dt=""urn:schemas-microsoft-com:datatypes""><Description dt:dt=""string"">E-Prime Primary Realtime Clock</Description><StartTime><Timestamp dt:dt=""int"">0</Timestamp><DateUtc dt:dt=""string"">2015-04-28T16:33:51Z</DateUtc></StartTime><FrequencyChanges><FrequencyChange><Frequency dt:dt=""r8"">2825683</Frequency><Timestamp dt:dt=""r8"">213287891307</Timestamp><Current dt:dt=""r8"">0</Current><DateUtc dt:dt=""string"">2015-04-28T16:33:51Z</DateUtc></FrequencyChange></FrequencyChanges></Clock>\n"	Arrow Flanker 2014-12237-1	60.018	1.0.0.98	1	-1459921193	Professional	2.0.10.353	2.0.10.353	04-28-2015	4/28/2015 4:33:51 PM	12:33:51	2.0.10.248	3	1	1	1	NA	NA	NA	NA	NA	NA	NA	NA	NA	NA	NA	NA	NA	NA	NA	NA	NA	NA	NA	NA	NA	NA	NA	NA	BlockProc	BlockList	NA	38	{LEFTARROW}	NA	-100	2452	congruent	NA	NA	NA	NA	NA	NA	NA	NA	NA	NA	NA	NA	NA	NA	NA	NA	NA	NA	NA	NA	NA	NA	TrialProc	TrialList	1	4	515975	17	0	4	513560	0	1	{LEFTARROW}	-999999	0	515326	0	{LEFTARROW}	645	515971	NA	NA	left	lllll.bmp	354	0	NA	0	0	0	0	NA	0	0	0	NA	0	0	0	0	NA	0	0	1	1	38
Arrow Flanker 2014	12237	1	"<?xml version=""1.0""?>\n<Clock xmlns:dt=""urn:schemas-microsoft-com:datatypes""><Description dt:dt=""string"">E-Prime Primary Realtime Clock</Description><StartTime><Timestamp dt:dt=""int"">0</Timestamp><DateUtc dt:dt=""string"">2015-04-28T16:33:51Z</DateUtc></StartTime><FrequencyChanges><FrequencyChange><Frequency dt:dt=""r8"">2825683</Frequency><Timestamp dt:dt=""r8"">213287891307</Timestamp><Current dt:dt=""r8"">0</Current><DateUtc dt:dt=""string"">2015-04-28T16:33:51Z</DateUtc></FrequencyChange></FrequencyChanges></Clock>\n"	Arrow Flanker 2014-12237-1	60.018	1.0.0.98	1	-1459921193	Professional	2.0.10.353	2.0.10.353	04-28-2015	4/28/2015 4:33:51 PM	12:33:51	2.0.10.248	3	1	1	1	NA	NA	NA	NA	NA	NA	NA	NA	NA	NA	NA	NA	NA	NA	NA	NA	NA	NA	NA	NA	NA	NA	NA	NA	BlockProc	BlockList	NA	39	{LEFTARROW}	NA	-100	935	incongruent	NA	NA	NA	NA	NA	NA	NA	NA	NA	NA	NA	NA	NA	NA	NA	NA	NA	NA	NA	NA	NA	NA	TrialProc	TrialList	1	6	518241	17	0	17	516509	0	1	{LEFTARROW}	-999999	0	517558	0	{LEFTARROW}	677	518235	NA	NA	left	rrlrr.bmp	354	0	NA	0	0	0	0	NA	0	0	0	NA	0	0	0	0	NA	0	0	3	1	39
Arrow Flanker 2014	12237	1	"<?xml version=""1.0""?>\n<Clock xmlns:dt=""urn:schemas-microsoft-com:datatypes""><Description dt:dt=""string"">E-Prime Primary Realtime Clock</Description><StartTime><Timestamp dt:dt=""int"">0</Timestamp><DateUtc dt:dt=""string"">2015-04-28T16:33:51Z</DateUtc></StartTime><FrequencyChanges><FrequencyChange><Frequency dt:dt=""r8"">2825683</Frequency><Timestamp dt:dt=""r8"">213287891307</Timestamp><Current dt:dt=""r8"">0</Current><DateUtc dt:dt=""string"">2015-04-28T16:33:51Z</DateUtc></FrequencyChange></FrequencyChanges></Clock>\n"	Arrow Flanker 2014-12237-1	60.018	1.0.0.98	1	-1459921193	Professional	2.0.10.353	2.0.10.353	04-28-2015	4/28/2015 4:33:51 PM	12:33:51	2.0.10.248	3	1	1	1	NA	NA	NA	NA	NA	NA	NA	NA	NA	NA	NA	NA	NA	NA	NA	NA	NA	NA	NA	NA	NA	NA	NA	NA	BlockProc	BlockList	NA	40	{RIGHTARROW}	NA	-100	1606	incongruent	NA	NA	NA	NA	NA	NA	NA	NA	NA	NA	NA	NA	NA	NA	NA	NA	NA	NA	NA	NA	NA	NA	TrialProc	TrialList	1	3	521190	17	0	17	518775	0	1	{RIGHTARROW}	-999999	0	520524	0	{RIGHTARROW}	663	521187	NA	NA	right	llrll.bmp	354	0	NA	0	0	0	0	NA	0	0	0	NA	0	0	0	0	NA	0	0	4	1	40
Arrow Flanker 2014	12237	1	"<?xml version=""1.0""?>\n<Clock xmlns:dt=""urn:schemas-microsoft-com:datatypes""><Description dt:dt=""string"">E-Prime Primary Realtime Clock</Description><StartTime><Timestamp dt:dt=""int"">0</Timestamp><DateUtc dt:dt=""string"">2015-04-28T16:33:51Z</DateUtc></StartTime><FrequencyChanges><FrequencyChange><Frequency dt:dt=""r8"">2825683</Frequency><Timestamp dt:dt=""r8"">213287891307</Timestamp><Current dt:dt=""r8"">0</Current><DateUtc dt:dt=""string"">2015-04-28T16:33:51Z</DateUtc></FrequencyChange></FrequencyChanges></Clock>\n"	Arrow Flanker 2014-12237-1	60.018	1.0.0.98	1	-1459921193	Professional	2.0.10.353	2.0.10.353	04-28-2015	4/28/2015 4:33:51 PM	12:33:51	2.0.10.248	3	1	1	1	NA	NA	NA	NA	NA	NA	NA	NA	NA	NA	NA	NA	NA	NA	NA	NA	NA	NA	NA	NA	NA	NA	NA	NA	BlockProc	BlockList	NA	41	{RIGHTARROW}	NA	-100	716	incongruent	NA	NA	NA	NA	NA	NA	NA	NA	NA	NA	NA	NA	NA	NA	NA	NA	NA	NA	NA	NA	NA	NA	TrialProc	TrialList	0	9	523540	16	0	17	521724	0	1	{RIGHTARROW}	-999999	0	522907	0	{RIGHTARROW}	624	523531	NA	NA	right	llrll.bmp	354	0	NA	0	0	0	0	NA	0	0	0	NA	0	0	0	0	NA	0	0	4	1	41
Arrow Flanker 2014	12237	1	"<?xml version=""1.0""?>\n<Clock xmlns:dt=""urn:schemas-microsoft-com:datatypes""><Description dt:dt=""string"">E-Prime Primary Realtime Clock</Description><StartTime><Timestamp dt:dt=""int"">0</Timestamp><DateUtc dt:dt=""string"">2015-04-28T16:33:51Z</DateUtc></StartTime><FrequencyChanges><FrequencyChange><Frequency dt:dt=""r8"">2825683</Frequency><Timestamp dt:dt=""r8"">213287891307</Timestamp><Current dt:dt=""r8"">0</Current><DateUtc dt:dt=""string"">2015-04-28T16:33:51Z</DateUtc></FrequencyChange></FrequencyChanges></Clock>\n"	Arrow Flanker 2014-12237-1	60.018	1.0.0.98	1	-1459921193	Professional	2.0.10.353	2.0.10.353	04-28-2015	4/28/2015 4:33:51 PM	12:33:51	2.0.10.248	3	1	1	1	NA	NA	NA	NA	NA	NA	NA	NA	NA	NA	NA	NA	NA	NA	NA	NA	NA	NA	NA	NA	NA	NA	NA	NA	BlockProc	BlockList	NA	42	{RIGHTARROW}	NA	-100	1509	incongruent	NA	NA	NA	NA	NA	NA	NA	NA	NA	NA	NA	NA	NA	NA	NA	NA	NA	NA	NA	NA	NA	NA	TrialProc	TrialList	1	7	525722	17	0	17	524073	0	1	{RIGHTARROW}	-999999	0	525206	0	{RIGHTARROW}	509	525715	NA	NA	right	llrll.bmp	354	0	NA	0	0	0	0	NA	0	0	0	NA	0	0	0	0	NA	0	0	4	1	42
Arrow Flanker 2014	12237	1	"<?xml version=""1.0""?>\n<Clock xmlns:dt=""urn:schemas-microsoft-com:datatypes""><Description dt:dt=""string"">E-Prime Primary Realtime Clock</Description><StartTime><Timestamp dt:dt=""int"">0</Timestamp><DateUtc dt:dt=""string"">2015-04-28T16:33:51Z</DateUtc></StartTime><FrequencyChanges><FrequencyChange><Frequency dt:dt=""r8"">2825683</Frequency><Timestamp dt:dt=""r8"">213287891307</Timestamp><Current dt:dt=""r8"">0</Current><DateUtc dt:dt=""string"">2015-04-28T16:33:51Z</DateUtc></FrequencyChange></FrequencyChanges></Clock>\n"	Arrow Flanker 2014-12237-1	60.018	1.0.0.98	1	-1459921193	Professional	2.0.10.353	2.0.10.353	04-28-2015	4/28/2015 4:33:51 PM	12:33:51	2.0.10.248	3	1	1	1	NA	NA	NA	NA	NA	NA	NA	NA	NA	NA	NA	NA	NA	NA	NA	NA	NA	NA	NA	NA	NA	NA	NA	NA	BlockProc	BlockList	NA	43	{RIGHTARROW}	NA	-100	1507	congruent	NA	NA	NA	NA	NA	NA	NA	NA	NA	NA	NA	NA	NA	NA	NA	NA	NA	NA	NA	NA	NA	NA	TrialProc	TrialList	0	16	528755	16	0	17	526256	0	1	{RIGHTARROW}	-999999	0	528222	0	{RIGHTARROW}	516	528738	NA	NA	right	rrrrr.bmp	354	0	NA	0	0	0	0	NA	0	0	0	NA	0	0	0	0	NA	0	0	2	1	43
Arrow Flanker 2014	12237	1	"<?xml version=""1.0""?>\n<Clock xmlns:dt=""urn:schemas-microsoft-com:datatypes""><Description dt:dt=""string"">E-Prime Primary Realtime Clock</Description><StartTime><Timestamp dt:dt=""int"">0</Timestamp><DateUtc dt:dt=""string"">2015-04-28T16:33:51Z</DateUtc></StartTime><FrequencyChanges><FrequencyChange><Frequency dt:dt=""r8"">2825683</Frequency><Timestamp dt:dt=""r8"">213287891307</Timestamp><Current dt:dt=""r8"">0</Current><DateUtc dt:dt=""string"">2015-04-28T16:33:51Z</DateUtc></FrequencyChange></FrequencyChanges></Clock>\n"	Arrow Flanker 2014-12237-1	60.018	1.0.0.98	1	-1459921193	Professional	2.0.10.353	2.0.10.353	04-28-2015	4/28/2015 4:33:51 PM	12:33:51	2.0.10.248	3	1	1	1	NA	NA	NA	NA	NA	NA	NA	NA	NA	NA	NA	NA	NA	NA	NA	NA	NA	NA	NA	NA	NA	NA	NA	NA	BlockProc	BlockList	NA	44	{LEFTARROW}	NA	-100	2203	neutral	NA	NA	NA	NA	NA	NA	NA	NA	NA	NA	NA	NA	NA	NA	NA	NA	NA	NA	NA	NA	NA	NA	TrialProc	TrialList	0	4	531654	17	0	17	529288	0	1	{LEFTARROW}	-999999	0	531054	0	{LEFTARROW}	596	531650	NA	NA	left	ooloo.bmp	354	0	NA	0	0	0	0	NA	0	0	0	NA	0	0	0	0	NA	0	0	5	1	44
Arrow Flanker 2014	12237	1	"<?xml version=""1.0""?>\n<Clock xmlns:dt=""urn:schemas-microsoft-com:datatypes""><Description dt:dt=""string"">E-Prime Primary Realtime Clock</Description><StartTime><Timestamp dt:dt=""int"">0</Timestamp><DateUtc dt:dt=""string"">2015-04-28T16:33:51Z</DateUtc></StartTime><FrequencyChanges><FrequencyChange><Frequency dt:dt=""r8"">2825683</Frequency><Timestamp dt:dt=""r8"">213287891307</Timestamp><Current dt:dt=""r8"">0</Current><DateUtc dt:dt=""string"">2015-04-28T16:33:51Z</DateUtc></FrequencyChange></FrequencyChanges></Clock>\n"	Arrow Flanker 2014-12237-1	60.018	1.0.0.98	1	-1459921193	Professional	2.0.10.353	2.0.10.353	04-28-2015	4/28/2015 4:33:51 PM	12:33:51	2.0.10.248	3	1	1	1	NA	NA	NA	NA	NA	NA	NA	NA	NA	NA	NA	NA	NA	NA	NA	NA	NA	NA	NA	NA	NA	NA	NA	NA	BlockProc	BlockList	NA	45	{RIGHTARROW}	NA	-100	812	incongruent	NA	NA	NA	NA	NA	NA	NA	NA	NA	NA	NA	NA	NA	NA	NA	NA	NA	NA	NA	NA	NA	NA	TrialProc	TrialList	0	14	533720	17	0	16	532187	0	1	{RIGHTARROW}	-999999	0	533237	0	{RIGHTARROW}	469	533706	NA	NA	right	llrll.bmp	354	0	NA	0	0	0	0	NA	0	0	0	NA	0	0	0	0	NA	0	0	4	1	45
Arrow Flanker 2014	12237	1	"<?xml version=""1.0""?>\n<Clock xmlns:dt=""urn:schemas-microsoft-com:datatypes""><Description dt:dt=""string"">E-Prime Primary Realtime Clock</Description><StartTime><Timestamp dt:dt=""int"">0</Timestamp><DateUtc dt:dt=""string"">2015-04-28T16:33:51Z</DateUtc></StartTime><FrequencyChanges><FrequencyChange><Frequency dt:dt=""r8"">2825683</Frequency><Timestamp dt:dt=""r8"">213287891307</Timestamp><Current dt:dt=""r8"">0</Current><DateUtc dt:dt=""string"">2015-04-28T16:33:51Z</DateUtc></FrequencyChange></FrequencyChanges></Clock>\n"	Arrow Flanker 2014-12237-1	60.018	1.0.0.98	1	-1459921193	Professional	2.0.10.353	2.0.10.353	04-28-2015	4/28/2015 4:33:51 PM	12:33:51	2.0.10.248	3	1	1	1	NA	NA	NA	NA	NA	NA	NA	NA	NA	NA	NA	NA	NA	NA	NA	NA	NA	NA	NA	NA	NA	NA	NA	NA	BlockProc	BlockList	NA	46	{RIGHTARROW}	NA	-100	916	neutral	NA	NA	NA	NA	NA	NA	NA	NA	NA	NA	NA	NA	NA	NA	NA	NA	NA	NA	NA	NA	NA	NA	TrialProc	TrialList	0	15	536153	16	0	16	534253	833	1	{RIGHTARROW}	-999999	0	535586	0	{RIGHTARROW}	552	536138	NA	NA	right	ooroo.bmp	354	0	NA	0	0	0	0	NA	0	0	0	NA	0	0	0	0	NA	0	0	6	1	46
Arrow Flanker 2014	12237	1	"<?xml version=""1.0""?>\n<Clock xmlns:dt=""urn:schemas-microsoft-com:datatypes""><Description dt:dt=""string"">E-Prime Primary Realtime Clock</Description><StartTime><Timestamp dt:dt=""int"">0</Timestamp><DateUtc dt:dt=""string"">2015-04-28T16:33:51Z</DateUtc></StartTime><FrequencyChanges><FrequencyChange><Frequency dt:dt=""r8"">2825683</Frequency><Timestamp dt:dt=""r8"">213287891307</Timestamp><Current dt:dt=""r8"">0</Current><DateUtc dt:dt=""string"">2015-04-28T16:33:51Z</DateUtc></FrequencyChange></FrequencyChanges></Clock>\n"	Arrow Flanker 2014-12237-1	60.018	1.0.0.98	1	-1459921193	Professional	2.0.10.353	2.0.10.353	04-28-2015	4/28/2015 4:33:51 PM	12:33:51	2.0.10.248	3	1	1	1	NA	NA	NA	NA	NA	NA	NA	NA	NA	NA	NA	NA	NA	NA	NA	NA	NA	NA	NA	NA	NA	NA	NA	NA	BlockProc	BlockList	NA	47	{RIGHTARROW}	NA	-100	782	congruent	NA	NA	NA	NA	NA	NA	NA	NA	NA	NA	NA	NA	NA	NA	NA	NA	NA	NA	NA	NA	NA	NA	TrialProc	TrialList	0	17	538419	16	0	17	536686	0	1	{RIGHTARROW}	-999999	0	537719	0	{RIGHTARROW}	683	538402	NA	NA	right	rrrrr.bmp	354	0	NA	0	0	0	0	NA	0	0	0	NA	0	0	0	0	NA	0	0	2	1	47
Arrow Flanker 2014	12237	1	"<?xml version=""1.0""?>\n<Clock xmlns:dt=""urn:schemas-microsoft-com:datatypes""><Description dt:dt=""string"">E-Prime Primary Realtime Clock</Description><StartTime><Timestamp dt:dt=""int"">0</Timestamp><DateUtc dt:dt=""string"">2015-04-28T16:33:51Z</DateUtc></StartTime><FrequencyChanges><FrequencyChange><Frequency dt:dt=""r8"">2825683</Frequency><Timestamp dt:dt=""r8"">213287891307</Timestamp><Current dt:dt=""r8"">0</Current><DateUtc dt:dt=""string"">2015-04-28T16:33:51Z</DateUtc></FrequencyChange></FrequencyChanges></Clock>\n"	Arrow Flanker 2014-12237-1	60.018	1.0.0.98	1	-1459921193	Professional	2.0.10.353	2.0.10.353	04-28-2015	4/28/2015 4:33:51 PM	12:33:51	2.0.10.248	3	1	1	1	NA	NA	NA	NA	NA	NA	NA	NA	NA	NA	NA	NA	NA	NA	NA	NA	NA	NA	NA	NA	NA	NA	NA	NA	BlockProc	BlockList	NA	48	{LEFTARROW}	NA	-100	1153	congruent	NA	NA	NA	NA	NA	NA	NA	NA	NA	NA	NA	NA	NA	NA	NA	NA	NA	NA	NA	NA	NA	NA	TrialProc	TrialList	0	4	540918	16	0	17	538952	0	1	{LEFTARROW}	-999999	0	540368	0	{LEFTARROW}	546	540914	NA	NA	left	lllll.bmp	354	0	NA	0	0	0	0	NA	0	0	0	NA	0	0	0	0	NA	0	0	1	1	48
Arrow Flanker 2014	12237	1	"<?xml version=""1.0""?>\n<Clock xmlns:dt=""urn:schemas-microsoft-com:datatypes""><Description dt:dt=""string"">E-Prime Primary Realtime Clock</Description><StartTime><Timestamp dt:dt=""int"">0</Timestamp><DateUtc dt:dt=""string"">2015-04-28T16:33:51Z</DateUtc></StartTime><FrequencyChanges><FrequencyChange><Frequency dt:dt=""r8"">2825683</Frequency><Timestamp dt:dt=""r8"">213287891307</Timestamp><Current dt:dt=""r8"">0</Current><DateUtc dt:dt=""string"">2015-04-28T16:33:51Z</DateUtc></FrequencyChange></FrequencyChanges></Clock>\n"	Arrow Flanker 2014-12237-1	60.018	1.0.0.98	1	-1459921193	Professional	2.0.10.353	2.0.10.353	04-28-2015	4/28/2015 4:33:51 PM	12:33:51	2.0.10.248	3	1	1	1	NA	NA	NA	NA	NA	NA	NA	NA	NA	NA	NA	NA	NA	NA	NA	NA	NA	NA	NA	NA	NA	NA	NA	NA	BlockProc	BlockList	NA	49	{LEFTARROW}	NA	-100	759	incongruent	NA	NA	NA	NA	NA	NA	NA	NA	NA	NA	NA	NA	NA	NA	NA	NA	NA	NA	NA	NA	NA	NA	TrialProc	TrialList	1	4	542950	17	0	17	541451	0	0	{LEFTARROW}	-999999	0	542567	0	{RIGHTARROW}	379	542946	NA	NA	left	rrlrr.bmp	354	0	NA	0	0	0	0	NA	0	0	0	NA	0	0	0	0	NA	0	0	3	1	49
Arrow Flanker 2014	12237	1	"<?xml version=""1.0""?>\n<Clock xmlns:dt=""urn:schemas-microsoft-com:datatypes""><Description dt:dt=""string"">E-Prime Primary Realtime Clock</Description><StartTime><Timestamp dt:dt=""int"">0</Timestamp><DateUtc dt:dt=""string"">2015-04-28T16:33:51Z</DateUtc></StartTime><FrequencyChanges><FrequencyChange><Frequency dt:dt=""r8"">2825683</Frequency><Timestamp dt:dt=""r8"">213287891307</Timestamp><Current dt:dt=""r8"">0</Current><DateUtc dt:dt=""string"">2015-04-28T16:33:51Z</DateUtc></FrequencyChange></FrequencyChanges></Clock>\n"	Arrow Flanker 2014-12237-1	60.018	1.0.0.98	1	-1459921193	Professional	2.0.10.353	2.0.10.353	04-28-2015	4/28/2015 4:33:51 PM	12:33:51	2.0.10.248	3	1	1	1	NA	NA	NA	NA	NA	NA	NA	NA	NA	NA	NA	NA	NA	NA	NA	NA	NA	NA	NA	NA	NA	NA	NA	NA	BlockProc	BlockList	NA	50	{LEFTARROW}	NA	-100	1321	congruent	NA	NA	NA	NA	NA	NA	NA	NA	NA	NA	NA	NA	NA	NA	NA	NA	NA	NA	NA	NA	NA	NA	TrialProc	TrialList	0	5	545550	16	0	17	543484	0	1	{LEFTARROW}	-999999	0	544967	0	{LEFTARROW}	578	545545	NA	NA	left	lllll.bmp	354	0	NA	0	0	0	0	NA	0	0	0	NA	0	0	0	0	NA	0	0	1	1	50
Arrow Flanker 2014	12237	1	"<?xml version=""1.0""?>\n<Clock xmlns:dt=""urn:schemas-microsoft-com:datatypes""><Description dt:dt=""string"">E-Prime Primary Realtime Clock</Description><StartTime><Timestamp dt:dt=""int"">0</Timestamp><DateUtc dt:dt=""string"">2015-04-28T16:33:51Z</DateUtc></StartTime><FrequencyChanges><FrequencyChange><Frequency dt:dt=""r8"">2825683</Frequency><Timestamp dt:dt=""r8"">213287891307</Timestamp><Current dt:dt=""r8"">0</Current><DateUtc dt:dt=""string"">2015-04-28T16:33:51Z</DateUtc></FrequencyChange></FrequencyChanges></Clock>\n"	Arrow Flanker 2014-12237-1	60.018	1.0.0.98	1	-1459921193	Professional	2.0.10.353	2.0.10.353	04-28-2015	4/28/2015 4:33:51 PM	12:33:51	2.0.10.248	3	1	1	1	NA	NA	NA	NA	NA	NA	NA	NA	NA	NA	NA	NA	NA	NA	NA	NA	NA	NA	NA	NA	NA	NA	NA	NA	BlockProc	BlockList	NA	51	{LEFTARROW}	NA	-100	1076	neutral	NA	NA	NA	NA	NA	NA	NA	NA	NA	NA	NA	NA	NA	NA	NA	NA	NA	NA	NA	NA	NA	NA	TrialProc	TrialList	0	15	548016	16	0	17	546083	0	1	{LEFTARROW}	-999999	0	547516	0	{LEFTARROW}	485	548001	NA	NA	left	ooloo.bmp	354	0	NA	0	0	0	0	NA	0	0	0	NA	0	0	0	0	NA	0	0	5	1	51
Arrow Flanker 2014	12237	1	"<?xml version=""1.0""?>\n<Clock xmlns:dt=""urn:schemas-microsoft-com:datatypes""><Description dt:dt=""string"">E-Prime Primary Realtime Clock</Description><StartTime><Timestamp dt:dt=""int"">0</Timestamp><DateUtc dt:dt=""string"">2015-04-28T16:33:51Z</DateUtc></StartTime><FrequencyChanges><FrequencyChange><Frequency dt:dt=""r8"">2825683</Frequency><Timestamp dt:dt=""r8"">213287891307</Timestamp><Current dt:dt=""r8"">0</Current><DateUtc dt:dt=""string"">2015-04-28T16:33:51Z</DateUtc></FrequencyChange></FrequencyChanges></Clock>\n"	Arrow Flanker 2014-12237-1	60.018	1.0.0.98	1	-1459921193	Professional	2.0.10.353	2.0.10.353	04-28-2015	4/28/2015 4:33:51 PM	12:33:51	2.0.10.248	3	1	1	1	NA	NA	NA	NA	NA	NA	NA	NA	NA	NA	NA	NA	NA	NA	NA	NA	NA	NA	NA	NA	NA	NA	NA	NA	BlockProc	BlockList	NA	52	{RIGHTARROW}	NA	-100	2298	congruent	NA	NA	NA	NA	NA	NA	NA	NA	NA	NA	NA	NA	NA	NA	NA	NA	NA	NA	NA	NA	NA	NA	TrialProc	TrialList	1	10	550931	17	0	17	548549	0	1	{RIGHTARROW}	-999999	0	550382	0	{RIGHTARROW}	539	550921	NA	NA	right	rrrrr.bmp	354	0	NA	0	0	0	0	NA	0	0	0	NA	0	0	0	0	NA	0	0	2	1	52
Arrow Flanker 2014	12237	1	"<?xml version=""1.0""?>\n<Clock xmlns:dt=""urn:schemas-microsoft-com:datatypes""><Description dt:dt=""string"">E-Prime Primary Realtime Clock</Description><StartTime><Timestamp dt:dt=""int"">0</Timestamp><DateUtc dt:dt=""string"">2015-04-28T16:33:51Z</DateUtc></StartTime><FrequencyChanges><FrequencyChange><Frequency dt:dt=""r8"">2825683</Frequency><Timestamp dt:dt=""r8"">213287891307</Timestamp><Current dt:dt=""r8"">0</Current><DateUtc dt:dt=""string"">2015-04-28T16:33:51Z</DateUtc></FrequencyChange></FrequencyChanges></Clock>\n"	Arrow Flanker 2014-12237-1	60.018	1.0.0.98	1	-1459921193	Professional	2.0.10.353	2.0.10.353	04-28-2015	4/28/2015 4:33:51 PM	12:33:51	2.0.10.248	3	1	1	1	NA	NA	NA	NA	NA	NA	NA	NA	NA	NA	NA	NA	NA	NA	NA	NA	NA	NA	NA	NA	NA	NA	NA	NA	BlockProc	BlockList	NA	53	{LEFTARROW}	NA	-100	955	incongruent	NA	NA	NA	NA	NA	NA	NA	NA	NA	NA	NA	NA	NA	NA	NA	NA	NA	NA	NA	NA	NA	NA	TrialProc	TrialList	1	4	553197	17	0	17	551465	0	1	{LEFTARROW}	-999999	0	552581	0	{LEFTARROW}	612	553193	NA	NA	left	rrlrr.bmp	354	0	NA	0	0	0	0	NA	0	0	0	NA	0	0	0	0	NA	0	0	3	1	53
Arrow Flanker 2014	12237	1	"<?xml version=""1.0""?>\n<Clock xmlns:dt=""urn:schemas-microsoft-com:datatypes""><Description dt:dt=""string"">E-Prime Primary Realtime Clock</Description><StartTime><Timestamp dt:dt=""int"">0</Timestamp><DateUtc dt:dt=""string"">2015-04-28T16:33:51Z</DateUtc></StartTime><FrequencyChanges><FrequencyChange><Frequency dt:dt=""r8"">2825683</Frequency><Timestamp dt:dt=""r8"">213287891307</Timestamp><Current dt:dt=""r8"">0</Current><DateUtc dt:dt=""string"">2015-04-28T16:33:51Z</DateUtc></FrequencyChange></FrequencyChanges></Clock>\n"	Arrow Flanker 2014-12237-1	60.018	1.0.0.98	1	-1459921193	Professional	2.0.10.353	2.0.10.353	04-28-2015	4/28/2015 4:33:51 PM	12:33:51	2.0.10.248	3	1	1	1	NA	NA	NA	NA	NA	NA	NA	NA	NA	NA	NA	NA	NA	NA	NA	NA	NA	NA	NA	NA	NA	NA	NA	NA	BlockProc	BlockList	NA	54	{LEFTARROW}	NA	-100	844	incongruent	NA	NA	NA	NA	NA	NA	NA	NA	NA	NA	NA	NA	NA	NA	NA	NA	NA	NA	NA	NA	2	2	TrialProc	TrialList	0	17	555530	17	0	17	553731	0	1	{LEFTARROW}	-999999	0	554930	0	{LEFTARROW}	583	555513	NA	NA	left	rrlrr.bmp	354	0	NA	-999999	16	556063	0	1	2837	558900	0	NA	-999999	12	558912	0	1	13164	572076	3	1	54
Arrow Flanker 2014	12237	1	"<?xml version=""1.0""?>\n<Clock xmlns:dt=""urn:schemas-microsoft-com:datatypes""><Description dt:dt=""string"">E-Prime Primary Realtime Clock</Description><StartTime><Timestamp dt:dt=""int"">0</Timestamp><DateUtc dt:dt=""string"">2015-04-28T16:33:51Z</DateUtc></StartTime><FrequencyChanges><FrequencyChange><Frequency dt:dt=""r8"">2825683</Frequency><Timestamp dt:dt=""r8"">213287891307</Timestamp><Current dt:dt=""r8"">0</Current><DateUtc dt:dt=""string"">2015-04-28T16:33:51Z</DateUtc></FrequencyChange></FrequencyChanges></Clock>\n"	Arrow Flanker 2014-12237-1	60.018	1.0.0.98	1	-1459921193	Professional	2.0.10.353	2.0.10.353	04-28-2015	4/28/2015 4:33:51 PM	12:33:51	2.0.10.248	3	1	1	1	NA	NA	NA	NA	NA	NA	NA	NA	NA	NA	NA	NA	NA	NA	NA	NA	NA	NA	NA	NA	NA	NA	NA	NA	BlockProc	BlockList	NA	55	{RIGHTARROW}	NA	-100	1391	incongruent	NA	NA	NA	NA	NA	NA	NA	NA	NA	NA	NA	NA	NA	NA	NA	NA	NA	NA	NA	NA	NA	NA	TrialProc	TrialList	0	10	575857	17	0	13	574124	0	1	{RIGHTARROW}	-999999	0	575174	0	{RIGHTARROW}	673	575847	NA	NA	right	llrll.bmp	354	0	NA	0	0	0	0	NA	0	0	0	NA	0	0	0	0	NA	0	0	4	1	55
Arrow Flanker 2014	12237	1	"<?xml version=""1.0""?>\n<Clock xmlns:dt=""urn:schemas-microsoft-com:datatypes""><Description dt:dt=""string"">E-Prime Primary Realtime Clock</Description><StartTime><Timestamp dt:dt=""int"">0</Timestamp><DateUtc dt:dt=""string"">2015-04-28T16:33:51Z</DateUtc></StartTime><FrequencyChanges><FrequencyChange><Frequency dt:dt=""r8"">2825683</Frequency><Timestamp dt:dt=""r8"">213287891307</Timestamp><Current dt:dt=""r8"">0</Current><DateUtc dt:dt=""string"">2015-04-28T16:33:51Z</DateUtc></FrequencyChange></FrequencyChanges></Clock>\n"	Arrow Flanker 2014-12237-1	60.018	1.0.0.98	1	-1459921193	Professional	2.0.10.353	2.0.10.353	04-28-2015	4/28/2015 4:33:51 PM	12:33:51	2.0.10.248	3	1	1	1	NA	NA	NA	NA	NA	NA	NA	NA	NA	NA	NA	NA	NA	NA	NA	NA	NA	NA	NA	NA	NA	NA	NA	NA	BlockProc	BlockList	NA	56	{LEFTARROW}	NA	-100	1380	congruent	NA	NA	NA	NA	NA	NA	NA	NA	NA	NA	NA	NA	NA	NA	NA	NA	NA	NA	NA	NA	NA	NA	TrialProc	TrialList	0	9	578440	16	0	16	576390	0	1	{LEFTARROW}	-999999	0	577773	0	{LEFTARROW}	658	578431	NA	NA	left	lllll.bmp	354	0	NA	0	0	0	0	NA	0	0	0	NA	0	0	0	0	NA	0	0	1	1	56
Arrow Flanker 2014	12237	1	"<?xml version=""1.0""?>\n<Clock xmlns:dt=""urn:schemas-microsoft-com:datatypes""><Description dt:dt=""string"">E-Prime Primary Realtime Clock</Description><StartTime><Timestamp dt:dt=""int"">0</Timestamp><DateUtc dt:dt=""string"">2015-04-28T16:33:51Z</DateUtc></StartTime><FrequencyChanges><FrequencyChange><Frequency dt:dt=""r8"">2825683</Frequency><Timestamp dt:dt=""r8"">213287891307</Timestamp><Current dt:dt=""r8"">0</Current><DateUtc dt:dt=""string"">2015-04-28T16:33:51Z</DateUtc></FrequencyChange></FrequencyChanges></Clock>\n"	Arrow Flanker 2014-12237-1	60.018	1.0.0.98	1	-1459921193	Professional	2.0.10.353	2.0.10.353	04-28-2015	4/28/2015 4:33:51 PM	12:33:51	2.0.10.248	3	1	1	1	NA	NA	NA	NA	NA	NA	NA	NA	NA	NA	NA	NA	NA	NA	NA	NA	NA	NA	NA	NA	NA	NA	NA	NA	BlockProc	BlockList	NA	57	{LEFTARROW}	NA	-100	1717	neutral	NA	NA	NA	NA	NA	NA	NA	NA	NA	NA	NA	NA	NA	NA	NA	NA	NA	NA	NA	NA	NA	NA	TrialProc	TrialList	1	5	580972	17	0	17	578973	0	1	{LEFTARROW}	-999999	0	580489	0	{LEFTARROW}	478	580967	NA	NA	left	ooloo.bmp	354	0	NA	0	0	0	0	NA	0	0	0	NA	0	0	0	0	NA	0	0	5	1	57
Arrow Flanker 2014	12237	1	"<?xml version=""1.0""?>\n<Clock xmlns:dt=""urn:schemas-microsoft-com:datatypes""><Description dt:dt=""string"">E-Prime Primary Realtime Clock</Description><StartTime><Timestamp dt:dt=""int"">0</Timestamp><DateUtc dt:dt=""string"">2015-04-28T16:33:51Z</DateUtc></StartTime><FrequencyChanges><FrequencyChange><Frequency dt:dt=""r8"">2825683</Frequency><Timestamp dt:dt=""r8"">213287891307</Timestamp><Current dt:dt=""r8"">0</Current><DateUtc dt:dt=""string"">2015-04-28T16:33:51Z</DateUtc></FrequencyChange></FrequencyChanges></Clock>\n"	Arrow Flanker 2014-12237-1	60.018	1.0.0.98	1	-1459921193	Professional	2.0.10.353	2.0.10.353	04-28-2015	4/28/2015 4:33:51 PM	12:33:51	2.0.10.248	3	1	1	1	NA	NA	NA	NA	NA	NA	NA	NA	NA	NA	NA	NA	NA	NA	NA	NA	NA	NA	NA	NA	NA	NA	NA	NA	BlockProc	BlockList	NA	58	{RIGHTARROW}	NA	-100	835	neutral	NA	NA	NA	NA	NA	NA	NA	NA	NA	NA	NA	NA	NA	NA	NA	NA	NA	NA	NA	NA	NA	NA	TrialProc	TrialList	1	3	583338	17	0	16	581505	0	1	{RIGHTARROW}	-999999	0	582755	0	{RIGHTARROW}	580	583335	NA	NA	right	ooroo.bmp	354	0	NA	0	0	0	0	NA	0	0	0	NA	0	0	0	0	NA	0	0	6	1	58
Arrow Flanker 2014	12237	1	"<?xml version=""1.0""?>\n<Clock xmlns:dt=""urn:schemas-microsoft-com:datatypes""><Description dt:dt=""string"">E-Prime Primary Realtime Clock</Description><StartTime><Timestamp dt:dt=""int"">0</Timestamp><DateUtc dt:dt=""string"">2015-04-28T16:33:51Z</DateUtc></StartTime><FrequencyChanges><FrequencyChange><Frequency dt:dt=""r8"">2825683</Frequency><Timestamp dt:dt=""r8"">213287891307</Timestamp><Current dt:dt=""r8"">0</Current><DateUtc dt:dt=""string"">2015-04-28T16:33:51Z</DateUtc></FrequencyChange></FrequencyChanges></Clock>\n"	Arrow Flanker 2014-12237-1	60.018	1.0.0.98	1	-1459921193	Professional	2.0.10.353	2.0.10.353	04-28-2015	4/28/2015 4:33:51 PM	12:33:51	2.0.10.248	3	1	1	1	NA	NA	NA	NA	NA	NA	NA	NA	NA	NA	NA	NA	NA	NA	NA	NA	NA	NA	NA	NA	NA	NA	NA	NA	BlockProc	BlockList	NA	59	{RIGHTARROW}	NA	-100	1610	neutral	NA	NA	NA	NA	NA	NA	NA	NA	NA	NA	NA	NA	NA	NA	NA	NA	NA	NA	NA	NA	NA	NA	TrialProc	TrialList	0	10	586121	16	0	16	583871	0	1	{RIGHTARROW}	-999999	0	585471	0	{RIGHTARROW}	640	586111	NA	NA	right	ooroo.bmp	354	0	NA	0	0	0	0	NA	0	0	0	NA	0	0	0	0	NA	0	0	6	1	59
Arrow Flanker 2014	12237	1	"<?xml version=""1.0""?>\n<Clock xmlns:dt=""urn:schemas-microsoft-com:datatypes""><Description dt:dt=""string"">E-Prime Primary Realtime Clock</Description><StartTime><Timestamp dt:dt=""int"">0</Timestamp><DateUtc dt:dt=""string"">2015-04-28T16:33:51Z</DateUtc></StartTime><FrequencyChanges><FrequencyChange><Frequency dt:dt=""r8"">2825683</Frequency><Timestamp dt:dt=""r8"">213287891307</Timestamp><Current dt:dt=""r8"">0</Current><DateUtc dt:dt=""string"">2015-04-28T16:33:51Z</DateUtc></FrequencyChange></FrequencyChanges></Clock>\n"	Arrow Flanker 2014-12237-1	60.018	1.0.0.98	1	-1459921193	Professional	2.0.10.353	2.0.10.353	04-28-2015	4/28/2015 4:33:51 PM	12:33:51	2.0.10.248	3	1	1	1	NA	NA	NA	NA	NA	NA	NA	NA	NA	NA	NA	NA	NA	NA	NA	NA	NA	NA	NA	NA	NA	NA	NA	NA	BlockProc	BlockList	NA	60	{LEFTARROW}	NA	-100	775	incongruent	NA	NA	NA	NA	NA	NA	NA	NA	NA	NA	NA	NA	NA	NA	NA	NA	NA	NA	NA	NA	NA	NA	TrialProc	TrialList	1	9	588503	17	0	17	586654	0	1	{LEFTARROW}	-999999	16	587920	0	{LEFTARROW}	574	588494	NA	NA	left	rrlrr.bmp	354	0	NA	0	0	0	0	NA	0	0	0	NA	0	0	0	0	NA	0	0	3	1	60
Arrow Flanker 2014	12237	1	"<?xml version=""1.0""?>\n<Clock xmlns:dt=""urn:schemas-microsoft-com:datatypes""><Description dt:dt=""string"">E-Prime Primary Realtime Clock</Description><StartTime><Timestamp dt:dt=""int"">0</Timestamp><DateUtc dt:dt=""string"">2015-04-28T16:33:51Z</DateUtc></StartTime><FrequencyChanges><FrequencyChange><Frequency dt:dt=""r8"">2825683</Frequency><Timestamp dt:dt=""r8"">213287891307</Timestamp><Current dt:dt=""r8"">0</Current><DateUtc dt:dt=""string"">2015-04-28T16:33:51Z</DateUtc></FrequencyChange></FrequencyChanges></Clock>\n"	Arrow Flanker 2014-12237-1	60.018	1.0.0.98	1	-1459921193	Professional	2.0.10.353	2.0.10.353	04-28-2015	4/28/2015 4:33:51 PM	12:33:51	2.0.10.248	3	1	1	1	NA	NA	NA	NA	NA	NA	NA	NA	NA	NA	NA	NA	NA	NA	NA	NA	NA	NA	NA	NA	NA	NA	NA	NA	BlockProc	BlockList	NA	61	{LEFTARROW}	NA	-100	1739	incongruent	NA	NA	NA	NA	NA	NA	NA	NA	NA	NA	NA	NA	NA	NA	NA	NA	NA	NA	NA	NA	NA	NA	TrialProc	TrialList	1	12	591802	17	0	16	589036	0	1	{LEFTARROW}	-999999	0	591069	0	{LEFTARROW}	721	591790	NA	NA	left	rrlrr.bmp	354	0	NA	0	0	0	0	NA	0	0	0	NA	0	0	0	0	NA	0	0	3	1	61
Arrow Flanker 2014	12237	1	"<?xml version=""1.0""?>\n<Clock xmlns:dt=""urn:schemas-microsoft-com:datatypes""><Description dt:dt=""string"">E-Prime Primary Realtime Clock</Description><StartTime><Timestamp dt:dt=""int"">0</Timestamp><DateUtc dt:dt=""string"">2015-04-28T16:33:51Z</DateUtc></StartTime><FrequencyChanges><FrequencyChange><Frequency dt:dt=""r8"">2825683</Frequency><Timestamp dt:dt=""r8"">213287891307</Timestamp><Current dt:dt=""r8"">0</Current><DateUtc dt:dt=""string"">2015-04-28T16:33:51Z</DateUtc></FrequencyChange></FrequencyChanges></Clock>\n"	Arrow Flanker 2014-12237-1	60.018	1.0.0.98	1	-1459921193	Professional	2.0.10.353	2.0.10.353	04-28-2015	4/28/2015 4:33:51 PM	12:33:51	2.0.10.248	3	1	1	1	NA	NA	NA	NA	NA	NA	NA	NA	NA	NA	NA	NA	NA	NA	NA	NA	NA	NA	NA	NA	NA	NA	NA	NA	BlockProc	BlockList	NA	62	{RIGHTARROW}	NA	-100	1840	neutral	NA	NA	NA	NA	NA	NA	NA	NA	NA	NA	NA	NA	NA	NA	NA	NA	NA	NA	NA	NA	NA	NA	TrialProc	TrialList	0	3	594769	16	0	16	592335	0	1	{RIGHTARROW}	-999999	0	594185	0	{RIGHTARROW}	581	594766	NA	NA	right	ooroo.bmp	354	0	NA	0	0	0	0	NA	0	0	0	NA	0	0	0	0	NA	0	0	6	1	62
Arrow Flanker 2014	12237	1	"<?xml version=""1.0""?>\n<Clock xmlns:dt=""urn:schemas-microsoft-com:datatypes""><Description dt:dt=""string"">E-Prime Primary Realtime Clock</Description><StartTime><Timestamp dt:dt=""int"">0</Timestamp><DateUtc dt:dt=""string"">2015-04-28T16:33:51Z</DateUtc></StartTime><FrequencyChanges><FrequencyChange><Frequency dt:dt=""r8"">2825683</Frequency><Timestamp dt:dt=""r8"">213287891307</Timestamp><Current dt:dt=""r8"">0</Current><DateUtc dt:dt=""string"">2015-04-28T16:33:51Z</DateUtc></FrequencyChange></FrequencyChanges></Clock>\n"	Arrow Flanker 2014-12237-1	60.018	1.0.0.98	1	-1459921193	Professional	2.0.10.353	2.0.10.353	04-28-2015	4/28/2015 4:33:51 PM	12:33:51	2.0.10.248	3	1	1	1	NA	NA	NA	NA	NA	NA	NA	NA	NA	NA	NA	NA	NA	NA	NA	NA	NA	NA	NA	NA	NA	NA	NA	NA	BlockProc	BlockList	NA	63	{LEFTARROW}	NA	-100	1622	congruent	NA	NA	NA	NA	NA	NA	NA	NA	NA	NA	NA	NA	NA	NA	NA	NA	NA	NA	NA	NA	NA	NA	TrialProc	TrialList	0	19	597401	16	0	16	595301	0	1	{LEFTARROW}	-999999	0	596551	0	{LEFTARROW}	831	597382	NA	NA	left	lllll.bmp	354	0	NA	0	0	0	0	NA	0	0	0	NA	0	0	0	0	NA	0	0	1	1	63
Arrow Flanker 2014	12237	1	"<?xml version=""1.0""?>\n<Clock xmlns:dt=""urn:schemas-microsoft-com:datatypes""><Description dt:dt=""string"">E-Prime Primary Realtime Clock</Description><StartTime><Timestamp dt:dt=""int"">0</Timestamp><DateUtc dt:dt=""string"">2015-04-28T16:33:51Z</DateUtc></StartTime><FrequencyChanges><FrequencyChange><Frequency dt:dt=""r8"">2825683</Frequency><Timestamp dt:dt=""r8"">213287891307</Timestamp><Current dt:dt=""r8"">0</Current><DateUtc dt:dt=""string"">2015-04-28T16:33:51Z</DateUtc></FrequencyChange></FrequencyChanges></Clock>\n"	Arrow Flanker 2014-12237-1	60.018	1.0.0.98	1	-1459921193	Professional	2.0.10.353	2.0.10.353	04-28-2015	4/28/2015 4:33:51 PM	12:33:51	2.0.10.248	3	1	1	1	NA	NA	NA	NA	NA	NA	NA	NA	NA	NA	NA	NA	NA	NA	NA	NA	NA	NA	NA	NA	NA	NA	NA	NA	BlockProc	BlockList	NA	64	{LEFTARROW}	NA	-100	1959	congruent	NA	NA	NA	NA	NA	NA	NA	NA	NA	NA	NA	NA	NA	NA	NA	NA	NA	NA	NA	NA	NA	NA	TrialProc	TrialList	1	2	599800	16	0	17	597934	0	1	{LEFTARROW}	-999999	0	599333	0	{LEFTARROW}	465	599798	NA	NA	left	lllll.bmp	354	0	NA	0	0	0	0	NA	0	0	0	NA	0	0	0	0	NA	0	0	1	1	64
Arrow Flanker 2014	12237	1	"<?xml version=""1.0""?>\n<Clock xmlns:dt=""urn:schemas-microsoft-com:datatypes""><Description dt:dt=""string"">E-Prime Primary Realtime Clock</Description><StartTime><Timestamp dt:dt=""int"">0</Timestamp><DateUtc dt:dt=""string"">2015-04-28T16:33:51Z</DateUtc></StartTime><FrequencyChanges><FrequencyChange><Frequency dt:dt=""r8"">2825683</Frequency><Timestamp dt:dt=""r8"">213287891307</Timestamp><Current dt:dt=""r8"">0</Current><DateUtc dt:dt=""string"">2015-04-28T16:33:51Z</DateUtc></FrequencyChange></FrequencyChanges></Clock>\n"	Arrow Flanker 2014-12237-1	60.018	1.0.0.98	1	-1459921193	Professional	2.0.10.353	2.0.10.353	04-28-2015	4/28/2015 4:33:51 PM	12:33:51	2.0.10.248	3	1	1	1	NA	NA	NA	NA	NA	NA	NA	NA	NA	NA	NA	NA	NA	NA	NA	NA	NA	NA	NA	NA	NA	NA	NA	NA	BlockProc	BlockList	NA	65	{RIGHTARROW}	NA	-100	1965	congruent	NA	NA	NA	NA	NA	NA	NA	NA	NA	NA	NA	NA	NA	NA	NA	NA	NA	NA	NA	NA	NA	NA	TrialProc	TrialList	0	7	602349	17	0	17	600333	0	1	{RIGHTARROW}	-999999	0	601749	0	{RIGHTARROW}	592	602341	NA	NA	right	rrrrr.bmp	354	0	NA	0	0	0	0	NA	0	0	0	NA	0	0	0	0	NA	0	0	2	1	65
Arrow Flanker 2014	12237	1	"<?xml version=""1.0""?>\n<Clock xmlns:dt=""urn:schemas-microsoft-com:datatypes""><Description dt:dt=""string"">E-Prime Primary Realtime Clock</Description><StartTime><Timestamp dt:dt=""int"">0</Timestamp><DateUtc dt:dt=""string"">2015-04-28T16:33:51Z</DateUtc></StartTime><FrequencyChanges><FrequencyChange><Frequency dt:dt=""r8"">2825683</Frequency><Timestamp dt:dt=""r8"">213287891307</Timestamp><Current dt:dt=""r8"">0</Current><DateUtc dt:dt=""string"">2015-04-28T16:33:51Z</DateUtc></FrequencyChange></FrequencyChanges></Clock>\n"	Arrow Flanker 2014-12237-1	60.018	1.0.0.98	1	-1459921193	Professional	2.0.10.353	2.0.10.353	04-28-2015	4/28/2015 4:33:51 PM	12:33:51	2.0.10.248	3	1	1	1	NA	NA	NA	NA	NA	NA	NA	NA	NA	NA	NA	NA	NA	NA	NA	NA	NA	NA	NA	NA	NA	NA	NA	NA	BlockProc	BlockList	NA	66	{RIGHTARROW}	NA	-100	1104	incongruent	NA	NA	NA	NA	NA	NA	NA	NA	NA	NA	NA	NA	NA	NA	NA	NA	NA	NA	NA	NA	NA	NA	TrialProc	TrialList	1	13	604698	17	0	16	602882	0	1	{RIGHTARROW}	-999999	0	604165	0	{RIGHTARROW}	520	604685	NA	NA	right	llrll.bmp	354	0	NA	0	0	0	0	NA	0	0	0	NA	0	0	0	0	NA	0	0	4	1	66
Arrow Flanker 2014	12237	1	"<?xml version=""1.0""?>\n<Clock xmlns:dt=""urn:schemas-microsoft-com:datatypes""><Description dt:dt=""string"">E-Prime Primary Realtime Clock</Description><StartTime><Timestamp dt:dt=""int"">0</Timestamp><DateUtc dt:dt=""string"">2015-04-28T16:33:51Z</DateUtc></StartTime><FrequencyChanges><FrequencyChange><Frequency dt:dt=""r8"">2825683</Frequency><Timestamp dt:dt=""r8"">213287891307</Timestamp><Current dt:dt=""r8"">0</Current><DateUtc dt:dt=""string"">2015-04-28T16:33:51Z</DateUtc></FrequencyChange></FrequencyChanges></Clock>\n"	Arrow Flanker 2014-12237-1	60.018	1.0.0.98	1	-1459921193	Professional	2.0.10.353	2.0.10.353	04-28-2015	4/28/2015 4:33:51 PM	12:33:51	2.0.10.248	3	1	1	1	NA	NA	NA	NA	NA	NA	NA	NA	NA	NA	NA	NA	NA	NA	NA	NA	NA	NA	NA	NA	NA	NA	NA	NA	BlockProc	BlockList	NA	67	{RIGHTARROW}	NA	-100	1539	congruent	NA	NA	NA	NA	NA	NA	NA	NA	NA	NA	NA	NA	NA	NA	NA	NA	NA	NA	NA	NA	NA	NA	TrialProc	TrialList	1	9	606814	17	0	16	605231	0	1	{RIGHTARROW}	-999999	0	606231	0	{RIGHTARROW}	574	606805	NA	NA	right	rrrrr.bmp	354	0	NA	0	0	0	0	NA	0	0	0	NA	0	0	0	0	NA	0	0	2	1	67
Arrow Flanker 2014	12237	1	"<?xml version=""1.0""?>\n<Clock xmlns:dt=""urn:schemas-microsoft-com:datatypes""><Description dt:dt=""string"">E-Prime Primary Realtime Clock</Description><StartTime><Timestamp dt:dt=""int"">0</Timestamp><DateUtc dt:dt=""string"">2015-04-28T16:33:51Z</DateUtc></StartTime><FrequencyChanges><FrequencyChange><Frequency dt:dt=""r8"">2825683</Frequency><Timestamp dt:dt=""r8"">213287891307</Timestamp><Current dt:dt=""r8"">0</Current><DateUtc dt:dt=""string"">2015-04-28T16:33:51Z</DateUtc></FrequencyChange></FrequencyChanges></Clock>\n"	Arrow Flanker 2014-12237-1	60.018	1.0.0.98	1	-1459921193	Professional	2.0.10.353	2.0.10.353	04-28-2015	4/28/2015 4:33:51 PM	12:33:51	2.0.10.248	3	1	1	1	NA	NA	NA	NA	NA	NA	NA	NA	NA	NA	NA	NA	NA	NA	NA	NA	NA	NA	NA	NA	NA	NA	NA	NA	BlockProc	BlockList	NA	68	{RIGHTARROW}	NA	-100	2254	neutral	NA	NA	NA	NA	NA	NA	NA	NA	NA	NA	NA	NA	NA	NA	NA	NA	NA	NA	NA	NA	NA	NA	TrialProc	TrialList	0	13	609730	17	0	16	607347	0	1	{RIGHTARROW}	-999999	0	609230	0	{RIGHTARROW}	487	609717	NA	NA	right	ooroo.bmp	354	0	NA	0	0	0	0	NA	0	0	0	NA	0	0	0	0	NA	0	0	6	1	68
Arrow Flanker 2014	12237	1	"<?xml version=""1.0""?>\n<Clock xmlns:dt=""urn:schemas-microsoft-com:datatypes""><Description dt:dt=""string"">E-Prime Primary Realtime Clock</Description><StartTime><Timestamp dt:dt=""int"">0</Timestamp><DateUtc dt:dt=""string"">2015-04-28T16:33:51Z</DateUtc></StartTime><FrequencyChanges><FrequencyChange><Frequency dt:dt=""r8"">2825683</Frequency><Timestamp dt:dt=""r8"">213287891307</Timestamp><Current dt:dt=""r8"">0</Current><DateUtc dt:dt=""string"">2015-04-28T16:33:51Z</DateUtc></FrequencyChange></FrequencyChanges></Clock>\n"	Arrow Flanker 2014-12237-1	60.018	1.0.0.98	1	-1459921193	Professional	2.0.10.353	2.0.10.353	04-28-2015	4/28/2015 4:33:51 PM	12:33:51	2.0.10.248	3	1	1	1	NA	NA	NA	NA	NA	NA	NA	NA	NA	NA	NA	NA	NA	NA	NA	NA	NA	NA	NA	NA	NA	NA	NA	NA	BlockProc	BlockList	NA	69	{LEFTARROW}	NA	-100	2027	neutral	NA	NA	NA	NA	NA	NA	NA	NA	NA	NA	NA	NA	NA	NA	NA	NA	NA	NA	NA	NA	NA	NA	TrialProc	TrialList	1	2	612263	16	0	16	610263	0	1	{LEFTARROW}	-999999	0	611746	0	{LEFTARROW}	515	612261	NA	NA	left	ooloo.bmp	354	0	NA	0	0	0	0	NA	0	0	0	NA	0	0	0	0	NA	0	0	5	1	69
Arrow Flanker 2014	12237	1	"<?xml version=""1.0""?>\n<Clock xmlns:dt=""urn:schemas-microsoft-com:datatypes""><Description dt:dt=""string"">E-Prime Primary Realtime Clock</Description><StartTime><Timestamp dt:dt=""int"">0</Timestamp><DateUtc dt:dt=""string"">2015-04-28T16:33:51Z</DateUtc></StartTime><FrequencyChanges><FrequencyChange><Frequency dt:dt=""r8"">2825683</Frequency><Timestamp dt:dt=""r8"">213287891307</Timestamp><Current dt:dt=""r8"">0</Current><DateUtc dt:dt=""string"">2015-04-28T16:33:51Z</DateUtc></FrequencyChange></FrequencyChanges></Clock>\n"	Arrow Flanker 2014-12237-1	60.018	1.0.0.98	1	-1459921193	Professional	2.0.10.353	2.0.10.353	04-28-2015	4/28/2015 4:33:51 PM	12:33:51	2.0.10.248	3	1	1	1	NA	NA	NA	NA	NA	NA	NA	NA	NA	NA	NA	NA	NA	NA	NA	NA	NA	NA	NA	NA	NA	NA	NA	NA	BlockProc	BlockList	NA	70	{RIGHTARROW}	NA	-100	1864	congruent	NA	NA	NA	NA	NA	NA	NA	NA	NA	NA	NA	NA	NA	NA	NA	NA	NA	NA	NA	NA	1	NA	TrialProc	TrialList	0	5	614762	17	0	17	612796	0	1	{RIGHTARROW}	-999999	0	614245	0	{RIGHTARROW}	512	614757	NA	NA	right	rrrrr.bmp	354	0	NA	-999999	16	615295	0	1	3545	618840	0	NA	0	0	0	0	NA	0	0	2	1	70
Arrow Flanker 2014	12237	1	"<?xml version=""1.0""?>\n<Clock xmlns:dt=""urn:schemas-microsoft-com:datatypes""><Description dt:dt=""string"">E-Prime Primary Realtime Clock</Description><StartTime><Timestamp dt:dt=""int"">0</Timestamp><DateUtc dt:dt=""string"">2015-04-28T16:33:51Z</DateUtc></StartTime><FrequencyChanges><FrequencyChange><Frequency dt:dt=""r8"">2825683</Frequency><Timestamp dt:dt=""r8"">213287891307</Timestamp><Current dt:dt=""r8"">0</Current><DateUtc dt:dt=""string"">2015-04-28T16:33:51Z</DateUtc></FrequencyChange></FrequencyChanges></Clock>\n"	Arrow Flanker 2014-12237-1	60.018	1.0.0.98	1	-1459921193	Professional	2.0.10.353	2.0.10.353	04-28-2015	4/28/2015 4:33:51 PM	12:33:51	2.0.10.248	3	1	1	1	NA	NA	NA	NA	NA	NA	NA	NA	NA	NA	NA	NA	NA	NA	NA	NA	NA	NA	NA	NA	NA	NA	NA	NA	BlockProc	BlockList	NA	71	{LEFTARROW}	NA	-100	1272	incongruent	NA	NA	NA	NA	NA	NA	NA	NA	NA	NA	NA	NA	NA	NA	NA	NA	NA	NA	NA	NA	NA	NA	TrialProc	TrialList	0	14	628258	16	0	15	625875	0	1	{LEFTARROW}	-999999	0	627208	0	{LEFTARROW}	1036	628244	NA	NA	left	rrlrr.bmp	354	0	NA	0	0	0	0	NA	0	0	0	NA	0	0	0	0	NA	0	0	3	1	71
Arrow Flanker 2014	12237	1	"<?xml version=""1.0""?>\n<Clock xmlns:dt=""urn:schemas-microsoft-com:datatypes""><Description dt:dt=""string"">E-Prime Primary Realtime Clock</Description><StartTime><Timestamp dt:dt=""int"">0</Timestamp><DateUtc dt:dt=""string"">2015-04-28T16:33:51Z</DateUtc></StartTime><FrequencyChanges><FrequencyChange><Frequency dt:dt=""r8"">2825683</Frequency><Timestamp dt:dt=""r8"">213287891307</Timestamp><Current dt:dt=""r8"">0</Current><DateUtc dt:dt=""string"">2015-04-28T16:33:51Z</DateUtc></FrequencyChange></FrequencyChanges></Clock>\n"	Arrow Flanker 2014-12237-1	60.018	1.0.0.98	1	-1459921193	Professional	2.0.10.353	2.0.10.353	04-28-2015	4/28/2015 4:33:51 PM	12:33:51	2.0.10.248	3	1	1	1	NA	NA	NA	NA	NA	NA	NA	NA	NA	NA	NA	NA	NA	NA	NA	NA	NA	NA	NA	NA	NA	NA	NA	NA	BlockProc	BlockList	NA	72	{RIGHTARROW}	NA	-100	1097	congruent	NA	NA	NA	NA	NA	NA	NA	NA	NA	NA	NA	NA	NA	NA	NA	NA	NA	NA	NA	NA	NA	NA	TrialProc	TrialList	0	18	630774	16	0	17	628791	0	1	{RIGHTARROW}	-999999	0	630057	0	{RIGHTARROW}	699	630756	NA	NA	right	rrrrr.bmp	354	0	NA	0	0	0	0	NA	0	0	0	NA	0	0	0	0	NA	0	0	2	1	72
Arrow Flanker 2014	12237	1	"<?xml version=""1.0""?>\n<Clock xmlns:dt=""urn:schemas-microsoft-com:datatypes""><Description dt:dt=""string"">E-Prime Primary Realtime Clock</Description><StartTime><Timestamp dt:dt=""int"">0</Timestamp><DateUtc dt:dt=""string"">2015-04-28T16:33:51Z</DateUtc></StartTime><FrequencyChanges><FrequencyChange><Frequency dt:dt=""r8"">2825683</Frequency><Timestamp dt:dt=""r8"">213287891307</Timestamp><Current dt:dt=""r8"">0</Current><DateUtc dt:dt=""string"">2015-04-28T16:33:51Z</DateUtc></FrequencyChange></FrequencyChanges></Clock>\n"	Arrow Flanker 2014-12237-1	60.018	1.0.0.98	1	-1459921193	Professional	2.0.10.353	2.0.10.353	04-28-2015	4/28/2015 4:33:51 PM	12:33:51	2.0.10.248	3	1	1	1	NA	NA	NA	NA	NA	NA	NA	NA	NA	NA	NA	NA	NA	NA	NA	NA	NA	NA	NA	NA	NA	NA	NA	NA	BlockProc	BlockList	NA	73	{LEFTARROW}	NA	-100	1555	congruent	NA	NA	NA	NA	NA	NA	NA	NA	NA	NA	NA	NA	NA	NA	NA	NA	NA	NA	NA	NA	NA	NA	TrialProc	TrialList	0	7	633290	16	0	17	631307	0	1	{LEFTARROW}	-999999	-1	632406	0	{LEFTARROW}	877	633283	NA	NA	left	lllll.bmp	354	0	NA	0	0	0	0	NA	0	0	0	NA	0	0	0	0	NA	0	0	1	1	73
