ExperimentName	Subject	Session	Clock.Information	DataFile.Basename	Display.RefreshRate	ExperimentVersion	Group	RandomSeed	RuntimeCapabilities	RuntimeVersion	RuntimeVersionExpected	SessionDate	SessionStartDateTimeUtc	SessionTime	StudioVersion	Block	BlockList	BlockList.Cycle	BlockList.Sample	Both	CompletelyMW	CongMeanRT	CongTotal	Fragmented	GoodByeList	GoodByeList.Cycle	GoodByeList.Sample	IncongMeanRT	IncongTotal	MapBlockList	MapBlockList.Cycle	MapBlockList.Sample	Mindwandering	MostlyMW	MostlyOT	NeutralMeanRT	NeutralTotal	NumberProbes1	NumberProbes2	OnTask	PracBlockList	PracBlockList.Cycle	PracBlockList.Sample	Procedure[Block]	Running[Block]	Sequential	Trial	CorrectAnswer	CuePositionY	CuePositionY2	DurationOfFixation	FlankerType	MapTrialList	MapTrialList.Cycle	MapTrialList.Sample	PracSlideFixationStart.DurationError	PracSlideFixationStart.OnsetDelay	PracSlideFixationStart.OnsetTime	PracSlideFixationStart.OnsetToOnsetTime	PracSlideTarget.ACC	PracSlideTarget.CRESP	PracSlideTarget.DurationError	PracSlideTarget.OnsetDelay	PracSlideTarget.OnsetTime	PracSlideTarget.OnsetToOnsetTime	PracSlideTarget.RESP	PracSlideTarget.RT	PracSlideTarget.RTTime	PracSlideTarget.Tag	PracTrialList	PracTrialList.Cycle	PracTrialList.Sample	Probe1Resp	Probe2Resp	Procedure[Trial]	Running[Trial]	SlideFixationEnd.DurationError	SlideFixationEnd.OnsetDelay	SlideFixationEnd.OnsetTime	SlideFixationEnd.OnsetToOnsetTime	SlideFixationStart.DurationError	SlideFixationStart.OnsetDelay	SlideFixationStart.OnsetTime	SlideFixationStart.OnsetToOnsetTime	SlideTarget.ACC	SlideTarget.CRESP	SlideTarget.DurationError	SlideTarget.OnsetDelay	SlideTarget.OnsetTime	SlideTarget.OnsetToOnsetTime	SlideTarget.RESP	SlideTarget.RT	SlideTarget.RTTime	SlideTarget.Tag	TargerDirection	TargetDirection	TargetImage	TargetPosition	ThoughtProbe1.ACC	ThoughtProbe1.CRESP	ThoughtProbe1.DurationError	ThoughtProbe1.OnsetDelay	ThoughtProbe1.OnsetTime	ThoughtProbe1.OnsetToOnsetTime	ThoughtProbe1.RESP	ThoughtProbe1.RT	ThoughtProbe1.RTTime	ThoughtProbe2.ACC	ThoughtProbe2.CRESP	ThoughtProbe2.DurationError	ThoughtProbe2.OnsetDelay	ThoughtProbe2.OnsetTime	ThoughtProbe2.OnsetToOnsetTime	ThoughtProbe2.RESP	ThoughtProbe2.RT	ThoughtProbe2.RTTime	TrialList	TrialList.Cycle	TrialList.Sample
Arrow Flanker 2014	12263	1	"<?xml version=""1.0""?>\n<Clock xmlns:dt=""urn:schemas-microsoft-com:datatypes""><Description dt:dt=""string"">E-Prime Primary Realtime Clock</Description><StartTime><Timestamp dt:dt=""int"">0</Timestamp><DateUtc dt:dt=""string"">2015-05-11T19:14:37Z</DateUtc></StartTime><FrequencyChanges><FrequencyChange><Frequency dt:dt=""r8"">2825664</Frequency><Timestamp dt:dt=""r8"">5184709905086</Timestamp><Current dt:dt=""r8"">0</Current><DateUtc dt:dt=""string"">2015-05-11T19:14:37Z</DateUtc></FrequencyChange></FrequencyChanges></Clock>\n"	Arrow Flanker 2014-12263-1	60.018	1.0.0.100	1	684921247	Professional	2.0.10.353	2.0.10.353	05-11-2015	5/11/2015 7:14:37 PM	15:14:37	2.0.10.248	1	NA	NA	NA	NA	NA	NA	NA	NA	NA	NA	NA	NA	NA	1	1	1	NA	NA	NA	NA	NA	NA	NA	NA	NA	NA	NA	MapBlockProc	MapBlockList	NA	1	{RIGHTARROW}	-100	NA	765	NA	2	1	1	0	8	162724	766	0	{RIGHTARROW}	0	0	163990	1700	NA	0	0	NA	NA	NA	NA	NA	NA	MapTrialProc	MapTrialList	NA	NA	NA	NA	NA	NA	NA	NA	NA	NA	NA	NA	NA	NA	NA	NA	NA	NA	right	NA	R.bmp	354	NA	NA	NA	NA	NA	NA	NA	NA	NA	NA	NA	NA	NA	NA	NA	NA	NA	NA	NA	NA	NA
Arrow Flanker 2014	12263	1	"<?xml version=""1.0""?>\n<Clock xmlns:dt=""urn:schemas-microsoft-com:datatypes""><Description dt:dt=""string"">E-Prime Primary Realtime Clock</Description><StartTime><Timestamp dt:dt=""int"">0</Timestamp><DateUtc dt:dt=""string"">2015-05-11T19:14:37Z</DateUtc></StartTime><FrequencyChanges><FrequencyChange><Frequency dt:dt=""r8"">2825664</Frequency><Timestamp dt:dt=""r8"">5184709905086</Timestamp><Current dt:dt=""r8"">0</Current><DateUtc dt:dt=""string"">2015-05-11T19:14:37Z</DateUtc></FrequencyChange></FrequencyChanges></Clock>\n"	Arrow Flanker 2014-12263-1	60.018	1.0.0.100	1	684921247	Professional	2.0.10.353	2.0.10.353	05-11-2015	5/11/2015 7:14:37 PM	15:14:37	2.0.10.248	1	NA	NA	NA	NA	NA	NA	NA	NA	NA	NA	NA	NA	NA	1	1	1	NA	NA	NA	NA	NA	NA	NA	NA	NA	NA	NA	MapBlockProc	MapBlockList	NA	2	{RIGHTARROW}	-100	NA	404	NA	2	1	2	0	16	167206	416	0	{RIGHTARROW}	0	0	168122	1700	NA	0	0	NA	NA	NA	NA	NA	NA	MapTrialProc	MapTrialList	NA	NA	NA	NA	NA	NA	NA	NA	NA	NA	NA	NA	NA	NA	NA	NA	NA	NA	right	NA	R.bmp	354	NA	NA	NA	NA	NA	NA	NA	NA	NA	NA	NA	NA	NA	NA	NA	NA	NA	NA	NA	NA	NA
Arrow Flanker 2014	12263	1	"<?xml version=""1.0""?>\n<Clock xmlns:dt=""urn:schemas-microsoft-com:datatypes""><Description dt:dt=""string"">E-Prime Primary Realtime Clock</Description><StartTime><Timestamp dt:dt=""int"">0</Timestamp><DateUtc dt:dt=""string"">2015-05-11T19:14:37Z</DateUtc></StartTime><FrequencyChanges><FrequencyChange><Frequency dt:dt=""r8"">2825664</Frequency><Timestamp dt:dt=""r8"">5184709905086</Timestamp><Current dt:dt=""r8"">0</Current><DateUtc dt:dt=""string"">2015-05-11T19:14:37Z</DateUtc></FrequencyChange></FrequencyChanges></Clock>\n"	Arrow Flanker 2014-12263-1	60.018	1.0.0.100	1	684921247	Professional	2.0.10.353	2.0.10.353	05-11-2015	5/11/2015 7:14:37 PM	15:14:37	2.0.10.248	1	NA	NA	NA	NA	NA	NA	NA	NA	NA	NA	NA	NA	NA	1	1	1	NA	NA	NA	NA	NA	NA	NA	NA	NA	NA	NA	MapBlockProc	MapBlockList	NA	3	{LEFTARROW}	-100	NA	1083	NA	1	1	3	0	16	171338	1083	0	{LEFTARROW}	0	0	172921	1716	NA	0	0	NA	NA	NA	NA	NA	NA	MapTrialProc	MapTrialList	NA	NA	NA	NA	NA	NA	NA	NA	NA	NA	NA	NA	NA	NA	NA	NA	NA	NA	left	NA	L.bmp	354	NA	NA	NA	NA	NA	NA	NA	NA	NA	NA	NA	NA	NA	NA	NA	NA	NA	NA	NA	NA	NA
Arrow Flanker 2014	12263	1	"<?xml version=""1.0""?>\n<Clock xmlns:dt=""urn:schemas-microsoft-com:datatypes""><Description dt:dt=""string"">E-Prime Primary Realtime Clock</Description><StartTime><Timestamp dt:dt=""int"">0</Timestamp><DateUtc dt:dt=""string"">2015-05-11T19:14:37Z</DateUtc></StartTime><FrequencyChanges><FrequencyChange><Frequency dt:dt=""r8"">2825664</Frequency><Timestamp dt:dt=""r8"">5184709905086</Timestamp><Current dt:dt=""r8"">0</Current><DateUtc dt:dt=""string"">2015-05-11T19:14:37Z</DateUtc></FrequencyChange></FrequencyChanges></Clock>\n"	Arrow Flanker 2014-12263-1	60.018	1.0.0.100	1	684921247	Professional	2.0.10.353	2.0.10.353	05-11-2015	5/11/2015 7:14:37 PM	15:14:37	2.0.10.248	1	NA	NA	NA	NA	NA	NA	NA	NA	NA	NA	NA	NA	NA	1	1	1	NA	NA	NA	NA	NA	NA	NA	NA	NA	NA	NA	MapBlockProc	MapBlockList	NA	4	{LEFTARROW}	-100	NA	939	NA	1	1	4	0	16	176153	950	0	{LEFTARROW}	0	0	177603	1716	NA	0	0	NA	NA	NA	NA	NA	NA	MapTrialProc	MapTrialList	NA	NA	NA	NA	NA	NA	NA	NA	NA	NA	NA	NA	NA	NA	NA	NA	NA	NA	left	NA	L.bmp	354	NA	NA	NA	NA	NA	NA	NA	NA	NA	NA	NA	NA	NA	NA	NA	NA	NA	NA	NA	NA	NA
Arrow Flanker 2014	12263	1	"<?xml version=""1.0""?>\n<Clock xmlns:dt=""urn:schemas-microsoft-com:datatypes""><Description dt:dt=""string"">E-Prime Primary Realtime Clock</Description><StartTime><Timestamp dt:dt=""int"">0</Timestamp><DateUtc dt:dt=""string"">2015-05-11T19:14:37Z</DateUtc></StartTime><FrequencyChanges><FrequencyChange><Frequency dt:dt=""r8"">2825664</Frequency><Timestamp dt:dt=""r8"">5184709905086</Timestamp><Current dt:dt=""r8"">0</Current><DateUtc dt:dt=""string"">2015-05-11T19:14:37Z</DateUtc></FrequencyChange></FrequencyChanges></Clock>\n"	Arrow Flanker 2014-12263-1	60.018	1.0.0.100	1	684921247	Professional	2.0.10.353	2.0.10.353	05-11-2015	5/11/2015 7:14:37 PM	15:14:37	2.0.10.248	1	NA	NA	NA	NA	NA	NA	NA	NA	NA	NA	NA	NA	NA	1	1	1	NA	NA	NA	NA	NA	NA	NA	NA	NA	NA	NA	MapBlockProc	MapBlockList	NA	5	{RIGHTARROW}	-100	NA	505	NA	2	1	5	0	16	180835	517	1	{RIGHTARROW}	-999999	-1	181851	0	{RIGHTARROW}	320	182171	NA	NA	NA	NA	NA	NA	MapTrialProc	MapTrialList	NA	NA	NA	NA	NA	NA	NA	NA	NA	NA	NA	NA	NA	NA	NA	NA	NA	NA	right	NA	R.bmp	354	NA	NA	NA	NA	NA	NA	NA	NA	NA	NA	NA	NA	NA	NA	NA	NA	NA	NA	NA	NA	NA
Arrow Flanker 2014	12263	1	"<?xml version=""1.0""?>\n<Clock xmlns:dt=""urn:schemas-microsoft-com:datatypes""><Description dt:dt=""string"">E-Prime Primary Realtime Clock</Description><StartTime><Timestamp dt:dt=""int"">0</Timestamp><DateUtc dt:dt=""string"">2015-05-11T19:14:37Z</DateUtc></StartTime><FrequencyChanges><FrequencyChange><Frequency dt:dt=""r8"">2825664</Frequency><Timestamp dt:dt=""r8"">5184709905086</Timestamp><Current dt:dt=""r8"">0</Current><DateUtc dt:dt=""string"">2015-05-11T19:14:37Z</DateUtc></FrequencyChange></FrequencyChanges></Clock>\n"	Arrow Flanker 2014-12263-1	60.018	1.0.0.100	1	684921247	Professional	2.0.10.353	2.0.10.353	05-11-2015	5/11/2015 7:14:37 PM	15:14:37	2.0.10.248	1	NA	NA	NA	NA	NA	NA	NA	NA	NA	NA	NA	NA	NA	1	1	1	NA	NA	NA	NA	NA	NA	NA	NA	NA	NA	NA	MapBlockProc	MapBlockList	NA	6	{RIGHTARROW}	-100	NA	1334	NA	2	1	6	0	16	183701	1350	1	{RIGHTARROW}	-999999	16	185567	0	{RIGHTARROW}	412	185979	NA	NA	NA	NA	NA	NA	MapTrialProc	MapTrialList	NA	NA	NA	NA	NA	NA	NA	NA	NA	NA	NA	NA	NA	NA	NA	NA	NA	NA	right	NA	R.bmp	354	NA	NA	NA	NA	NA	NA	NA	NA	NA	NA	NA	NA	NA	NA	NA	NA	NA	NA	NA	NA	NA
Arrow Flanker 2014	12263	1	"<?xml version=""1.0""?>\n<Clock xmlns:dt=""urn:schemas-microsoft-com:datatypes""><Description dt:dt=""string"">E-Prime Primary Realtime Clock</Description><StartTime><Timestamp dt:dt=""int"">0</Timestamp><DateUtc dt:dt=""string"">2015-05-11T19:14:37Z</DateUtc></StartTime><FrequencyChanges><FrequencyChange><Frequency dt:dt=""r8"">2825664</Frequency><Timestamp dt:dt=""r8"">5184709905086</Timestamp><Current dt:dt=""r8"">0</Current><DateUtc dt:dt=""string"">2015-05-11T19:14:37Z</DateUtc></FrequencyChange></FrequencyChanges></Clock>\n"	Arrow Flanker 2014-12263-1	60.018	1.0.0.100	1	684921247	Professional	2.0.10.353	2.0.10.353	05-11-2015	5/11/2015 7:14:37 PM	15:14:37	2.0.10.248	1	NA	NA	NA	NA	NA	NA	NA	NA	NA	NA	NA	NA	NA	1	1	1	NA	NA	NA	NA	NA	NA	NA	NA	NA	NA	NA	MapBlockProc	MapBlockList	NA	7	{RIGHTARROW}	-100	NA	1142	NA	2	1	7	0	16	187516	1150	1	{RIGHTARROW}	-999999	0	189166	0	{RIGHTARROW}	444	189610	NA	NA	NA	NA	NA	NA	MapTrialProc	MapTrialList	NA	NA	NA	NA	NA	NA	NA	NA	NA	NA	NA	NA	NA	NA	NA	NA	NA	NA	right	NA	R.bmp	354	NA	NA	NA	NA	NA	NA	NA	NA	NA	NA	NA	NA	NA	NA	NA	NA	NA	NA	NA	NA	NA
Arrow Flanker 2014	12263	1	"<?xml version=""1.0""?>\n<Clock xmlns:dt=""urn:schemas-microsoft-com:datatypes""><Description dt:dt=""string"">E-Prime Primary Realtime Clock</Description><StartTime><Timestamp dt:dt=""int"">0</Timestamp><DateUtc dt:dt=""string"">2015-05-11T19:14:37Z</DateUtc></StartTime><FrequencyChanges><FrequencyChange><Frequency dt:dt=""r8"">2825664</Frequency><Timestamp dt:dt=""r8"">5184709905086</Timestamp><Current dt:dt=""r8"">0</Current><DateUtc dt:dt=""string"">2015-05-11T19:14:37Z</DateUtc></FrequencyChange></FrequencyChanges></Clock>\n"	Arrow Flanker 2014-12263-1	60.018	1.0.0.100	1	684921247	Professional	2.0.10.353	2.0.10.353	05-11-2015	5/11/2015 7:14:37 PM	15:14:37	2.0.10.248	1	NA	NA	NA	NA	NA	NA	NA	NA	NA	NA	NA	NA	NA	1	1	1	NA	NA	NA	NA	NA	NA	NA	NA	NA	NA	NA	MapBlockProc	MapBlockList	NA	8	{LEFTARROW}	-100	NA	684	NA	1	1	8	0	17	191149	699	1	{LEFTARROW}	-999999	16	192365	0	{LEFTARROW}	317	192682	NA	NA	NA	NA	NA	NA	MapTrialProc	MapTrialList	NA	NA	NA	NA	NA	NA	NA	NA	NA	NA	NA	NA	NA	NA	NA	NA	NA	NA	left	NA	L.bmp	354	NA	NA	NA	NA	NA	NA	NA	NA	NA	NA	NA	NA	NA	NA	NA	NA	NA	NA	NA	NA	NA
Arrow Flanker 2014	12263	1	"<?xml version=""1.0""?>\n<Clock xmlns:dt=""urn:schemas-microsoft-com:datatypes""><Description dt:dt=""string"">E-Prime Primary Realtime Clock</Description><StartTime><Timestamp dt:dt=""int"">0</Timestamp><DateUtc dt:dt=""string"">2015-05-11T19:14:37Z</DateUtc></StartTime><FrequencyChanges><FrequencyChange><Frequency dt:dt=""r8"">2825664</Frequency><Timestamp dt:dt=""r8"">5184709905086</Timestamp><Current dt:dt=""r8"">0</Current><DateUtc dt:dt=""string"">2015-05-11T19:14:37Z</DateUtc></FrequencyChange></FrequencyChanges></Clock>\n"	Arrow Flanker 2014-12263-1	60.018	1.0.0.100	1	684921247	Professional	2.0.10.353	2.0.10.353	05-11-2015	5/11/2015 7:14:37 PM	15:14:37	2.0.10.248	1	NA	NA	NA	NA	NA	NA	NA	NA	NA	NA	NA	NA	NA	1	1	1	NA	NA	NA	NA	NA	NA	NA	NA	NA	NA	NA	MapBlockProc	MapBlockList	NA	9	{LEFTARROW}	-100	NA	1575	NA	1	1	9	0	16	194214	1583	1	{LEFTARROW}	-999999	0	196297	0	{LEFTARROW}	353	196650	NA	NA	NA	NA	NA	NA	MapTrialProc	MapTrialList	NA	NA	NA	NA	NA	NA	NA	NA	NA	NA	NA	NA	NA	NA	NA	NA	NA	NA	left	NA	L.bmp	354	NA	NA	NA	NA	NA	NA	NA	NA	NA	NA	NA	NA	NA	NA	NA	NA	NA	NA	NA	NA	NA
Arrow Flanker 2014	12263	1	"<?xml version=""1.0""?>\n<Clock xmlns:dt=""urn:schemas-microsoft-com:datatypes""><Description dt:dt=""string"">E-Prime Primary Realtime Clock</Description><StartTime><Timestamp dt:dt=""int"">0</Timestamp><DateUtc dt:dt=""string"">2015-05-11T19:14:37Z</DateUtc></StartTime><FrequencyChanges><FrequencyChange><Frequency dt:dt=""r8"">2825664</Frequency><Timestamp dt:dt=""r8"">5184709905086</Timestamp><Current dt:dt=""r8"">0</Current><DateUtc dt:dt=""string"">2015-05-11T19:14:37Z</DateUtc></FrequencyChange></FrequencyChanges></Clock>\n"	Arrow Flanker 2014-12263-1	60.018	1.0.0.100	1	684921247	Professional	2.0.10.353	2.0.10.353	05-11-2015	5/11/2015 7:14:37 PM	15:14:37	2.0.10.248	1	NA	NA	NA	NA	NA	NA	NA	NA	NA	NA	NA	NA	NA	1	1	1	NA	NA	NA	NA	NA	NA	NA	NA	NA	NA	NA	MapBlockProc	MapBlockList	NA	10	{LEFTARROW}	-100	NA	496	NA	1	1	10	0	16	198180	500	1	{LEFTARROW}	-999999	0	199180	0	{LEFTARROW}	446	199626	NA	NA	NA	NA	NA	NA	MapTrialProc	MapTrialList	NA	NA	NA	NA	NA	NA	NA	NA	NA	NA	NA	NA	NA	NA	NA	NA	NA	NA	left	NA	L.bmp	354	NA	NA	NA	NA	NA	NA	NA	NA	NA	NA	NA	NA	NA	NA	NA	NA	NA	NA	NA	NA	NA
Arrow Flanker 2014	12263	1	"<?xml version=""1.0""?>\n<Clock xmlns:dt=""urn:schemas-microsoft-com:datatypes""><Description dt:dt=""string"">E-Prime Primary Realtime Clock</Description><StartTime><Timestamp dt:dt=""int"">0</Timestamp><DateUtc dt:dt=""string"">2015-05-11T19:14:37Z</DateUtc></StartTime><FrequencyChanges><FrequencyChange><Frequency dt:dt=""r8"">2825664</Frequency><Timestamp dt:dt=""r8"">5184709905086</Timestamp><Current dt:dt=""r8"">0</Current><DateUtc dt:dt=""string"">2015-05-11T19:14:37Z</DateUtc></FrequencyChange></FrequencyChanges></Clock>\n"	Arrow Flanker 2014-12263-1	60.018	1.0.0.100	1	684921247	Professional	2.0.10.353	2.0.10.353	05-11-2015	5/11/2015 7:14:37 PM	15:14:37	2.0.10.248	2	NA	NA	NA	NA	NA	NA	NA	NA	NA	NA	NA	NA	NA	NA	NA	NA	NA	NA	NA	NA	NA	NA	NA	NA	1	1	1	PracBlockProc	PracBlockList	NA	1	{RIGHTARROW}	-100	NA	1117	neutral	NA	NA	NA	0	11	227571	1133	1	{RIGHTARROW}	-999999	0	229204	0	{RIGHTARROW}	532	229736	NA	6	1	1	NA	NA	PracTrialProc	PracTrialList	NA	NA	NA	NA	NA	NA	NA	NA	NA	NA	NA	NA	NA	NA	NA	NA	NA	NA	right	NA	ooroo.bmp	354	NA	NA	NA	NA	NA	NA	NA	NA	NA	NA	NA	NA	NA	NA	NA	NA	NA	NA	NA	NA	NA
Arrow Flanker 2014	12263	1	"<?xml version=""1.0""?>\n<Clock xmlns:dt=""urn:schemas-microsoft-com:datatypes""><Description dt:dt=""string"">E-Prime Primary Realtime Clock</Description><StartTime><Timestamp dt:dt=""int"">0</Timestamp><DateUtc dt:dt=""string"">2015-05-11T19:14:37Z</DateUtc></StartTime><FrequencyChanges><FrequencyChange><Frequency dt:dt=""r8"">2825664</Frequency><Timestamp dt:dt=""r8"">5184709905086</Timestamp><Current dt:dt=""r8"">0</Current><DateUtc dt:dt=""string"">2015-05-11T19:14:37Z</DateUtc></FrequencyChange></FrequencyChanges></Clock>\n"	Arrow Flanker 2014-12263-1	60.018	1.0.0.100	1	684921247	Professional	2.0.10.353	2.0.10.353	05-11-2015	5/11/2015 7:14:37 PM	15:14:37	2.0.10.248	2	NA	NA	NA	NA	NA	NA	NA	NA	NA	NA	NA	NA	NA	NA	NA	NA	NA	NA	NA	NA	NA	NA	NA	NA	1	1	1	PracBlockProc	PracBlockList	NA	2	{RIGHTARROW}	-100	NA	1383	congruent	NA	NA	NA	0	16	231270	1383	1	{RIGHTARROW}	-999999	0	233153	0	{RIGHTARROW}	663	233816	NA	4	1	2	NA	NA	PracTrialProc	PracTrialList	NA	NA	NA	NA	NA	NA	NA	NA	NA	NA	NA	NA	NA	NA	NA	NA	NA	NA	right	NA	rrrrr.bmp	354	NA	NA	NA	NA	NA	NA	NA	NA	NA	NA	NA	NA	NA	NA	NA	NA	NA	NA	NA	NA	NA
Arrow Flanker 2014	12263	1	"<?xml version=""1.0""?>\n<Clock xmlns:dt=""urn:schemas-microsoft-com:datatypes""><Description dt:dt=""string"">E-Prime Primary Realtime Clock</Description><StartTime><Timestamp dt:dt=""int"">0</Timestamp><DateUtc dt:dt=""string"">2015-05-11T19:14:37Z</DateUtc></StartTime><FrequencyChanges><FrequencyChange><Frequency dt:dt=""r8"">2825664</Frequency><Timestamp dt:dt=""r8"">5184709905086</Timestamp><Current dt:dt=""r8"">0</Current><DateUtc dt:dt=""string"">2015-05-11T19:14:37Z</DateUtc></FrequencyChange></FrequencyChanges></Clock>\n"	Arrow Flanker 2014-12263-1	60.018	1.0.0.100	1	684921247	Professional	2.0.10.353	2.0.10.353	05-11-2015	5/11/2015 7:14:37 PM	15:14:37	2.0.10.248	2	NA	NA	NA	NA	NA	NA	NA	NA	NA	NA	NA	NA	NA	NA	NA	NA	NA	NA	NA	NA	NA	NA	NA	NA	1	1	1	PracBlockProc	PracBlockList	NA	3	{LEFTARROW}	-100	NA	1334	neutral	NA	NA	NA	0	16	235352	1350	1	{LEFTARROW}	-999999	0	237202	0	{LEFTARROW}	389	237591	NA	3	1	3	NA	NA	PracTrialProc	PracTrialList	NA	NA	NA	NA	NA	NA	NA	NA	NA	NA	NA	NA	NA	NA	NA	NA	NA	NA	left	NA	ooloo.bmp	354	NA	NA	NA	NA	NA	NA	NA	NA	NA	NA	NA	NA	NA	NA	NA	NA	NA	NA	NA	NA	NA
Arrow Flanker 2014	12263	1	"<?xml version=""1.0""?>\n<Clock xmlns:dt=""urn:schemas-microsoft-com:datatypes""><Description dt:dt=""string"">E-Prime Primary Realtime Clock</Description><StartTime><Timestamp dt:dt=""int"">0</Timestamp><DateUtc dt:dt=""string"">2015-05-11T19:14:37Z</DateUtc></StartTime><FrequencyChanges><FrequencyChange><Frequency dt:dt=""r8"">2825664</Frequency><Timestamp dt:dt=""r8"">5184709905086</Timestamp><Current dt:dt=""r8"">0</Current><DateUtc dt:dt=""string"">2015-05-11T19:14:37Z</DateUtc></FrequencyChange></FrequencyChanges></Clock>\n"	Arrow Flanker 2014-12263-1	60.018	1.0.0.100	1	684921247	Professional	2.0.10.353	2.0.10.353	05-11-2015	5/11/2015 7:14:37 PM	15:14:37	2.0.10.248	2	NA	NA	NA	NA	NA	NA	NA	NA	NA	NA	NA	NA	NA	NA	NA	NA	NA	NA	NA	NA	NA	NA	NA	NA	1	1	1	PracBlockProc	PracBlockList	NA	4	{LEFTARROW}	-100	NA	851	congruent	NA	NA	NA	0	17	239118	866	1	{LEFTARROW}	-999999	0	240484	0	{LEFTARROW}	547	241031	NA	1	1	4	NA	NA	PracTrialProc	PracTrialList	NA	NA	NA	NA	NA	NA	NA	NA	NA	NA	NA	NA	NA	NA	NA	NA	NA	NA	left	NA	lllll.bmp	354	NA	NA	NA	NA	NA	NA	NA	NA	NA	NA	NA	NA	NA	NA	NA	NA	NA	NA	NA	NA	NA
Arrow Flanker 2014	12263	1	"<?xml version=""1.0""?>\n<Clock xmlns:dt=""urn:schemas-microsoft-com:datatypes""><Description dt:dt=""string"">E-Prime Primary Realtime Clock</Description><StartTime><Timestamp dt:dt=""int"">0</Timestamp><DateUtc dt:dt=""string"">2015-05-11T19:14:37Z</DateUtc></StartTime><FrequencyChanges><FrequencyChange><Frequency dt:dt=""r8"">2825664</Frequency><Timestamp dt:dt=""r8"">5184709905086</Timestamp><Current dt:dt=""r8"">0</Current><DateUtc dt:dt=""string"">2015-05-11T19:14:37Z</DateUtc></FrequencyChange></FrequencyChanges></Clock>\n"	Arrow Flanker 2014-12263-1	60.018	1.0.0.100	1	684921247	Professional	2.0.10.353	2.0.10.353	05-11-2015	5/11/2015 7:14:37 PM	15:14:37	2.0.10.248	2	NA	NA	NA	NA	NA	NA	NA	NA	NA	NA	NA	NA	NA	NA	NA	NA	NA	NA	NA	NA	NA	NA	NA	NA	1	1	1	PracBlockProc	PracBlockList	NA	5	{LEFTARROW}	-100	NA	613	incongruent	NA	NA	NA	0	17	242567	616	1	{LEFTARROW}	-999999	0	243683	0	{LEFTARROW}	1188	244871	NA	2	1	5	NA	NA	PracTrialProc	PracTrialList	NA	NA	NA	NA	NA	NA	NA	NA	NA	NA	NA	NA	NA	NA	NA	NA	NA	NA	left	NA	rrlrr.bmp	354	NA	NA	NA	NA	NA	NA	NA	NA	NA	NA	NA	NA	NA	NA	NA	NA	NA	NA	NA	NA	NA
Arrow Flanker 2014	12263	1	"<?xml version=""1.0""?>\n<Clock xmlns:dt=""urn:schemas-microsoft-com:datatypes""><Description dt:dt=""string"">E-Prime Primary Realtime Clock</Description><StartTime><Timestamp dt:dt=""int"">0</Timestamp><DateUtc dt:dt=""string"">2015-05-11T19:14:37Z</DateUtc></StartTime><FrequencyChanges><FrequencyChange><Frequency dt:dt=""r8"">2825664</Frequency><Timestamp dt:dt=""r8"">5184709905086</Timestamp><Current dt:dt=""r8"">0</Current><DateUtc dt:dt=""string"">2015-05-11T19:14:37Z</DateUtc></FrequencyChange></FrequencyChanges></Clock>\n"	Arrow Flanker 2014-12263-1	60.018	1.0.0.100	1	684921247	Professional	2.0.10.353	2.0.10.353	05-11-2015	5/11/2015 7:14:37 PM	15:14:37	2.0.10.248	2	NA	NA	NA	NA	NA	NA	NA	NA	NA	NA	NA	NA	NA	NA	NA	NA	NA	NA	NA	NA	NA	NA	NA	NA	1	1	1	PracBlockProc	PracBlockList	NA	6	{RIGHTARROW}	-100	NA	987	incongruent	NA	NA	NA	0	16	246399	1000	1	{RIGHTARROW}	-999999	16	247915	0	{RIGHTARROW}	524	248439	NA	5	1	6	NA	NA	PracTrialProc	PracTrialList	NA	NA	NA	NA	NA	NA	NA	NA	NA	NA	NA	NA	NA	NA	NA	NA	NA	NA	right	NA	llrll.bmp	354	NA	NA	NA	NA	NA	NA	NA	NA	NA	NA	NA	NA	NA	NA	NA	NA	NA	NA	NA	NA	NA
Arrow Flanker 2014	12263	1	"<?xml version=""1.0""?>\n<Clock xmlns:dt=""urn:schemas-microsoft-com:datatypes""><Description dt:dt=""string"">E-Prime Primary Realtime Clock</Description><StartTime><Timestamp dt:dt=""int"">0</Timestamp><DateUtc dt:dt=""string"">2015-05-11T19:14:37Z</DateUtc></StartTime><FrequencyChanges><FrequencyChange><Frequency dt:dt=""r8"">2825664</Frequency><Timestamp dt:dt=""r8"">5184709905086</Timestamp><Current dt:dt=""r8"">0</Current><DateUtc dt:dt=""string"">2015-05-11T19:14:37Z</DateUtc></FrequencyChange></FrequencyChanges></Clock>\n"	Arrow Flanker 2014-12263-1	60.018	1.0.0.100	1	684921247	Professional	2.0.10.353	2.0.10.353	05-11-2015	5/11/2015 7:14:37 PM	15:14:37	2.0.10.248	3	1	1	1	NA	NA	NA	NA	NA	NA	NA	NA	NA	NA	NA	NA	NA	NA	NA	NA	NA	NA	NA	NA	NA	NA	NA	NA	BlockProc	BlockList	NA	1	{LEFTARROW}	NA	-100	1105	congruent	NA	NA	NA	NA	NA	NA	NA	NA	NA	NA	NA	NA	NA	NA	NA	NA	NA	NA	NA	NA	NA	NA	TrialProc	TrialList	0	7	265277	16	0	16	263560	667	1	{LEFTARROW}	-999999	0	264727	0	{LEFTARROW}	543	265270	NA	NA	left	lllll.bmp	354	0	NA	0	0	0	0	NA	0	0	0	NA	0	0	0	0	NA	0	0	1	1	1
Arrow Flanker 2014	12263	1	"<?xml version=""1.0""?>\n<Clock xmlns:dt=""urn:schemas-microsoft-com:datatypes""><Description dt:dt=""string"">E-Prime Primary Realtime Clock</Description><StartTime><Timestamp dt:dt=""int"">0</Timestamp><DateUtc dt:dt=""string"">2015-05-11T19:14:37Z</DateUtc></StartTime><FrequencyChanges><FrequencyChange><Frequency dt:dt=""r8"">2825664</Frequency><Timestamp dt:dt=""r8"">5184709905086</Timestamp><Current dt:dt=""r8"">0</Current><DateUtc dt:dt=""string"">2015-05-11T19:14:37Z</DateUtc></FrequencyChange></FrequencyChanges></Clock>\n"	Arrow Flanker 2014-12263-1	60.018	1.0.0.100	1	684921247	Professional	2.0.10.353	2.0.10.353	05-11-2015	5/11/2015 7:14:37 PM	15:14:37	2.0.10.248	3	1	1	1	NA	NA	NA	NA	NA	NA	NA	NA	NA	NA	NA	NA	NA	NA	NA	NA	NA	NA	NA	NA	NA	NA	NA	NA	BlockProc	BlockList	NA	2	{LEFTARROW}	NA	-100	1524	incongruent	NA	NA	NA	NA	NA	NA	NA	NA	NA	NA	NA	NA	NA	NA	NA	NA	NA	NA	NA	NA	NA	NA	TrialProc	TrialList	1	10	268192	17	0	17	265810	1216	1	{LEFTARROW}	-999999	0	267526	0	{LEFTARROW}	655	268181	NA	NA	left	rrlrr.bmp	354	0	NA	0	0	0	0	NA	0	0	0	NA	0	0	0	0	NA	0	0	3	1	2
Arrow Flanker 2014	12263	1	"<?xml version=""1.0""?>\n<Clock xmlns:dt=""urn:schemas-microsoft-com:datatypes""><Description dt:dt=""string"">E-Prime Primary Realtime Clock</Description><StartTime><Timestamp dt:dt=""int"">0</Timestamp><DateUtc dt:dt=""string"">2015-05-11T19:14:37Z</DateUtc></StartTime><FrequencyChanges><FrequencyChange><Frequency dt:dt=""r8"">2825664</Frequency><Timestamp dt:dt=""r8"">5184709905086</Timestamp><Current dt:dt=""r8"">0</Current><DateUtc dt:dt=""string"">2015-05-11T19:14:37Z</DateUtc></FrequencyChange></FrequencyChanges></Clock>\n"	Arrow Flanker 2014-12263-1	60.018	1.0.0.100	1	684921247	Professional	2.0.10.353	2.0.10.353	05-11-2015	5/11/2015 7:14:37 PM	15:14:37	2.0.10.248	3	1	1	1	NA	NA	NA	NA	NA	NA	NA	NA	NA	NA	NA	NA	NA	NA	NA	NA	NA	NA	NA	NA	NA	NA	NA	NA	BlockProc	BlockList	NA	3	{RIGHTARROW}	NA	-100	831	neutral	NA	NA	NA	NA	NA	NA	NA	NA	NA	NA	NA	NA	NA	NA	NA	NA	NA	NA	NA	NA	NA	NA	TrialProc	TrialList	1	4	270442	16	0	17	268726	649	1	{RIGHTARROW}	-999999	0	269875	0	{RIGHTARROW}	562	270437	NA	NA	right	ooroo.bmp	354	0	NA	0	0	0	0	NA	0	0	0	NA	0	0	0	0	NA	0	0	6	1	3
Arrow Flanker 2014	12263	1	"<?xml version=""1.0""?>\n<Clock xmlns:dt=""urn:schemas-microsoft-com:datatypes""><Description dt:dt=""string"">E-Prime Primary Realtime Clock</Description><StartTime><Timestamp dt:dt=""int"">0</Timestamp><DateUtc dt:dt=""string"">2015-05-11T19:14:37Z</DateUtc></StartTime><FrequencyChanges><FrequencyChange><Frequency dt:dt=""r8"">2825664</Frequency><Timestamp dt:dt=""r8"">5184709905086</Timestamp><Current dt:dt=""r8"">0</Current><DateUtc dt:dt=""string"">2015-05-11T19:14:37Z</DateUtc></FrequencyChange></FrequencyChanges></Clock>\n"	Arrow Flanker 2014-12263-1	60.018	1.0.0.100	1	684921247	Professional	2.0.10.353	2.0.10.353	05-11-2015	5/11/2015 7:14:37 PM	15:14:37	2.0.10.248	3	1	1	1	NA	NA	NA	NA	NA	NA	NA	NA	NA	NA	NA	NA	NA	NA	NA	NA	NA	NA	NA	NA	NA	NA	NA	NA	BlockProc	BlockList	NA	4	{LEFTARROW}	NA	-100	2124	neutral	NA	NA	NA	NA	NA	NA	NA	NA	NA	NA	NA	NA	NA	NA	NA	NA	NA	NA	NA	NA	NA	NA	TrialProc	TrialList	0	15	273124	17	0	17	270975	1149	1	{LEFTARROW}	-999999	0	272624	0	{LEFTARROW}	485	273109	NA	NA	left	ooloo.bmp	354	0	NA	0	0	0	0	NA	0	0	0	NA	0	0	0	0	NA	0	0	5	1	4
Arrow Flanker 2014	12263	1	"<?xml version=""1.0""?>\n<Clock xmlns:dt=""urn:schemas-microsoft-com:datatypes""><Description dt:dt=""string"">E-Prime Primary Realtime Clock</Description><StartTime><Timestamp dt:dt=""int"">0</Timestamp><DateUtc dt:dt=""string"">2015-05-11T19:14:37Z</DateUtc></StartTime><FrequencyChanges><FrequencyChange><Frequency dt:dt=""r8"">2825664</Frequency><Timestamp dt:dt=""r8"">5184709905086</Timestamp><Current dt:dt=""r8"">0</Current><DateUtc dt:dt=""string"">2015-05-11T19:14:37Z</DateUtc></FrequencyChange></FrequencyChanges></Clock>\n"	Arrow Flanker 2014-12263-1	60.018	1.0.0.100	1	684921247	Professional	2.0.10.353	2.0.10.353	05-11-2015	5/11/2015 7:14:37 PM	15:14:37	2.0.10.248	3	1	1	1	NA	NA	NA	NA	NA	NA	NA	NA	NA	NA	NA	NA	NA	NA	NA	NA	NA	NA	NA	NA	NA	NA	NA	NA	BlockProc	BlockList	NA	5	{RIGHTARROW}	NA	-100	1774	congruent	NA	NA	NA	NA	NA	NA	NA	NA	NA	NA	NA	NA	NA	NA	NA	NA	NA	NA	NA	NA	NA	NA	TrialProc	TrialList	1	12	275873	17	0	16	273657	1383	1	{RIGHTARROW}	-999999	0	275540	0	{RIGHTARROW}	321	275861	NA	NA	right	rrrrr.bmp	354	0	NA	0	0	0	0	NA	0	0	0	NA	0	0	0	0	NA	0	0	2	1	5
Arrow Flanker 2014	12263	1	"<?xml version=""1.0""?>\n<Clock xmlns:dt=""urn:schemas-microsoft-com:datatypes""><Description dt:dt=""string"">E-Prime Primary Realtime Clock</Description><StartTime><Timestamp dt:dt=""int"">0</Timestamp><DateUtc dt:dt=""string"">2015-05-11T19:14:37Z</DateUtc></StartTime><FrequencyChanges><FrequencyChange><Frequency dt:dt=""r8"">2825664</Frequency><Timestamp dt:dt=""r8"">5184709905086</Timestamp><Current dt:dt=""r8"">0</Current><DateUtc dt:dt=""string"">2015-05-11T19:14:37Z</DateUtc></FrequencyChange></FrequencyChanges></Clock>\n"	Arrow Flanker 2014-12263-1	60.018	1.0.0.100	1	684921247	Professional	2.0.10.353	2.0.10.353	05-11-2015	5/11/2015 7:14:37 PM	15:14:37	2.0.10.248	3	1	1	1	NA	NA	NA	NA	NA	NA	NA	NA	NA	NA	NA	NA	NA	NA	NA	NA	NA	NA	NA	NA	NA	NA	NA	NA	BlockProc	BlockList	NA	6	{LEFTARROW}	NA	-100	1511	neutral	NA	NA	NA	NA	NA	NA	NA	NA	NA	NA	NA	NA	NA	NA	NA	NA	NA	NA	NA	NA	NA	NA	TrialProc	TrialList	0	14	278723	16	0	16	276406	1450	1	{LEFTARROW}	-999999	0	278356	0	{LEFTARROW}	353	278709	NA	NA	left	ooloo.bmp	354	0	NA	0	0	0	0	NA	0	0	0	NA	0	0	0	0	NA	0	0	5	1	6
Arrow Flanker 2014	12263	1	"<?xml version=""1.0""?>\n<Clock xmlns:dt=""urn:schemas-microsoft-com:datatypes""><Description dt:dt=""string"">E-Prime Primary Realtime Clock</Description><StartTime><Timestamp dt:dt=""int"">0</Timestamp><DateUtc dt:dt=""string"">2015-05-11T19:14:37Z</DateUtc></StartTime><FrequencyChanges><FrequencyChange><Frequency dt:dt=""r8"">2825664</Frequency><Timestamp dt:dt=""r8"">5184709905086</Timestamp><Current dt:dt=""r8"">0</Current><DateUtc dt:dt=""string"">2015-05-11T19:14:37Z</DateUtc></FrequencyChange></FrequencyChanges></Clock>\n"	Arrow Flanker 2014-12263-1	60.018	1.0.0.100	1	684921247	Professional	2.0.10.353	2.0.10.353	05-11-2015	5/11/2015 7:14:37 PM	15:14:37	2.0.10.248	3	1	1	1	NA	NA	NA	NA	NA	NA	NA	NA	NA	NA	NA	NA	NA	NA	NA	NA	NA	NA	NA	NA	NA	NA	NA	NA	BlockProc	BlockList	NA	7	{RIGHTARROW}	NA	-100	1692	congruent	NA	NA	NA	NA	NA	NA	NA	NA	NA	NA	NA	NA	NA	NA	NA	NA	NA	NA	NA	NA	NA	NA	TrialProc	TrialList	0	5	281322	16	0	17	279256	1133	1	{RIGHTARROW}	-999999	-1	280888	0	{RIGHTARROW}	429	281317	NA	NA	right	rrrrr.bmp	354	0	NA	0	0	0	0	NA	0	0	0	NA	0	0	0	0	NA	0	0	2	1	7
Arrow Flanker 2014	12263	1	"<?xml version=""1.0""?>\n<Clock xmlns:dt=""urn:schemas-microsoft-com:datatypes""><Description dt:dt=""string"">E-Prime Primary Realtime Clock</Description><StartTime><Timestamp dt:dt=""int"">0</Timestamp><DateUtc dt:dt=""string"">2015-05-11T19:14:37Z</DateUtc></StartTime><FrequencyChanges><FrequencyChange><Frequency dt:dt=""r8"">2825664</Frequency><Timestamp dt:dt=""r8"">5184709905086</Timestamp><Current dt:dt=""r8"">0</Current><DateUtc dt:dt=""string"">2015-05-11T19:14:37Z</DateUtc></FrequencyChange></FrequencyChanges></Clock>\n"	Arrow Flanker 2014-12263-1	60.018	1.0.0.100	1	684921247	Professional	2.0.10.353	2.0.10.353	05-11-2015	5/11/2015 7:14:37 PM	15:14:37	2.0.10.248	3	1	1	1	NA	NA	NA	NA	NA	NA	NA	NA	NA	NA	NA	NA	NA	NA	NA	NA	NA	NA	NA	NA	NA	NA	NA	NA	BlockProc	BlockList	NA	8	{LEFTARROW}	NA	-100	2042	incongruent	NA	NA	NA	NA	NA	NA	NA	NA	NA	NA	NA	NA	NA	NA	NA	NA	NA	NA	NA	NA	NA	NA	TrialProc	TrialList	1	5	284154	17	0	17	281855	1316	1	{LEFTARROW}	-999999	0	283671	0	{LEFTARROW}	478	284149	NA	NA	left	rrlrr.bmp	354	0	NA	0	0	0	0	NA	0	0	0	NA	0	0	0	0	NA	0	0	3	1	8
Arrow Flanker 2014	12263	1	"<?xml version=""1.0""?>\n<Clock xmlns:dt=""urn:schemas-microsoft-com:datatypes""><Description dt:dt=""string"">E-Prime Primary Realtime Clock</Description><StartTime><Timestamp dt:dt=""int"">0</Timestamp><DateUtc dt:dt=""string"">2015-05-11T19:14:37Z</DateUtc></StartTime><FrequencyChanges><FrequencyChange><Frequency dt:dt=""r8"">2825664</Frequency><Timestamp dt:dt=""r8"">5184709905086</Timestamp><Current dt:dt=""r8"">0</Current><DateUtc dt:dt=""string"">2015-05-11T19:14:37Z</DateUtc></FrequencyChange></FrequencyChanges></Clock>\n"	Arrow Flanker 2014-12263-1	60.018	1.0.0.100	1	684921247	Professional	2.0.10.353	2.0.10.353	05-11-2015	5/11/2015 7:14:37 PM	15:14:37	2.0.10.248	3	1	1	1	NA	NA	NA	NA	NA	NA	NA	NA	NA	NA	NA	NA	NA	NA	NA	NA	NA	NA	NA	NA	NA	NA	NA	NA	BlockProc	BlockList	NA	9	{RIGHTARROW}	NA	-100	1961	incongruent	NA	NA	NA	NA	NA	NA	NA	NA	NA	NA	NA	NA	NA	NA	NA	NA	NA	NA	NA	NA	NA	NA	TrialProc	TrialList	0	16	287237	16	0	16	284687	1450	1	{RIGHTARROW}	-999999	0	286637	0	{RIGHTARROW}	583	287220	NA	NA	right	llrll.bmp	354	0	NA	0	0	0	0	NA	0	0	0	NA	0	0	0	0	NA	0	0	4	1	9
Arrow Flanker 2014	12263	1	"<?xml version=""1.0""?>\n<Clock xmlns:dt=""urn:schemas-microsoft-com:datatypes""><Description dt:dt=""string"">E-Prime Primary Realtime Clock</Description><StartTime><Timestamp dt:dt=""int"">0</Timestamp><DateUtc dt:dt=""string"">2015-05-11T19:14:37Z</DateUtc></StartTime><FrequencyChanges><FrequencyChange><Frequency dt:dt=""r8"">2825664</Frequency><Timestamp dt:dt=""r8"">5184709905086</Timestamp><Current dt:dt=""r8"">0</Current><DateUtc dt:dt=""string"">2015-05-11T19:14:37Z</DateUtc></FrequencyChange></FrequencyChanges></Clock>\n"	Arrow Flanker 2014-12263-1	60.018	1.0.0.100	1	684921247	Professional	2.0.10.353	2.0.10.353	05-11-2015	5/11/2015 7:14:37 PM	15:14:37	2.0.10.248	3	1	1	1	NA	NA	NA	NA	NA	NA	NA	NA	NA	NA	NA	NA	NA	NA	NA	NA	NA	NA	NA	NA	NA	NA	NA	NA	BlockProc	BlockList	NA	10	{LEFTARROW}	NA	-100	1412	congruent	NA	NA	NA	NA	NA	NA	NA	NA	NA	NA	NA	NA	NA	NA	NA	NA	NA	NA	NA	NA	NA	NA	TrialProc	TrialList	1	10	289902	17	0	17	287770	1166	1	{LEFTARROW}	-999999	0	289436	0	{LEFTARROW}	456	289892	NA	NA	left	lllll.bmp	354	0	NA	0	0	0	0	NA	0	0	0	NA	0	0	0	0	NA	0	0	1	1	10
Arrow Flanker 2014	12263	1	"<?xml version=""1.0""?>\n<Clock xmlns:dt=""urn:schemas-microsoft-com:datatypes""><Description dt:dt=""string"">E-Prime Primary Realtime Clock</Description><StartTime><Timestamp dt:dt=""int"">0</Timestamp><DateUtc dt:dt=""string"">2015-05-11T19:14:37Z</DateUtc></StartTime><FrequencyChanges><FrequencyChange><Frequency dt:dt=""r8"">2825664</Frequency><Timestamp dt:dt=""r8"">5184709905086</Timestamp><Current dt:dt=""r8"">0</Current><DateUtc dt:dt=""string"">2015-05-11T19:14:37Z</DateUtc></FrequencyChange></FrequencyChanges></Clock>\n"	Arrow Flanker 2014-12263-1	60.018	1.0.0.100	1	684921247	Professional	2.0.10.353	2.0.10.353	05-11-2015	5/11/2015 7:14:37 PM	15:14:37	2.0.10.248	3	1	1	1	NA	NA	NA	NA	NA	NA	NA	NA	NA	NA	NA	NA	NA	NA	NA	NA	NA	NA	NA	NA	NA	NA	NA	NA	BlockProc	BlockList	NA	11	{RIGHTARROW}	NA	-100	956	incongruent	NA	NA	NA	NA	NA	NA	NA	NA	NA	NA	NA	NA	NA	NA	NA	NA	NA	NA	NA	NA	NA	NA	TrialProc	TrialList	1	5	292185	17	0	17	290436	716	1	{RIGHTARROW}	-999999	0	291652	0	{RIGHTARROW}	528	292180	NA	NA	right	llrll.bmp	354	0	NA	0	0	0	0	NA	0	0	0	NA	0	0	0	0	NA	0	0	4	1	11
Arrow Flanker 2014	12263	1	"<?xml version=""1.0""?>\n<Clock xmlns:dt=""urn:schemas-microsoft-com:datatypes""><Description dt:dt=""string"">E-Prime Primary Realtime Clock</Description><StartTime><Timestamp dt:dt=""int"">0</Timestamp><DateUtc dt:dt=""string"">2015-05-11T19:14:37Z</DateUtc></StartTime><FrequencyChanges><FrequencyChange><Frequency dt:dt=""r8"">2825664</Frequency><Timestamp dt:dt=""r8"">5184709905086</Timestamp><Current dt:dt=""r8"">0</Current><DateUtc dt:dt=""string"">2015-05-11T19:14:37Z</DateUtc></FrequencyChange></FrequencyChanges></Clock>\n"	Arrow Flanker 2014-12263-1	60.018	1.0.0.100	1	684921247	Professional	2.0.10.353	2.0.10.353	05-11-2015	5/11/2015 7:14:37 PM	15:14:37	2.0.10.248	3	1	1	1	NA	NA	NA	NA	NA	NA	NA	NA	NA	NA	NA	NA	NA	NA	NA	NA	NA	NA	NA	NA	NA	NA	NA	NA	BlockProc	BlockList	NA	12	{LEFTARROW}	NA	-100	530	neutral	NA	NA	NA	NA	NA	NA	NA	NA	NA	NA	NA	NA	NA	NA	NA	NA	NA	NA	NA	NA	NA	NA	TrialProc	TrialList	1	19	294151	17	0	16	292718	417	1	{LEFTARROW}	-999999	0	293635	0	{LEFTARROW}	497	294132	NA	NA	left	ooloo.bmp	354	0	NA	0	0	0	0	NA	0	0	0	NA	0	0	0	0	NA	0	0	5	1	12
Arrow Flanker 2014	12263	1	"<?xml version=""1.0""?>\n<Clock xmlns:dt=""urn:schemas-microsoft-com:datatypes""><Description dt:dt=""string"">E-Prime Primary Realtime Clock</Description><StartTime><Timestamp dt:dt=""int"">0</Timestamp><DateUtc dt:dt=""string"">2015-05-11T19:14:37Z</DateUtc></StartTime><FrequencyChanges><FrequencyChange><Frequency dt:dt=""r8"">2825664</Frequency><Timestamp dt:dt=""r8"">5184709905086</Timestamp><Current dt:dt=""r8"">0</Current><DateUtc dt:dt=""string"">2015-05-11T19:14:37Z</DateUtc></FrequencyChange></FrequencyChanges></Clock>\n"	Arrow Flanker 2014-12263-1	60.018	1.0.0.100	1	684921247	Professional	2.0.10.353	2.0.10.353	05-11-2015	5/11/2015 7:14:37 PM	15:14:37	2.0.10.248	3	1	1	1	NA	NA	NA	NA	NA	NA	NA	NA	NA	NA	NA	NA	NA	NA	NA	NA	NA	NA	NA	NA	NA	NA	NA	NA	BlockProc	BlockList	NA	13	{LEFTARROW}	NA	-100	1671	neutral	NA	NA	NA	NA	NA	NA	NA	NA	NA	NA	NA	NA	NA	NA	NA	NA	NA	NA	NA	NA	NA	NA	TrialProc	TrialList	0	14	297234	16	0	16	294684	1583	1	{LEFTARROW}	-999999	0	296767	0	{LEFTARROW}	453	297220	NA	NA	left	ooloo.bmp	354	0	NA	0	0	0	0	NA	0	0	0	NA	0	0	0	0	NA	0	0	5	1	13
Arrow Flanker 2014	12263	1	"<?xml version=""1.0""?>\n<Clock xmlns:dt=""urn:schemas-microsoft-com:datatypes""><Description dt:dt=""string"">E-Prime Primary Realtime Clock</Description><StartTime><Timestamp dt:dt=""int"">0</Timestamp><DateUtc dt:dt=""string"">2015-05-11T19:14:37Z</DateUtc></StartTime><FrequencyChanges><FrequencyChange><Frequency dt:dt=""r8"">2825664</Frequency><Timestamp dt:dt=""r8"">5184709905086</Timestamp><Current dt:dt=""r8"">0</Current><DateUtc dt:dt=""string"">2015-05-11T19:14:37Z</DateUtc></FrequencyChange></FrequencyChanges></Clock>\n"	Arrow Flanker 2014-12263-1	60.018	1.0.0.100	1	684921247	Professional	2.0.10.353	2.0.10.353	05-11-2015	5/11/2015 7:14:37 PM	15:14:37	2.0.10.248	3	1	1	1	NA	NA	NA	NA	NA	NA	NA	NA	NA	NA	NA	NA	NA	NA	NA	NA	NA	NA	NA	NA	NA	NA	NA	NA	BlockProc	BlockList	NA	14	{RIGHTARROW}	NA	-100	539	neutral	NA	NA	NA	NA	NA	NA	NA	NA	NA	NA	NA	NA	NA	NA	NA	NA	NA	NA	NA	NA	NA	NA	TrialProc	TrialList	0	10	299150	16	0	17	297767	450	1	{RIGHTARROW}	-999999	0	298717	0	{RIGHTARROW}	423	299140	NA	NA	right	ooroo.bmp	354	0	NA	0	0	0	0	NA	0	0	0	NA	0	0	0	0	NA	0	0	6	1	14
Arrow Flanker 2014	12263	1	"<?xml version=""1.0""?>\n<Clock xmlns:dt=""urn:schemas-microsoft-com:datatypes""><Description dt:dt=""string"">E-Prime Primary Realtime Clock</Description><StartTime><Timestamp dt:dt=""int"">0</Timestamp><DateUtc dt:dt=""string"">2015-05-11T19:14:37Z</DateUtc></StartTime><FrequencyChanges><FrequencyChange><Frequency dt:dt=""r8"">2825664</Frequency><Timestamp dt:dt=""r8"">5184709905086</Timestamp><Current dt:dt=""r8"">0</Current><DateUtc dt:dt=""string"">2015-05-11T19:14:37Z</DateUtc></FrequencyChange></FrequencyChanges></Clock>\n"	Arrow Flanker 2014-12263-1	60.018	1.0.0.100	1	684921247	Professional	2.0.10.353	2.0.10.353	05-11-2015	5/11/2015 7:14:37 PM	15:14:37	2.0.10.248	3	1	1	1	NA	NA	NA	NA	NA	NA	NA	NA	NA	NA	NA	NA	NA	NA	NA	NA	NA	NA	NA	NA	NA	NA	NA	NA	BlockProc	BlockList	NA	15	{LEFTARROW}	NA	-100	1709	incongruent	NA	NA	NA	NA	NA	NA	NA	NA	NA	NA	NA	NA	NA	NA	NA	NA	NA	NA	NA	NA	NA	NA	TrialProc	TrialList	0	15	302099	16	0	17	299683	1416	1	{LEFTARROW}	-999999	0	301599	0	{LEFTARROW}	484	302083	NA	NA	left	rrlrr.bmp	354	0	NA	0	0	0	0	NA	0	0	0	NA	0	0	0	0	NA	0	0	3	1	15
Arrow Flanker 2014	12263	1	"<?xml version=""1.0""?>\n<Clock xmlns:dt=""urn:schemas-microsoft-com:datatypes""><Description dt:dt=""string"">E-Prime Primary Realtime Clock</Description><StartTime><Timestamp dt:dt=""int"">0</Timestamp><DateUtc dt:dt=""string"">2015-05-11T19:14:37Z</DateUtc></StartTime><FrequencyChanges><FrequencyChange><Frequency dt:dt=""r8"">2825664</Frequency><Timestamp dt:dt=""r8"">5184709905086</Timestamp><Current dt:dt=""r8"">0</Current><DateUtc dt:dt=""string"">2015-05-11T19:14:37Z</DateUtc></FrequencyChange></FrequencyChanges></Clock>\n"	Arrow Flanker 2014-12263-1	60.018	1.0.0.100	1	684921247	Professional	2.0.10.353	2.0.10.353	05-11-2015	5/11/2015 7:14:37 PM	15:14:37	2.0.10.248	3	1	1	1	NA	NA	NA	NA	NA	NA	NA	NA	NA	NA	NA	NA	NA	NA	NA	NA	NA	NA	NA	NA	NA	NA	NA	NA	BlockProc	BlockList	NA	16	{LEFTARROW}	NA	-100	1955	congruent	NA	NA	NA	NA	NA	NA	NA	NA	NA	NA	NA	NA	NA	NA	NA	NA	NA	NA	NA	NA	NA	NA	TrialProc	TrialList	0	18	304965	16	0	17	302632	1400	1	{LEFTARROW}	-999999	0	304532	0	{LEFTARROW}	415	304947	NA	NA	left	lllll.bmp	354	0	NA	0	0	0	0	NA	0	0	0	NA	0	0	0	0	NA	0	0	1	1	16
Arrow Flanker 2014	12263	1	"<?xml version=""1.0""?>\n<Clock xmlns:dt=""urn:schemas-microsoft-com:datatypes""><Description dt:dt=""string"">E-Prime Primary Realtime Clock</Description><StartTime><Timestamp dt:dt=""int"">0</Timestamp><DateUtc dt:dt=""string"">2015-05-11T19:14:37Z</DateUtc></StartTime><FrequencyChanges><FrequencyChange><Frequency dt:dt=""r8"">2825664</Frequency><Timestamp dt:dt=""r8"">5184709905086</Timestamp><Current dt:dt=""r8"">0</Current><DateUtc dt:dt=""string"">2015-05-11T19:14:37Z</DateUtc></FrequencyChange></FrequencyChanges></Clock>\n"	Arrow Flanker 2014-12263-1	60.018	1.0.0.100	1	684921247	Professional	2.0.10.353	2.0.10.353	05-11-2015	5/11/2015 7:14:37 PM	15:14:37	2.0.10.248	3	1	1	1	NA	NA	NA	NA	NA	NA	NA	NA	NA	NA	NA	NA	NA	NA	NA	NA	NA	NA	NA	NA	NA	NA	NA	NA	BlockProc	BlockList	NA	17	{LEFTARROW}	NA	-100	1212	congruent	NA	NA	NA	NA	NA	NA	NA	NA	NA	NA	NA	NA	NA	NA	NA	NA	NA	NA	NA	NA	NA	NA	TrialProc	TrialList	0	16	306931	16	0	17	305498	550	1	{LEFTARROW}	-999999	0	306548	0	{LEFTARROW}	367	306915	NA	NA	left	lllll.bmp	354	0	NA	0	0	0	0	NA	0	0	0	NA	0	0	0	0	NA	0	0	1	1	17
Arrow Flanker 2014	12263	1	"<?xml version=""1.0""?>\n<Clock xmlns:dt=""urn:schemas-microsoft-com:datatypes""><Description dt:dt=""string"">E-Prime Primary Realtime Clock</Description><StartTime><Timestamp dt:dt=""int"">0</Timestamp><DateUtc dt:dt=""string"">2015-05-11T19:14:37Z</DateUtc></StartTime><FrequencyChanges><FrequencyChange><Frequency dt:dt=""r8"">2825664</Frequency><Timestamp dt:dt=""r8"">5184709905086</Timestamp><Current dt:dt=""r8"">0</Current><DateUtc dt:dt=""string"">2015-05-11T19:14:37Z</DateUtc></FrequencyChange></FrequencyChanges></Clock>\n"	Arrow Flanker 2014-12263-1	60.018	1.0.0.100	1	684921247	Professional	2.0.10.353	2.0.10.353	05-11-2015	5/11/2015 7:14:37 PM	15:14:37	2.0.10.248	3	1	1	1	NA	NA	NA	NA	NA	NA	NA	NA	NA	NA	NA	NA	NA	NA	NA	NA	NA	NA	NA	NA	NA	NA	NA	NA	BlockProc	BlockList	NA	18	{LEFTARROW}	NA	-100	1277	congruent	NA	NA	NA	NA	NA	NA	NA	NA	NA	NA	NA	NA	NA	NA	NA	NA	NA	NA	NA	NA	NA	NA	TrialProc	TrialList	1	12	308863	17	0	17	307464	433	1	{LEFTARROW}	-999999	0	308397	0	{LEFTARROW}	454	308851	NA	NA	left	lllll.bmp	354	0	NA	0	0	0	0	NA	0	0	0	NA	0	0	0	0	NA	0	0	1	1	18
Arrow Flanker 2014	12263	1	"<?xml version=""1.0""?>\n<Clock xmlns:dt=""urn:schemas-microsoft-com:datatypes""><Description dt:dt=""string"">E-Prime Primary Realtime Clock</Description><StartTime><Timestamp dt:dt=""int"">0</Timestamp><DateUtc dt:dt=""string"">2015-05-11T19:14:37Z</DateUtc></StartTime><FrequencyChanges><FrequencyChange><Frequency dt:dt=""r8"">2825664</Frequency><Timestamp dt:dt=""r8"">5184709905086</Timestamp><Current dt:dt=""r8"">0</Current><DateUtc dt:dt=""string"">2015-05-11T19:14:37Z</DateUtc></FrequencyChange></FrequencyChanges></Clock>\n"	Arrow Flanker 2014-12263-1	60.018	1.0.0.100	1	684921247	Professional	2.0.10.353	2.0.10.353	05-11-2015	5/11/2015 7:14:37 PM	15:14:37	2.0.10.248	3	1	1	1	NA	NA	NA	NA	NA	NA	NA	NA	NA	NA	NA	NA	NA	NA	NA	NA	NA	NA	NA	NA	NA	NA	NA	NA	BlockProc	BlockList	NA	19	{LEFTARROW}	NA	-100	2152	incongruent	NA	NA	NA	NA	NA	NA	NA	NA	NA	NA	NA	NA	NA	NA	NA	NA	NA	NA	NA	NA	NA	NA	TrialProc	TrialList	0	9	311596	17	0	17	309397	1166	1	{LEFTARROW}	-999999	0	311063	0	{LEFTARROW}	524	311587	NA	NA	left	rrlrr.bmp	354	0	NA	0	0	0	0	NA	0	0	0	NA	0	0	0	0	NA	0	0	3	1	19
Arrow Flanker 2014	12263	1	"<?xml version=""1.0""?>\n<Clock xmlns:dt=""urn:schemas-microsoft-com:datatypes""><Description dt:dt=""string"">E-Prime Primary Realtime Clock</Description><StartTime><Timestamp dt:dt=""int"">0</Timestamp><DateUtc dt:dt=""string"">2015-05-11T19:14:37Z</DateUtc></StartTime><FrequencyChanges><FrequencyChange><Frequency dt:dt=""r8"">2825664</Frequency><Timestamp dt:dt=""r8"">5184709905086</Timestamp><Current dt:dt=""r8"">0</Current><DateUtc dt:dt=""string"">2015-05-11T19:14:37Z</DateUtc></FrequencyChange></FrequencyChanges></Clock>\n"	Arrow Flanker 2014-12263-1	60.018	1.0.0.100	1	684921247	Professional	2.0.10.353	2.0.10.353	05-11-2015	5/11/2015 7:14:37 PM	15:14:37	2.0.10.248	3	1	1	1	NA	NA	NA	NA	NA	NA	NA	NA	NA	NA	NA	NA	NA	NA	NA	NA	NA	NA	NA	NA	NA	NA	NA	NA	BlockProc	BlockList	NA	20	{LEFTARROW}	NA	-100	2307	incongruent	NA	NA	NA	NA	NA	NA	NA	NA	NA	NA	NA	NA	NA	NA	NA	NA	NA	NA	NA	NA	NA	NA	TrialProc	TrialList	1	8	314395	17	0	16	312129	1217	1	{LEFTARROW}	-999999	0	313845	0	{LEFTARROW}	542	314387	NA	NA	left	rrlrr.bmp	354	0	NA	0	0	0	0	NA	0	0	0	NA	0	0	0	0	NA	0	0	3	1	20
Arrow Flanker 2014	12263	1	"<?xml version=""1.0""?>\n<Clock xmlns:dt=""urn:schemas-microsoft-com:datatypes""><Description dt:dt=""string"">E-Prime Primary Realtime Clock</Description><StartTime><Timestamp dt:dt=""int"">0</Timestamp><DateUtc dt:dt=""string"">2015-05-11T19:14:37Z</DateUtc></StartTime><FrequencyChanges><FrequencyChange><Frequency dt:dt=""r8"">2825664</Frequency><Timestamp dt:dt=""r8"">5184709905086</Timestamp><Current dt:dt=""r8"">0</Current><DateUtc dt:dt=""string"">2015-05-11T19:14:37Z</DateUtc></FrequencyChange></FrequencyChanges></Clock>\n"	Arrow Flanker 2014-12263-1	60.018	1.0.0.100	1	684921247	Professional	2.0.10.353	2.0.10.353	05-11-2015	5/11/2015 7:14:37 PM	15:14:37	2.0.10.248	3	1	1	1	NA	NA	NA	NA	NA	NA	NA	NA	NA	NA	NA	NA	NA	NA	NA	NA	NA	NA	NA	NA	NA	NA	NA	NA	BlockProc	BlockList	NA	21	{LEFTARROW}	NA	-100	1131	incongruent	NA	NA	NA	NA	NA	NA	NA	NA	NA	NA	NA	NA	NA	NA	NA	NA	NA	NA	NA	NA	NA	NA	TrialProc	TrialList	0	6	316761	17	0	16	314928	750	1	{LEFTARROW}	-999999	0	316178	0	{LEFTARROW}	577	316755	NA	NA	left	rrlrr.bmp	354	0	NA	0	0	0	0	NA	0	0	0	NA	0	0	0	0	NA	0	0	3	1	21
Arrow Flanker 2014	12263	1	"<?xml version=""1.0""?>\n<Clock xmlns:dt=""urn:schemas-microsoft-com:datatypes""><Description dt:dt=""string"">E-Prime Primary Realtime Clock</Description><StartTime><Timestamp dt:dt=""int"">0</Timestamp><DateUtc dt:dt=""string"">2015-05-11T19:14:37Z</DateUtc></StartTime><FrequencyChanges><FrequencyChange><Frequency dt:dt=""r8"">2825664</Frequency><Timestamp dt:dt=""r8"">5184709905086</Timestamp><Current dt:dt=""r8"">0</Current><DateUtc dt:dt=""string"">2015-05-11T19:14:37Z</DateUtc></FrequencyChange></FrequencyChanges></Clock>\n"	Arrow Flanker 2014-12263-1	60.018	1.0.0.100	1	684921247	Professional	2.0.10.353	2.0.10.353	05-11-2015	5/11/2015 7:14:37 PM	15:14:37	2.0.10.248	3	1	1	1	NA	NA	NA	NA	NA	NA	NA	NA	NA	NA	NA	NA	NA	NA	NA	NA	NA	NA	NA	NA	NA	NA	NA	NA	BlockProc	BlockList	NA	22	{RIGHTARROW}	NA	-100	1196	incongruent	NA	NA	NA	NA	NA	NA	NA	NA	NA	NA	NA	NA	NA	NA	NA	NA	NA	NA	NA	NA	2	2	TrialProc	TrialList	1	19	319110	17	0	16	317294	683	1	{RIGHTARROW}	-999999	0	318477	0	{RIGHTARROW}	613	319090	NA	NA	right	llrll.bmp	354	0	NA	-999999	17	319644	0	1	4863	324507	0	NA	-999999	18	324525	0	1	3997	328522	4	1	22
Arrow Flanker 2014	12263	1	"<?xml version=""1.0""?>\n<Clock xmlns:dt=""urn:schemas-microsoft-com:datatypes""><Description dt:dt=""string"">E-Prime Primary Realtime Clock</Description><StartTime><Timestamp dt:dt=""int"">0</Timestamp><DateUtc dt:dt=""string"">2015-05-11T19:14:37Z</DateUtc></StartTime><FrequencyChanges><FrequencyChange><Frequency dt:dt=""r8"">2825664</Frequency><Timestamp dt:dt=""r8"">5184709905086</Timestamp><Current dt:dt=""r8"">0</Current><DateUtc dt:dt=""string"">2015-05-11T19:14:37Z</DateUtc></FrequencyChange></FrequencyChanges></Clock>\n"	Arrow Flanker 2014-12263-1	60.018	1.0.0.100	1	684921247	Professional	2.0.10.353	2.0.10.353	05-11-2015	5/11/2015 7:14:37 PM	15:14:37	2.0.10.248	3	1	1	1	NA	NA	NA	NA	NA	NA	NA	NA	NA	NA	NA	NA	NA	NA	NA	NA	NA	NA	NA	NA	NA	NA	NA	NA	BlockProc	BlockList	NA	23	{RIGHTARROW}	NA	-100	1842	congruent	NA	NA	NA	NA	NA	NA	NA	NA	NA	NA	NA	NA	NA	NA	NA	NA	NA	NA	NA	NA	NA	NA	TrialProc	TrialList	1	16	332706	17	0	23	330041	1599	1	{RIGHTARROW}	-999999	0	332140	0	{RIGHTARROW}	550	332690	NA	NA	right	rrrrr.bmp	354	0	NA	0	0	0	0	NA	0	0	0	NA	0	0	0	0	NA	0	0	2	1	23
Arrow Flanker 2014	12263	1	"<?xml version=""1.0""?>\n<Clock xmlns:dt=""urn:schemas-microsoft-com:datatypes""><Description dt:dt=""string"">E-Prime Primary Realtime Clock</Description><StartTime><Timestamp dt:dt=""int"">0</Timestamp><DateUtc dt:dt=""string"">2015-05-11T19:14:37Z</DateUtc></StartTime><FrequencyChanges><FrequencyChange><Frequency dt:dt=""r8"">2825664</Frequency><Timestamp dt:dt=""r8"">5184709905086</Timestamp><Current dt:dt=""r8"">0</Current><DateUtc dt:dt=""string"">2015-05-11T19:14:37Z</DateUtc></FrequencyChange></FrequencyChanges></Clock>\n"	Arrow Flanker 2014-12263-1	60.018	1.0.0.100	1	684921247	Professional	2.0.10.353	2.0.10.353	05-11-2015	5/11/2015 7:14:37 PM	15:14:37	2.0.10.248	3	1	1	1	NA	NA	NA	NA	NA	NA	NA	NA	NA	NA	NA	NA	NA	NA	NA	NA	NA	NA	NA	NA	NA	NA	NA	NA	BlockProc	BlockList	NA	24	{RIGHTARROW}	NA	-100	1291	neutral	NA	NA	NA	NA	NA	NA	NA	NA	NA	NA	NA	NA	NA	NA	NA	NA	NA	NA	NA	NA	NA	NA	TrialProc	TrialList	0	17	335539	17	0	17	333240	1116	1	{RIGHTARROW}	-999999	0	334856	0	{RIGHTARROW}	665	335521	NA	NA	right	ooroo.bmp	354	0	NA	0	0	0	0	NA	0	0	0	NA	0	0	0	0	NA	0	0	6	1	24
Arrow Flanker 2014	12263	1	"<?xml version=""1.0""?>\n<Clock xmlns:dt=""urn:schemas-microsoft-com:datatypes""><Description dt:dt=""string"">E-Prime Primary Realtime Clock</Description><StartTime><Timestamp dt:dt=""int"">0</Timestamp><DateUtc dt:dt=""string"">2015-05-11T19:14:37Z</DateUtc></StartTime><FrequencyChanges><FrequencyChange><Frequency dt:dt=""r8"">2825664</Frequency><Timestamp dt:dt=""r8"">5184709905086</Timestamp><Current dt:dt=""r8"">0</Current><DateUtc dt:dt=""string"">2015-05-11T19:14:37Z</DateUtc></FrequencyChange></FrequencyChanges></Clock>\n"	Arrow Flanker 2014-12263-1	60.018	1.0.0.100	1	684921247	Professional	2.0.10.353	2.0.10.353	05-11-2015	5/11/2015 7:14:37 PM	15:14:37	2.0.10.248	3	1	1	1	NA	NA	NA	NA	NA	NA	NA	NA	NA	NA	NA	NA	NA	NA	NA	NA	NA	NA	NA	NA	NA	NA	NA	NA	BlockProc	BlockList	NA	25	{RIGHTARROW}	NA	-100	1323	neutral	NA	NA	NA	NA	NA	NA	NA	NA	NA	NA	NA	NA	NA	NA	NA	NA	NA	NA	NA	NA	NA	NA	TrialProc	TrialList	1	8	338121	17	0	16	336072	1116	1	{RIGHTARROW}	-999999	0	337688	0	{RIGHTARROW}	425	338113	NA	NA	right	ooroo.bmp	354	0	NA	0	0	0	0	NA	0	0	0	NA	0	0	0	0	NA	0	0	6	1	25
Arrow Flanker 2014	12263	1	"<?xml version=""1.0""?>\n<Clock xmlns:dt=""urn:schemas-microsoft-com:datatypes""><Description dt:dt=""string"">E-Prime Primary Realtime Clock</Description><StartTime><Timestamp dt:dt=""int"">0</Timestamp><DateUtc dt:dt=""string"">2015-05-11T19:14:37Z</DateUtc></StartTime><FrequencyChanges><FrequencyChange><Frequency dt:dt=""r8"">2825664</Frequency><Timestamp dt:dt=""r8"">5184709905086</Timestamp><Current dt:dt=""r8"">0</Current><DateUtc dt:dt=""string"">2015-05-11T19:14:37Z</DateUtc></FrequencyChange></FrequencyChanges></Clock>\n"	Arrow Flanker 2014-12263-1	60.018	1.0.0.100	1	684921247	Professional	2.0.10.353	2.0.10.353	05-11-2015	5/11/2015 7:14:37 PM	15:14:37	2.0.10.248	3	1	1	1	NA	NA	NA	NA	NA	NA	NA	NA	NA	NA	NA	NA	NA	NA	NA	NA	NA	NA	NA	NA	NA	NA	NA	NA	BlockProc	BlockList	NA	26	{RIGHTARROW}	NA	-100	1550	congruent	NA	NA	NA	NA	NA	NA	NA	NA	NA	NA	NA	NA	NA	NA	NA	NA	NA	NA	NA	NA	NA	NA	TrialProc	TrialList	0	8	340921	16	0	17	338655	0	1	{RIGHTARROW}	-999999	0	340404	0	{RIGHTARROW}	509	340913	NA	NA	right	rrrrr.bmp	354	0	NA	0	0	0	0	NA	0	0	0	NA	0	0	0	0	NA	0	0	2	1	26
Arrow Flanker 2014	12263	1	"<?xml version=""1.0""?>\n<Clock xmlns:dt=""urn:schemas-microsoft-com:datatypes""><Description dt:dt=""string"">E-Prime Primary Realtime Clock</Description><StartTime><Timestamp dt:dt=""int"">0</Timestamp><DateUtc dt:dt=""string"">2015-05-11T19:14:37Z</DateUtc></StartTime><FrequencyChanges><FrequencyChange><Frequency dt:dt=""r8"">2825664</Frequency><Timestamp dt:dt=""r8"">5184709905086</Timestamp><Current dt:dt=""r8"">0</Current><DateUtc dt:dt=""string"">2015-05-11T19:14:37Z</DateUtc></FrequencyChange></FrequencyChanges></Clock>\n"	Arrow Flanker 2014-12263-1	60.018	1.0.0.100	1	684921247	Professional	2.0.10.353	2.0.10.353	05-11-2015	5/11/2015 7:14:37 PM	15:14:37	2.0.10.248	3	1	1	1	NA	NA	NA	NA	NA	NA	NA	NA	NA	NA	NA	NA	NA	NA	NA	NA	NA	NA	NA	NA	NA	NA	NA	NA	BlockProc	BlockList	NA	27	{LEFTARROW}	NA	-100	819	neutral	NA	NA	NA	NA	NA	NA	NA	NA	NA	NA	NA	NA	NA	NA	NA	NA	NA	NA	NA	NA	NA	NA	TrialProc	TrialList	1	6	342903	17	0	17	341454	0	1	{LEFTARROW}	-999999	16	342470	0	{LEFTARROW}	427	342897	NA	NA	left	ooloo.bmp	354	0	NA	0	0	0	0	NA	0	0	0	NA	0	0	0	0	NA	0	0	5	1	27
Arrow Flanker 2014	12263	1	"<?xml version=""1.0""?>\n<Clock xmlns:dt=""urn:schemas-microsoft-com:datatypes""><Description dt:dt=""string"">E-Prime Primary Realtime Clock</Description><StartTime><Timestamp dt:dt=""int"">0</Timestamp><DateUtc dt:dt=""string"">2015-05-11T19:14:37Z</DateUtc></StartTime><FrequencyChanges><FrequencyChange><Frequency dt:dt=""r8"">2825664</Frequency><Timestamp dt:dt=""r8"">5184709905086</Timestamp><Current dt:dt=""r8"">0</Current><DateUtc dt:dt=""string"">2015-05-11T19:14:37Z</DateUtc></FrequencyChange></FrequencyChanges></Clock>\n"	Arrow Flanker 2014-12263-1	60.018	1.0.0.100	1	684921247	Professional	2.0.10.353	2.0.10.353	05-11-2015	5/11/2015 7:14:37 PM	15:14:37	2.0.10.248	3	1	1	1	NA	NA	NA	NA	NA	NA	NA	NA	NA	NA	NA	NA	NA	NA	NA	NA	NA	NA	NA	NA	NA	NA	NA	NA	BlockProc	BlockList	NA	28	{RIGHTARROW}	NA	-100	1068	congruent	NA	NA	NA	NA	NA	NA	NA	NA	NA	NA	NA	NA	NA	NA	NA	NA	NA	NA	NA	NA	NA	NA	TrialProc	TrialList	0	15	345136	17	0	16	343436	0	1	{RIGHTARROW}	-999999	0	344653	0	{RIGHTARROW}	468	345121	NA	NA	right	rrrrr.bmp	354	0	NA	0	0	0	0	NA	0	0	0	NA	0	0	0	0	NA	0	0	2	1	28
Arrow Flanker 2014	12263	1	"<?xml version=""1.0""?>\n<Clock xmlns:dt=""urn:schemas-microsoft-com:datatypes""><Description dt:dt=""string"">E-Prime Primary Realtime Clock</Description><StartTime><Timestamp dt:dt=""int"">0</Timestamp><DateUtc dt:dt=""string"">2015-05-11T19:14:37Z</DateUtc></StartTime><FrequencyChanges><FrequencyChange><Frequency dt:dt=""r8"">2825664</Frequency><Timestamp dt:dt=""r8"">5184709905086</Timestamp><Current dt:dt=""r8"">0</Current><DateUtc dt:dt=""string"">2015-05-11T19:14:37Z</DateUtc></FrequencyChange></FrequencyChanges></Clock>\n"	Arrow Flanker 2014-12263-1	60.018	1.0.0.100	1	684921247	Professional	2.0.10.353	2.0.10.353	05-11-2015	5/11/2015 7:14:37 PM	15:14:37	2.0.10.248	3	1	1	1	NA	NA	NA	NA	NA	NA	NA	NA	NA	NA	NA	NA	NA	NA	NA	NA	NA	NA	NA	NA	NA	NA	NA	NA	BlockProc	BlockList	NA	29	{LEFTARROW}	NA	-100	1209	neutral	NA	NA	NA	NA	NA	NA	NA	NA	NA	NA	NA	NA	NA	NA	NA	NA	NA	NA	NA	NA	NA	NA	TrialProc	TrialList	0	16	347169	16	0	16	345669	0	1	{LEFTARROW}	-999999	0	346736	0	{LEFTARROW}	417	347153	NA	NA	left	ooloo.bmp	354	0	NA	0	0	0	0	NA	0	0	0	NA	0	0	0	0	NA	0	0	5	1	29
Arrow Flanker 2014	12263	1	"<?xml version=""1.0""?>\n<Clock xmlns:dt=""urn:schemas-microsoft-com:datatypes""><Description dt:dt=""string"">E-Prime Primary Realtime Clock</Description><StartTime><Timestamp dt:dt=""int"">0</Timestamp><DateUtc dt:dt=""string"">2015-05-11T19:14:37Z</DateUtc></StartTime><FrequencyChanges><FrequencyChange><Frequency dt:dt=""r8"">2825664</Frequency><Timestamp dt:dt=""r8"">5184709905086</Timestamp><Current dt:dt=""r8"">0</Current><DateUtc dt:dt=""string"">2015-05-11T19:14:37Z</DateUtc></FrequencyChange></FrequencyChanges></Clock>\n"	Arrow Flanker 2014-12263-1	60.018	1.0.0.100	1	684921247	Professional	2.0.10.353	2.0.10.353	05-11-2015	5/11/2015 7:14:37 PM	15:14:37	2.0.10.248	3	1	1	1	NA	NA	NA	NA	NA	NA	NA	NA	NA	NA	NA	NA	NA	NA	NA	NA	NA	NA	NA	NA	NA	NA	NA	NA	BlockProc	BlockList	NA	30	{LEFTARROW}	NA	-100	1818	incongruent	NA	NA	NA	NA	NA	NA	NA	NA	NA	NA	NA	NA	NA	NA	NA	NA	NA	NA	NA	NA	NA	NA	TrialProc	TrialList	1	5	350534	17	0	17	347702	0	1	{LEFTARROW}	-999999	0	349685	0	{LEFTARROW}	844	350529	NA	NA	left	rrlrr.bmp	354	0	NA	0	0	0	0	NA	0	0	0	NA	0	0	0	0	NA	0	0	3	1	30
Arrow Flanker 2014	12263	1	"<?xml version=""1.0""?>\n<Clock xmlns:dt=""urn:schemas-microsoft-com:datatypes""><Description dt:dt=""string"">E-Prime Primary Realtime Clock</Description><StartTime><Timestamp dt:dt=""int"">0</Timestamp><DateUtc dt:dt=""string"">2015-05-11T19:14:37Z</DateUtc></StartTime><FrequencyChanges><FrequencyChange><Frequency dt:dt=""r8"">2825664</Frequency><Timestamp dt:dt=""r8"">5184709905086</Timestamp><Current dt:dt=""r8"">0</Current><DateUtc dt:dt=""string"">2015-05-11T19:14:37Z</DateUtc></FrequencyChange></FrequencyChanges></Clock>\n"	Arrow Flanker 2014-12263-1	60.018	1.0.0.100	1	684921247	Professional	2.0.10.353	2.0.10.353	05-11-2015	5/11/2015 7:14:37 PM	15:14:37	2.0.10.248	3	1	1	1	NA	NA	NA	NA	NA	NA	NA	NA	NA	NA	NA	NA	NA	NA	NA	NA	NA	NA	NA	NA	NA	NA	NA	NA	BlockProc	BlockList	NA	31	{LEFTARROW}	NA	-100	1942	incongruent	NA	NA	NA	NA	NA	NA	NA	NA	NA	NA	NA	NA	NA	NA	NA	NA	NA	NA	NA	NA	NA	NA	TrialProc	TrialList	0	7	353384	16	0	17	351068	0	1	{LEFTARROW}	-999999	0	352767	0	{LEFTARROW}	609	353376	NA	NA	left	rrlrr.bmp	354	0	NA	0	0	0	0	NA	0	0	0	NA	0	0	0	0	NA	0	0	3	1	31
Arrow Flanker 2014	12263	1	"<?xml version=""1.0""?>\n<Clock xmlns:dt=""urn:schemas-microsoft-com:datatypes""><Description dt:dt=""string"">E-Prime Primary Realtime Clock</Description><StartTime><Timestamp dt:dt=""int"">0</Timestamp><DateUtc dt:dt=""string"">2015-05-11T19:14:37Z</DateUtc></StartTime><FrequencyChanges><FrequencyChange><Frequency dt:dt=""r8"">2825664</Frequency><Timestamp dt:dt=""r8"">5184709905086</Timestamp><Current dt:dt=""r8"">0</Current><DateUtc dt:dt=""string"">2015-05-11T19:14:37Z</DateUtc></FrequencyChange></FrequencyChanges></Clock>\n"	Arrow Flanker 2014-12263-1	60.018	1.0.0.100	1	684921247	Professional	2.0.10.353	2.0.10.353	05-11-2015	5/11/2015 7:14:37 PM	15:14:37	2.0.10.248	3	1	1	1	NA	NA	NA	NA	NA	NA	NA	NA	NA	NA	NA	NA	NA	NA	NA	NA	NA	NA	NA	NA	NA	NA	NA	NA	BlockProc	BlockList	NA	32	{RIGHTARROW}	NA	-100	1988	neutral	NA	NA	NA	NA	NA	NA	NA	NA	NA	NA	NA	NA	NA	NA	NA	NA	NA	NA	NA	NA	NA	NA	TrialProc	TrialList	0	9	355833	16	0	17	353917	0	1	{RIGHTARROW}	-999999	0	355233	0	{RIGHTARROW}	591	355824	NA	NA	right	ooroo.bmp	354	0	NA	0	0	0	0	NA	0	0	0	NA	0	0	0	0	NA	0	0	6	1	32
Arrow Flanker 2014	12263	1	"<?xml version=""1.0""?>\n<Clock xmlns:dt=""urn:schemas-microsoft-com:datatypes""><Description dt:dt=""string"">E-Prime Primary Realtime Clock</Description><StartTime><Timestamp dt:dt=""int"">0</Timestamp><DateUtc dt:dt=""string"">2015-05-11T19:14:37Z</DateUtc></StartTime><FrequencyChanges><FrequencyChange><Frequency dt:dt=""r8"">2825664</Frequency><Timestamp dt:dt=""r8"">5184709905086</Timestamp><Current dt:dt=""r8"">0</Current><DateUtc dt:dt=""string"">2015-05-11T19:14:37Z</DateUtc></FrequencyChange></FrequencyChanges></Clock>\n"	Arrow Flanker 2014-12263-1	60.018	1.0.0.100	1	684921247	Professional	2.0.10.353	2.0.10.353	05-11-2015	5/11/2015 7:14:37 PM	15:14:37	2.0.10.248	3	1	1	1	NA	NA	NA	NA	NA	NA	NA	NA	NA	NA	NA	NA	NA	NA	NA	NA	NA	NA	NA	NA	NA	NA	NA	NA	BlockProc	BlockList	NA	33	{RIGHTARROW}	NA	-100	644	congruent	NA	NA	NA	NA	NA	NA	NA	NA	NA	NA	NA	NA	NA	NA	NA	NA	NA	NA	NA	NA	NA	NA	TrialProc	TrialList	1	9	358265	17	0	17	356366	0	1	{RIGHTARROW}	-999999	0	357499	0	{RIGHTARROW}	757	358256	NA	NA	right	rrrrr.bmp	354	0	NA	0	0	0	0	NA	0	0	0	NA	0	0	0	0	NA	0	0	2	1	33
Arrow Flanker 2014	12263	1	"<?xml version=""1.0""?>\n<Clock xmlns:dt=""urn:schemas-microsoft-com:datatypes""><Description dt:dt=""string"">E-Prime Primary Realtime Clock</Description><StartTime><Timestamp dt:dt=""int"">0</Timestamp><DateUtc dt:dt=""string"">2015-05-11T19:14:37Z</DateUtc></StartTime><FrequencyChanges><FrequencyChange><Frequency dt:dt=""r8"">2825664</Frequency><Timestamp dt:dt=""r8"">5184709905086</Timestamp><Current dt:dt=""r8"">0</Current><DateUtc dt:dt=""string"">2015-05-11T19:14:37Z</DateUtc></FrequencyChange></FrequencyChanges></Clock>\n"	Arrow Flanker 2014-12263-1	60.018	1.0.0.100	1	684921247	Professional	2.0.10.353	2.0.10.353	05-11-2015	5/11/2015 7:14:37 PM	15:14:37	2.0.10.248	3	1	1	1	NA	NA	NA	NA	NA	NA	NA	NA	NA	NA	NA	NA	NA	NA	NA	NA	NA	NA	NA	NA	NA	NA	NA	NA	BlockProc	BlockList	NA	34	{RIGHTARROW}	NA	-100	1053	neutral	NA	NA	NA	NA	NA	NA	NA	NA	NA	NA	NA	NA	NA	NA	NA	NA	NA	NA	NA	NA	NA	NA	TrialProc	TrialList	0	10	360698	17	0	17	358799	0	1	{RIGHTARROW}	-999999	-1	360031	0	{RIGHTARROW}	657	360688	NA	NA	right	ooroo.bmp	354	0	NA	0	0	0	0	NA	0	0	0	NA	0	0	0	0	NA	0	0	6	1	34
Arrow Flanker 2014	12263	1	"<?xml version=""1.0""?>\n<Clock xmlns:dt=""urn:schemas-microsoft-com:datatypes""><Description dt:dt=""string"">E-Prime Primary Realtime Clock</Description><StartTime><Timestamp dt:dt=""int"">0</Timestamp><DateUtc dt:dt=""string"">2015-05-11T19:14:37Z</DateUtc></StartTime><FrequencyChanges><FrequencyChange><Frequency dt:dt=""r8"">2825664</Frequency><Timestamp dt:dt=""r8"">5184709905086</Timestamp><Current dt:dt=""r8"">0</Current><DateUtc dt:dt=""string"">2015-05-11T19:14:37Z</DateUtc></FrequencyChange></FrequencyChanges></Clock>\n"	Arrow Flanker 2014-12263-1	60.018	1.0.0.100	1	684921247	Professional	2.0.10.353	2.0.10.353	05-11-2015	5/11/2015 7:14:37 PM	15:14:37	2.0.10.248	3	1	1	1	NA	NA	NA	NA	NA	NA	NA	NA	NA	NA	NA	NA	NA	NA	NA	NA	NA	NA	NA	NA	NA	NA	NA	NA	BlockProc	BlockList	NA	35	{RIGHTARROW}	NA	-100	1616	congruent	NA	NA	NA	NA	NA	NA	NA	NA	NA	NA	NA	NA	NA	NA	NA	NA	NA	NA	NA	NA	NA	NA	TrialProc	TrialList	1	15	363247	17	0	16	361231	0	1	{RIGHTARROW}	-999999	0	362714	0	{RIGHTARROW}	518	363232	NA	NA	right	rrrrr.bmp	354	0	NA	0	0	0	0	NA	0	0	0	NA	0	0	0	0	NA	0	0	2	1	35
Arrow Flanker 2014	12263	1	"<?xml version=""1.0""?>\n<Clock xmlns:dt=""urn:schemas-microsoft-com:datatypes""><Description dt:dt=""string"">E-Prime Primary Realtime Clock</Description><StartTime><Timestamp dt:dt=""int"">0</Timestamp><DateUtc dt:dt=""string"">2015-05-11T19:14:37Z</DateUtc></StartTime><FrequencyChanges><FrequencyChange><Frequency dt:dt=""r8"">2825664</Frequency><Timestamp dt:dt=""r8"">5184709905086</Timestamp><Current dt:dt=""r8"">0</Current><DateUtc dt:dt=""string"">2015-05-11T19:14:37Z</DateUtc></FrequencyChange></FrequencyChanges></Clock>\n"	Arrow Flanker 2014-12263-1	60.018	1.0.0.100	1	684921247	Professional	2.0.10.353	2.0.10.353	05-11-2015	5/11/2015 7:14:37 PM	15:14:37	2.0.10.248	3	1	1	1	NA	NA	NA	NA	NA	NA	NA	NA	NA	NA	NA	NA	NA	NA	NA	NA	NA	NA	NA	NA	NA	NA	NA	NA	BlockProc	BlockList	NA	36	{RIGHTARROW}	NA	-100	1243	congruent	NA	NA	NA	NA	NA	NA	NA	NA	NA	NA	NA	NA	NA	NA	NA	NA	NA	NA	NA	NA	NA	NA	TrialProc	TrialList	0	20	365380	17	0	16	363780	0	1	{RIGHTARROW}	-999999	0	364697	0	{RIGHTARROW}	663	365360	NA	NA	right	rrrrr.bmp	354	0	NA	0	0	0	0	NA	0	0	0	NA	0	0	0	0	NA	0	0	2	1	36
Arrow Flanker 2014	12263	1	"<?xml version=""1.0""?>\n<Clock xmlns:dt=""urn:schemas-microsoft-com:datatypes""><Description dt:dt=""string"">E-Prime Primary Realtime Clock</Description><StartTime><Timestamp dt:dt=""int"">0</Timestamp><DateUtc dt:dt=""string"">2015-05-11T19:14:37Z</DateUtc></StartTime><FrequencyChanges><FrequencyChange><Frequency dt:dt=""r8"">2825664</Frequency><Timestamp dt:dt=""r8"">5184709905086</Timestamp><Current dt:dt=""r8"">0</Current><DateUtc dt:dt=""string"">2015-05-11T19:14:37Z</DateUtc></FrequencyChange></FrequencyChanges></Clock>\n"	Arrow Flanker 2014-12263-1	60.018	1.0.0.100	1	684921247	Professional	2.0.10.353	2.0.10.353	05-11-2015	5/11/2015 7:14:37 PM	15:14:37	2.0.10.248	3	1	1	1	NA	NA	NA	NA	NA	NA	NA	NA	NA	NA	NA	NA	NA	NA	NA	NA	NA	NA	NA	NA	NA	NA	NA	NA	BlockProc	BlockList	NA	37	{LEFTARROW}	NA	-100	1761	neutral	NA	NA	NA	NA	NA	NA	NA	NA	NA	NA	NA	NA	NA	NA	NA	NA	NA	NA	NA	NA	2	1	TrialProc	TrialList	1	19	367779	17	0	16	365913	0	1	{LEFTARROW}	-999999	16	367346	0	{LEFTARROW}	413	367759	NA	NA	left	ooloo.bmp	354	0	NA	-999999	16	368312	0	1	2208	370520	0	NA	-999999	25	370545	0	1	1863	372408	5	1	37
Arrow Flanker 2014	12263	1	"<?xml version=""1.0""?>\n<Clock xmlns:dt=""urn:schemas-microsoft-com:datatypes""><Description dt:dt=""string"">E-Prime Primary Realtime Clock</Description><StartTime><Timestamp dt:dt=""int"">0</Timestamp><DateUtc dt:dt=""string"">2015-05-11T19:14:37Z</DateUtc></StartTime><FrequencyChanges><FrequencyChange><Frequency dt:dt=""r8"">2825664</Frequency><Timestamp dt:dt=""r8"">5184709905086</Timestamp><Current dt:dt=""r8"">0</Current><DateUtc dt:dt=""string"">2015-05-11T19:14:37Z</DateUtc></FrequencyChange></FrequencyChanges></Clock>\n"	Arrow Flanker 2014-12263-1	60.018	1.0.0.100	1	684921247	Professional	2.0.10.353	2.0.10.353	05-11-2015	5/11/2015 7:14:37 PM	15:14:37	2.0.10.248	3	1	1	1	NA	NA	NA	NA	NA	NA	NA	NA	NA	NA	NA	NA	NA	NA	NA	NA	NA	NA	NA	NA	NA	NA	NA	NA	BlockProc	BlockList	NA	38	{RIGHTARROW}	NA	-100	1638	incongruent	NA	NA	NA	NA	NA	NA	NA	NA	NA	NA	NA	NA	NA	NA	NA	NA	NA	NA	NA	NA	NA	NA	TrialProc	TrialList	1	16	376943	17	0	13	374028	0	1	{RIGHTARROW}	-999999	0	375777	0	{RIGHTARROW}	1150	376927	NA	NA	right	llrll.bmp	354	0	NA	0	0	0	0	NA	0	0	0	NA	0	0	0	0	NA	0	0	4	1	38
Arrow Flanker 2014	12263	1	"<?xml version=""1.0""?>\n<Clock xmlns:dt=""urn:schemas-microsoft-com:datatypes""><Description dt:dt=""string"">E-Prime Primary Realtime Clock</Description><StartTime><Timestamp dt:dt=""int"">0</Timestamp><DateUtc dt:dt=""string"">2015-05-11T19:14:37Z</DateUtc></StartTime><FrequencyChanges><FrequencyChange><Frequency dt:dt=""r8"">2825664</Frequency><Timestamp dt:dt=""r8"">5184709905086</Timestamp><Current dt:dt=""r8"">0</Current><DateUtc dt:dt=""string"">2015-05-11T19:14:37Z</DateUtc></FrequencyChange></FrequencyChanges></Clock>\n"	Arrow Flanker 2014-12263-1	60.018	1.0.0.100	1	684921247	Professional	2.0.10.353	2.0.10.353	05-11-2015	5/11/2015 7:14:37 PM	15:14:37	2.0.10.248	3	1	1	1	NA	NA	NA	NA	NA	NA	NA	NA	NA	NA	NA	NA	NA	NA	NA	NA	NA	NA	NA	NA	NA	NA	NA	NA	BlockProc	BlockList	NA	39	{LEFTARROW}	NA	-100	2220	neutral	NA	NA	NA	NA	NA	NA	NA	NA	NA	NA	NA	NA	NA	NA	NA	NA	NA	NA	NA	NA	NA	NA	TrialProc	TrialList	0	20	379859	17	0	16	377476	0	1	{LEFTARROW}	-999999	0	379376	0	{LEFTARROW}	463	379839	NA	NA	left	ooloo.bmp	354	0	NA	0	0	0	0	NA	0	0	0	NA	0	0	0	0	NA	0	0	5	1	39
Arrow Flanker 2014	12263	1	"<?xml version=""1.0""?>\n<Clock xmlns:dt=""urn:schemas-microsoft-com:datatypes""><Description dt:dt=""string"">E-Prime Primary Realtime Clock</Description><StartTime><Timestamp dt:dt=""int"">0</Timestamp><DateUtc dt:dt=""string"">2015-05-11T19:14:37Z</DateUtc></StartTime><FrequencyChanges><FrequencyChange><Frequency dt:dt=""r8"">2825664</Frequency><Timestamp dt:dt=""r8"">5184709905086</Timestamp><Current dt:dt=""r8"">0</Current><DateUtc dt:dt=""string"">2015-05-11T19:14:37Z</DateUtc></FrequencyChange></FrequencyChanges></Clock>\n"	Arrow Flanker 2014-12263-1	60.018	1.0.0.100	1	684921247	Professional	2.0.10.353	2.0.10.353	05-11-2015	5/11/2015 7:14:37 PM	15:14:37	2.0.10.248	3	1	1	1	NA	NA	NA	NA	NA	NA	NA	NA	NA	NA	NA	NA	NA	NA	NA	NA	NA	NA	NA	NA	NA	NA	NA	NA	BlockProc	BlockList	NA	40	{LEFTARROW}	NA	-100	1653	neutral	NA	NA	NA	NA	NA	NA	NA	NA	NA	NA	NA	NA	NA	NA	NA	NA	NA	NA	NA	NA	NA	NA	TrialProc	TrialList	1	14	382941	17	0	16	380392	0	1	{LEFTARROW}	-999999	-1	382491	0	{LEFTARROW}	436	382927	NA	NA	left	ooloo.bmp	354	0	NA	0	0	0	0	NA	0	0	0	NA	0	0	0	0	NA	0	0	5	1	40
Arrow Flanker 2014	12263	1	"<?xml version=""1.0""?>\n<Clock xmlns:dt=""urn:schemas-microsoft-com:datatypes""><Description dt:dt=""string"">E-Prime Primary Realtime Clock</Description><StartTime><Timestamp dt:dt=""int"">0</Timestamp><DateUtc dt:dt=""string"">2015-05-11T19:14:37Z</DateUtc></StartTime><FrequencyChanges><FrequencyChange><Frequency dt:dt=""r8"">2825664</Frequency><Timestamp dt:dt=""r8"">5184709905086</Timestamp><Current dt:dt=""r8"">0</Current><DateUtc dt:dt=""string"">2015-05-11T19:14:37Z</DateUtc></FrequencyChange></FrequencyChanges></Clock>\n"	Arrow Flanker 2014-12263-1	60.018	1.0.0.100	1	684921247	Professional	2.0.10.353	2.0.10.353	05-11-2015	5/11/2015 7:14:37 PM	15:14:37	2.0.10.248	3	1	1	1	NA	NA	NA	NA	NA	NA	NA	NA	NA	NA	NA	NA	NA	NA	NA	NA	NA	NA	NA	NA	NA	NA	NA	NA	BlockProc	BlockList	NA	41	{LEFTARROW}	NA	-100	1518	incongruent	NA	NA	NA	NA	NA	NA	NA	NA	NA	NA	NA	NA	NA	NA	NA	NA	NA	NA	NA	NA	NA	NA	TrialProc	TrialList	0	20	385491	16	0	17	383475	0	1	{LEFTARROW}	-999999	16	384874	0	{LEFTARROW}	596	385470	NA	NA	left	rrlrr.bmp	354	0	NA	0	0	0	0	NA	0	0	0	NA	0	0	0	0	NA	0	0	3	1	41
Arrow Flanker 2014	12263	1	"<?xml version=""1.0""?>\n<Clock xmlns:dt=""urn:schemas-microsoft-com:datatypes""><Description dt:dt=""string"">E-Prime Primary Realtime Clock</Description><StartTime><Timestamp dt:dt=""int"">0</Timestamp><DateUtc dt:dt=""string"">2015-05-11T19:14:37Z</DateUtc></StartTime><FrequencyChanges><FrequencyChange><Frequency dt:dt=""r8"">2825664</Frequency><Timestamp dt:dt=""r8"">5184709905086</Timestamp><Current dt:dt=""r8"">0</Current><DateUtc dt:dt=""string"">2015-05-11T19:14:37Z</DateUtc></FrequencyChange></FrequencyChanges></Clock>\n"	Arrow Flanker 2014-12263-1	60.018	1.0.0.100	1	684921247	Professional	2.0.10.353	2.0.10.353	05-11-2015	5/11/2015 7:14:37 PM	15:14:37	2.0.10.248	3	1	1	1	NA	NA	NA	NA	NA	NA	NA	NA	NA	NA	NA	NA	NA	NA	NA	NA	NA	NA	NA	NA	NA	NA	NA	NA	BlockProc	BlockList	NA	42	{LEFTARROW}	NA	-100	916	congruent	NA	NA	NA	NA	NA	NA	NA	NA	NA	NA	NA	NA	NA	NA	NA	NA	NA	NA	NA	NA	NA	NA	TrialProc	TrialList	0	20	387490	17	0	17	386024	0	1	{LEFTARROW}	-999999	0	387007	0	{LEFTARROW}	463	387470	NA	NA	left	lllll.bmp	354	0	NA	0	0	0	0	NA	0	0	0	NA	0	0	0	0	NA	0	0	1	1	42
Arrow Flanker 2014	12263	1	"<?xml version=""1.0""?>\n<Clock xmlns:dt=""urn:schemas-microsoft-com:datatypes""><Description dt:dt=""string"">E-Prime Primary Realtime Clock</Description><StartTime><Timestamp dt:dt=""int"">0</Timestamp><DateUtc dt:dt=""string"">2015-05-11T19:14:37Z</DateUtc></StartTime><FrequencyChanges><FrequencyChange><Frequency dt:dt=""r8"">2825664</Frequency><Timestamp dt:dt=""r8"">5184709905086</Timestamp><Current dt:dt=""r8"">0</Current><DateUtc dt:dt=""string"">2015-05-11T19:14:37Z</DateUtc></FrequencyChange></FrequencyChanges></Clock>\n"	Arrow Flanker 2014-12263-1	60.018	1.0.0.100	1	684921247	Professional	2.0.10.353	2.0.10.353	05-11-2015	5/11/2015 7:14:37 PM	15:14:37	2.0.10.248	3	1	1	1	NA	NA	NA	NA	NA	NA	NA	NA	NA	NA	NA	NA	NA	NA	NA	NA	NA	NA	NA	NA	NA	NA	NA	NA	BlockProc	BlockList	NA	43	{RIGHTARROW}	NA	-100	1018	congruent	NA	NA	NA	NA	NA	NA	NA	NA	NA	NA	NA	NA	NA	NA	NA	NA	NA	NA	NA	NA	NA	NA	TrialProc	TrialList	0	16	389806	17	0	16	388023	0	1	{RIGHTARROW}	-999999	0	389290	0	{RIGHTARROW}	500	389790	NA	NA	right	rrrrr.bmp	354	0	NA	0	0	0	0	NA	0	0	0	NA	0	0	0	0	NA	0	0	2	1	43
Arrow Flanker 2014	12263	1	"<?xml version=""1.0""?>\n<Clock xmlns:dt=""urn:schemas-microsoft-com:datatypes""><Description dt:dt=""string"">E-Prime Primary Realtime Clock</Description><StartTime><Timestamp dt:dt=""int"">0</Timestamp><DateUtc dt:dt=""string"">2015-05-11T19:14:37Z</DateUtc></StartTime><FrequencyChanges><FrequencyChange><Frequency dt:dt=""r8"">2825664</Frequency><Timestamp dt:dt=""r8"">5184709905086</Timestamp><Current dt:dt=""r8"">0</Current><DateUtc dt:dt=""string"">2015-05-11T19:14:37Z</DateUtc></FrequencyChange></FrequencyChanges></Clock>\n"	Arrow Flanker 2014-12263-1	60.018	1.0.0.100	1	684921247	Professional	2.0.10.353	2.0.10.353	05-11-2015	5/11/2015 7:14:37 PM	15:14:37	2.0.10.248	3	1	1	1	NA	NA	NA	NA	NA	NA	NA	NA	NA	NA	NA	NA	NA	NA	NA	NA	NA	NA	NA	NA	NA	NA	NA	NA	BlockProc	BlockList	NA	44	{RIGHTARROW}	NA	-100	2225	neutral	NA	NA	NA	NA	NA	NA	NA	NA	NA	NA	NA	NA	NA	NA	NA	NA	NA	NA	NA	NA	NA	NA	TrialProc	TrialList	0	9	392455	17	0	16	390339	0	1	{RIGHTARROW}	-999999	0	391989	0	{RIGHTARROW}	457	392446	NA	NA	right	ooroo.bmp	354	0	NA	0	0	0	0	NA	0	0	0	NA	0	0	0	0	NA	0	0	6	1	44
Arrow Flanker 2014	12263	1	"<?xml version=""1.0""?>\n<Clock xmlns:dt=""urn:schemas-microsoft-com:datatypes""><Description dt:dt=""string"">E-Prime Primary Realtime Clock</Description><StartTime><Timestamp dt:dt=""int"">0</Timestamp><DateUtc dt:dt=""string"">2015-05-11T19:14:37Z</DateUtc></StartTime><FrequencyChanges><FrequencyChange><Frequency dt:dt=""r8"">2825664</Frequency><Timestamp dt:dt=""r8"">5184709905086</Timestamp><Current dt:dt=""r8"">0</Current><DateUtc dt:dt=""string"">2015-05-11T19:14:37Z</DateUtc></FrequencyChange></FrequencyChanges></Clock>\n"	Arrow Flanker 2014-12263-1	60.018	1.0.0.100	1	684921247	Professional	2.0.10.353	2.0.10.353	05-11-2015	5/11/2015 7:14:37 PM	15:14:37	2.0.10.248	3	1	1	1	NA	NA	NA	NA	NA	NA	NA	NA	NA	NA	NA	NA	NA	NA	NA	NA	NA	NA	NA	NA	NA	NA	NA	NA	BlockProc	BlockList	NA	45	{LEFTARROW}	NA	-100	1622	congruent	NA	NA	NA	NA	NA	NA	NA	NA	NA	NA	NA	NA	NA	NA	NA	NA	NA	NA	NA	NA	NA	NA	TrialProc	TrialList	1	18	395104	17	0	16	392988	0	1	{LEFTARROW}	-999999	0	394671	0	{LEFTARROW}	415	395086	NA	NA	left	lllll.bmp	354	0	NA	0	0	0	0	NA	0	0	0	NA	0	0	0	0	NA	0	0	1	1	45
Arrow Flanker 2014	12263	1	"<?xml version=""1.0""?>\n<Clock xmlns:dt=""urn:schemas-microsoft-com:datatypes""><Description dt:dt=""string"">E-Prime Primary Realtime Clock</Description><StartTime><Timestamp dt:dt=""int"">0</Timestamp><DateUtc dt:dt=""string"">2015-05-11T19:14:37Z</DateUtc></StartTime><FrequencyChanges><FrequencyChange><Frequency dt:dt=""r8"">2825664</Frequency><Timestamp dt:dt=""r8"">5184709905086</Timestamp><Current dt:dt=""r8"">0</Current><DateUtc dt:dt=""string"">2015-05-11T19:14:37Z</DateUtc></FrequencyChange></FrequencyChanges></Clock>\n"	Arrow Flanker 2014-12263-1	60.018	1.0.0.100	1	684921247	Professional	2.0.10.353	2.0.10.353	05-11-2015	5/11/2015 7:14:37 PM	15:14:37	2.0.10.248	3	1	1	1	NA	NA	NA	NA	NA	NA	NA	NA	NA	NA	NA	NA	NA	NA	NA	NA	NA	NA	NA	NA	NA	NA	NA	NA	BlockProc	BlockList	NA	46	{RIGHTARROW}	NA	-100	2449	congruent	NA	NA	NA	NA	NA	NA	NA	NA	NA	NA	NA	NA	NA	NA	NA	NA	NA	NA	NA	NA	NA	NA	TrialProc	TrialList	1	8	398070	17	0	17	395638	0	1	{RIGHTARROW}	-999999	0	397504	0	{RIGHTARROW}	558	398062	NA	NA	right	rrrrr.bmp	354	0	NA	0	0	0	0	NA	0	0	0	NA	0	0	0	0	NA	0	0	2	1	46
Arrow Flanker 2014	12263	1	"<?xml version=""1.0""?>\n<Clock xmlns:dt=""urn:schemas-microsoft-com:datatypes""><Description dt:dt=""string"">E-Prime Primary Realtime Clock</Description><StartTime><Timestamp dt:dt=""int"">0</Timestamp><DateUtc dt:dt=""string"">2015-05-11T19:14:37Z</DateUtc></StartTime><FrequencyChanges><FrequencyChange><Frequency dt:dt=""r8"">2825664</Frequency><Timestamp dt:dt=""r8"">5184709905086</Timestamp><Current dt:dt=""r8"">0</Current><DateUtc dt:dt=""string"">2015-05-11T19:14:37Z</DateUtc></FrequencyChange></FrequencyChanges></Clock>\n"	Arrow Flanker 2014-12263-1	60.018	1.0.0.100	1	684921247	Professional	2.0.10.353	2.0.10.353	05-11-2015	5/11/2015 7:14:37 PM	15:14:37	2.0.10.248	3	1	1	1	NA	NA	NA	NA	NA	NA	NA	NA	NA	NA	NA	NA	NA	NA	NA	NA	NA	NA	NA	NA	NA	NA	NA	NA	BlockProc	BlockList	NA	47	{LEFTARROW}	NA	-100	2431	incongruent	NA	NA	NA	NA	NA	NA	NA	NA	NA	NA	NA	NA	NA	NA	NA	NA	NA	NA	NA	NA	NA	NA	TrialProc	TrialList	1	16	401502	17	0	16	398603	0	1	{LEFTARROW}	-999999	0	400686	0	{LEFTARROW}	799	401485	NA	NA	left	rrlrr.bmp	354	0	NA	0	0	0	0	NA	0	0	0	NA	0	0	0	0	NA	0	0	3	1	47
Arrow Flanker 2014	12263	1	"<?xml version=""1.0""?>\n<Clock xmlns:dt=""urn:schemas-microsoft-com:datatypes""><Description dt:dt=""string"">E-Prime Primary Realtime Clock</Description><StartTime><Timestamp dt:dt=""int"">0</Timestamp><DateUtc dt:dt=""string"">2015-05-11T19:14:37Z</DateUtc></StartTime><FrequencyChanges><FrequencyChange><Frequency dt:dt=""r8"">2825664</Frequency><Timestamp dt:dt=""r8"">5184709905086</Timestamp><Current dt:dt=""r8"">0</Current><DateUtc dt:dt=""string"">2015-05-11T19:14:37Z</DateUtc></FrequencyChange></FrequencyChanges></Clock>\n"	Arrow Flanker 2014-12263-1	60.018	1.0.0.100	1	684921247	Professional	2.0.10.353	2.0.10.353	05-11-2015	5/11/2015 7:14:37 PM	15:14:37	2.0.10.248	3	1	1	1	NA	NA	NA	NA	NA	NA	NA	NA	NA	NA	NA	NA	NA	NA	NA	NA	NA	NA	NA	NA	NA	NA	NA	NA	BlockProc	BlockList	NA	48	{LEFTARROW}	NA	-100	1163	incongruent	NA	NA	NA	NA	NA	NA	NA	NA	NA	NA	NA	NA	NA	NA	NA	NA	NA	NA	NA	NA	NA	NA	TrialProc	TrialList	0	10	403735	17	0	17	402036	0	1	{LEFTARROW}	-999999	0	403202	0	{LEFTARROW}	523	403725	NA	NA	left	rrlrr.bmp	354	0	NA	0	0	0	0	NA	0	0	0	NA	0	0	0	0	NA	0	0	3	1	48
Arrow Flanker 2014	12263	1	"<?xml version=""1.0""?>\n<Clock xmlns:dt=""urn:schemas-microsoft-com:datatypes""><Description dt:dt=""string"">E-Prime Primary Realtime Clock</Description><StartTime><Timestamp dt:dt=""int"">0</Timestamp><DateUtc dt:dt=""string"">2015-05-11T19:14:37Z</DateUtc></StartTime><FrequencyChanges><FrequencyChange><Frequency dt:dt=""r8"">2825664</Frequency><Timestamp dt:dt=""r8"">5184709905086</Timestamp><Current dt:dt=""r8"">0</Current><DateUtc dt:dt=""string"">2015-05-11T19:14:37Z</DateUtc></FrequencyChange></FrequencyChanges></Clock>\n"	Arrow Flanker 2014-12263-1	60.018	1.0.0.100	1	684921247	Professional	2.0.10.353	2.0.10.353	05-11-2015	5/11/2015 7:14:37 PM	15:14:37	2.0.10.248	3	1	1	1	NA	NA	NA	NA	NA	NA	NA	NA	NA	NA	NA	NA	NA	NA	NA	NA	NA	NA	NA	NA	NA	NA	NA	NA	BlockProc	BlockList	NA	49	{RIGHTARROW}	NA	-100	1882	congruent	NA	NA	NA	NA	NA	NA	NA	NA	NA	NA	NA	NA	NA	NA	NA	NA	NA	NA	NA	NA	NA	NA	TrialProc	TrialList	0	20	406001	17	0	16	404268	0	1	{RIGHTARROW}	-999999	0	405535	0	{RIGHTARROW}	446	405981	NA	NA	right	rrrrr.bmp	354	0	NA	0	0	0	0	NA	0	0	0	NA	0	0	0	0	NA	0	0	2	1	49
Arrow Flanker 2014	12263	1	"<?xml version=""1.0""?>\n<Clock xmlns:dt=""urn:schemas-microsoft-com:datatypes""><Description dt:dt=""string"">E-Prime Primary Realtime Clock</Description><StartTime><Timestamp dt:dt=""int"">0</Timestamp><DateUtc dt:dt=""string"">2015-05-11T19:14:37Z</DateUtc></StartTime><FrequencyChanges><FrequencyChange><Frequency dt:dt=""r8"">2825664</Frequency><Timestamp dt:dt=""r8"">5184709905086</Timestamp><Current dt:dt=""r8"">0</Current><DateUtc dt:dt=""string"">2015-05-11T19:14:37Z</DateUtc></FrequencyChange></FrequencyChanges></Clock>\n"	Arrow Flanker 2014-12263-1	60.018	1.0.0.100	1	684921247	Professional	2.0.10.353	2.0.10.353	05-11-2015	5/11/2015 7:14:37 PM	15:14:37	2.0.10.248	3	1	1	1	NA	NA	NA	NA	NA	NA	NA	NA	NA	NA	NA	NA	NA	NA	NA	NA	NA	NA	NA	NA	NA	NA	NA	NA	BlockProc	BlockList	NA	50	{RIGHTARROW}	NA	-100	2318	congruent	NA	NA	NA	NA	NA	NA	NA	NA	NA	NA	NA	NA	NA	NA	NA	NA	NA	NA	NA	NA	NA	NA	TrialProc	TrialList	1	17	409150	17	0	16	406534	0	1	{RIGHTARROW}	-999999	0	408534	0	{RIGHTARROW}	599	409133	NA	NA	right	rrrrr.bmp	354	0	NA	0	0	0	0	NA	0	0	0	NA	0	0	0	0	NA	0	0	2	1	50
Arrow Flanker 2014	12263	1	"<?xml version=""1.0""?>\n<Clock xmlns:dt=""urn:schemas-microsoft-com:datatypes""><Description dt:dt=""string"">E-Prime Primary Realtime Clock</Description><StartTime><Timestamp dt:dt=""int"">0</Timestamp><DateUtc dt:dt=""string"">2015-05-11T19:14:37Z</DateUtc></StartTime><FrequencyChanges><FrequencyChange><Frequency dt:dt=""r8"">2825664</Frequency><Timestamp dt:dt=""r8"">5184709905086</Timestamp><Current dt:dt=""r8"">0</Current><DateUtc dt:dt=""string"">2015-05-11T19:14:37Z</DateUtc></FrequencyChange></FrequencyChanges></Clock>\n"	Arrow Flanker 2014-12263-1	60.018	1.0.0.100	1	684921247	Professional	2.0.10.353	2.0.10.353	05-11-2015	5/11/2015 7:14:37 PM	15:14:37	2.0.10.248	3	1	1	1	NA	NA	NA	NA	NA	NA	NA	NA	NA	NA	NA	NA	NA	NA	NA	NA	NA	NA	NA	NA	NA	NA	NA	NA	BlockProc	BlockList	NA	51	{RIGHTARROW}	NA	-100	1405	incongruent	NA	NA	NA	NA	NA	NA	NA	NA	NA	NA	NA	NA	NA	NA	NA	NA	NA	NA	NA	NA	NA	NA	TrialProc	TrialList	0	14	411483	16	0	16	409683	0	1	{RIGHTARROW}	-999999	0	410883	0	{RIGHTARROW}	586	411469	NA	NA	right	llrll.bmp	354	0	NA	0	0	0	0	NA	0	0	0	NA	0	0	0	0	NA	0	0	4	1	51
Arrow Flanker 2014	12263	1	"<?xml version=""1.0""?>\n<Clock xmlns:dt=""urn:schemas-microsoft-com:datatypes""><Description dt:dt=""string"">E-Prime Primary Realtime Clock</Description><StartTime><Timestamp dt:dt=""int"">0</Timestamp><DateUtc dt:dt=""string"">2015-05-11T19:14:37Z</DateUtc></StartTime><FrequencyChanges><FrequencyChange><Frequency dt:dt=""r8"">2825664</Frequency><Timestamp dt:dt=""r8"">5184709905086</Timestamp><Current dt:dt=""r8"">0</Current><DateUtc dt:dt=""string"">2015-05-11T19:14:37Z</DateUtc></FrequencyChange></FrequencyChanges></Clock>\n"	Arrow Flanker 2014-12263-1	60.018	1.0.0.100	1	684921247	Professional	2.0.10.353	2.0.10.353	05-11-2015	5/11/2015 7:14:37 PM	15:14:37	2.0.10.248	3	1	1	1	NA	NA	NA	NA	NA	NA	NA	NA	NA	NA	NA	NA	NA	NA	NA	NA	NA	NA	NA	NA	NA	NA	NA	NA	BlockProc	BlockList	NA	52	{LEFTARROW}	NA	-100	1316	congruent	NA	NA	NA	NA	NA	NA	NA	NA	NA	NA	NA	NA	NA	NA	NA	NA	NA	NA	NA	NA	NA	NA	TrialProc	TrialList	0	17	414382	17	0	17	412016	0	1	{LEFTARROW}	-999999	0	413832	0	{LEFTARROW}	533	414365	NA	NA	left	lllll.bmp	354	0	NA	0	0	0	0	NA	0	0	0	NA	0	0	0	0	NA	0	0	1	1	52
Arrow Flanker 2014	12263	1	"<?xml version=""1.0""?>\n<Clock xmlns:dt=""urn:schemas-microsoft-com:datatypes""><Description dt:dt=""string"">E-Prime Primary Realtime Clock</Description><StartTime><Timestamp dt:dt=""int"">0</Timestamp><DateUtc dt:dt=""string"">2015-05-11T19:14:37Z</DateUtc></StartTime><FrequencyChanges><FrequencyChange><Frequency dt:dt=""r8"">2825664</Frequency><Timestamp dt:dt=""r8"">5184709905086</Timestamp><Current dt:dt=""r8"">0</Current><DateUtc dt:dt=""string"">2015-05-11T19:14:37Z</DateUtc></FrequencyChange></FrequencyChanges></Clock>\n"	Arrow Flanker 2014-12263-1	60.018	1.0.0.100	1	684921247	Professional	2.0.10.353	2.0.10.353	05-11-2015	5/11/2015 7:14:37 PM	15:14:37	2.0.10.248	3	1	1	1	NA	NA	NA	NA	NA	NA	NA	NA	NA	NA	NA	NA	NA	NA	NA	NA	NA	NA	NA	NA	NA	NA	NA	NA	BlockProc	BlockList	NA	53	{LEFTARROW}	NA	-100	847	neutral	NA	NA	NA	NA	NA	NA	NA	NA	NA	NA	NA	NA	NA	NA	NA	NA	NA	NA	NA	NA	NA	NA	TrialProc	TrialList	0	17	416398	17	0	16	414915	0	1	{LEFTARROW}	-999999	0	415915	0	{LEFTARROW}	465	416380	NA	NA	left	ooloo.bmp	354	0	NA	0	0	0	0	NA	0	0	0	NA	0	0	0	0	NA	0	0	5	1	53
Arrow Flanker 2014	12263	1	"<?xml version=""1.0""?>\n<Clock xmlns:dt=""urn:schemas-microsoft-com:datatypes""><Description dt:dt=""string"">E-Prime Primary Realtime Clock</Description><StartTime><Timestamp dt:dt=""int"">0</Timestamp><DateUtc dt:dt=""string"">2015-05-11T19:14:37Z</DateUtc></StartTime><FrequencyChanges><FrequencyChange><Frequency dt:dt=""r8"">2825664</Frequency><Timestamp dt:dt=""r8"">5184709905086</Timestamp><Current dt:dt=""r8"">0</Current><DateUtc dt:dt=""string"">2015-05-11T19:14:37Z</DateUtc></FrequencyChange></FrequencyChanges></Clock>\n"	Arrow Flanker 2014-12263-1	60.018	1.0.0.100	1	684921247	Professional	2.0.10.353	2.0.10.353	05-11-2015	5/11/2015 7:14:37 PM	15:14:37	2.0.10.248	3	1	1	1	NA	NA	NA	NA	NA	NA	NA	NA	NA	NA	NA	NA	NA	NA	NA	NA	NA	NA	NA	NA	NA	NA	NA	NA	BlockProc	BlockList	NA	54	{RIGHTARROW}	NA	-100	1363	incongruent	NA	NA	NA	NA	NA	NA	NA	NA	NA	NA	NA	NA	NA	NA	NA	NA	NA	NA	NA	NA	2	1	TrialProc	TrialList	0	18	418814	17	0	16	416931	0	1	{RIGHTARROW}	-999999	0	418281	0	{RIGHTARROW}	515	418796	NA	NA	right	llrll.bmp	354	0	NA	-999999	16	419347	0	1	2274	421621	0	NA	-999999	25	421646	0	1	1039	422685	4	1	54
Arrow Flanker 2014	12263	1	"<?xml version=""1.0""?>\n<Clock xmlns:dt=""urn:schemas-microsoft-com:datatypes""><Description dt:dt=""string"">E-Prime Primary Realtime Clock</Description><StartTime><Timestamp dt:dt=""int"">0</Timestamp><DateUtc dt:dt=""string"">2015-05-11T19:14:37Z</DateUtc></StartTime><FrequencyChanges><FrequencyChange><Frequency dt:dt=""r8"">2825664</Frequency><Timestamp dt:dt=""r8"">5184709905086</Timestamp><Current dt:dt=""r8"">0</Current><DateUtc dt:dt=""string"">2015-05-11T19:14:37Z</DateUtc></FrequencyChange></FrequencyChanges></Clock>\n"	Arrow Flanker 2014-12263-1	60.018	1.0.0.100	1	684921247	Professional	2.0.10.353	2.0.10.353	05-11-2015	5/11/2015 7:14:37 PM	15:14:37	2.0.10.248	3	1	1	1	NA	NA	NA	NA	NA	NA	NA	NA	NA	NA	NA	NA	NA	NA	NA	NA	NA	NA	NA	NA	NA	NA	NA	NA	BlockProc	BlockList	NA	55	{RIGHTARROW}	NA	-100	1110	neutral	NA	NA	NA	NA	NA	NA	NA	NA	NA	NA	NA	NA	NA	NA	NA	NA	NA	NA	NA	NA	NA	NA	TrialProc	TrialList	1	5	425345	17	0	14	423946	0	1	{RIGHTARROW}	-999999	0	424862	0	{RIGHTARROW}	478	425340	NA	NA	right	ooroo.bmp	354	0	NA	0	0	0	0	NA	0	0	0	NA	0	0	0	0	NA	0	0	6	1	55
Arrow Flanker 2014	12263	1	"<?xml version=""1.0""?>\n<Clock xmlns:dt=""urn:schemas-microsoft-com:datatypes""><Description dt:dt=""string"">E-Prime Primary Realtime Clock</Description><StartTime><Timestamp dt:dt=""int"">0</Timestamp><DateUtc dt:dt=""string"">2015-05-11T19:14:37Z</DateUtc></StartTime><FrequencyChanges><FrequencyChange><Frequency dt:dt=""r8"">2825664</Frequency><Timestamp dt:dt=""r8"">5184709905086</Timestamp><Current dt:dt=""r8"">0</Current><DateUtc dt:dt=""string"">2015-05-11T19:14:37Z</DateUtc></FrequencyChange></FrequencyChanges></Clock>\n"	Arrow Flanker 2014-12263-1	60.018	1.0.0.100	1	684921247	Professional	2.0.10.353	2.0.10.353	05-11-2015	5/11/2015 7:14:37 PM	15:14:37	2.0.10.248	3	1	1	1	NA	NA	NA	NA	NA	NA	NA	NA	NA	NA	NA	NA	NA	NA	NA	NA	NA	NA	NA	NA	NA	NA	NA	NA	BlockProc	BlockList	NA	56	{LEFTARROW}	NA	-100	1404	incongruent	NA	NA	NA	NA	NA	NA	NA	NA	NA	NA	NA	NA	NA	NA	NA	NA	NA	NA	NA	NA	NA	NA	TrialProc	TrialList	0	10	427878	17	0	17	425879	0	1	{LEFTARROW}	-999999	0	427345	0	{LEFTARROW}	523	427868	NA	NA	left	rrlrr.bmp	354	0	NA	0	0	0	0	NA	0	0	0	NA	0	0	0	0	NA	0	0	3	1	56
Arrow Flanker 2014	12263	1	"<?xml version=""1.0""?>\n<Clock xmlns:dt=""urn:schemas-microsoft-com:datatypes""><Description dt:dt=""string"">E-Prime Primary Realtime Clock</Description><StartTime><Timestamp dt:dt=""int"">0</Timestamp><DateUtc dt:dt=""string"">2015-05-11T19:14:37Z</DateUtc></StartTime><FrequencyChanges><FrequencyChange><Frequency dt:dt=""r8"">2825664</Frequency><Timestamp dt:dt=""r8"">5184709905086</Timestamp><Current dt:dt=""r8"">0</Current><DateUtc dt:dt=""string"">2015-05-11T19:14:37Z</DateUtc></FrequencyChange></FrequencyChanges></Clock>\n"	Arrow Flanker 2014-12263-1	60.018	1.0.0.100	1	684921247	Professional	2.0.10.353	2.0.10.353	05-11-2015	5/11/2015 7:14:37 PM	15:14:37	2.0.10.248	3	1	1	1	NA	NA	NA	NA	NA	NA	NA	NA	NA	NA	NA	NA	NA	NA	NA	NA	NA	NA	NA	NA	NA	NA	NA	NA	BlockProc	BlockList	NA	57	{RIGHTARROW}	NA	-100	1264	neutral	NA	NA	NA	NA	NA	NA	NA	NA	NA	NA	NA	NA	NA	NA	NA	NA	NA	NA	NA	NA	NA	NA	TrialProc	TrialList	0	16	430044	17	0	16	428411	0	1	{RIGHTARROW}	-999999	0	429644	0	{RIGHTARROW}	383	430027	NA	NA	right	ooroo.bmp	354	0	NA	0	0	0	0	NA	0	0	0	NA	0	0	0	0	NA	0	0	6	1	57
Arrow Flanker 2014	12263	1	"<?xml version=""1.0""?>\n<Clock xmlns:dt=""urn:schemas-microsoft-com:datatypes""><Description dt:dt=""string"">E-Prime Primary Realtime Clock</Description><StartTime><Timestamp dt:dt=""int"">0</Timestamp><DateUtc dt:dt=""string"">2015-05-11T19:14:37Z</DateUtc></StartTime><FrequencyChanges><FrequencyChange><Frequency dt:dt=""r8"">2825664</Frequency><Timestamp dt:dt=""r8"">5184709905086</Timestamp><Current dt:dt=""r8"">0</Current><DateUtc dt:dt=""string"">2015-05-11T19:14:37Z</DateUtc></FrequencyChange></FrequencyChanges></Clock>\n"	Arrow Flanker 2014-12263-1	60.018	1.0.0.100	1	684921247	Professional	2.0.10.353	2.0.10.353	05-11-2015	5/11/2015 7:14:37 PM	15:14:37	2.0.10.248	3	1	1	1	NA	NA	NA	NA	NA	NA	NA	NA	NA	NA	NA	NA	NA	NA	NA	NA	NA	NA	NA	NA	NA	NA	NA	NA	BlockProc	BlockList	NA	58	{RIGHTARROW}	NA	-100	1362	congruent	NA	NA	NA	NA	NA	NA	NA	NA	NA	NA	NA	NA	NA	NA	NA	NA	NA	NA	NA	NA	NA	NA	TrialProc	TrialList	0	12	432760	16	0	16	430577	0	1	{RIGHTARROW}	-999999	0	432327	0	{RIGHTARROW}	420	432747	NA	NA	right	rrrrr.bmp	354	0	NA	0	0	0	0	NA	0	0	0	NA	0	0	0	0	NA	0	0	2	1	58
Arrow Flanker 2014	12263	1	"<?xml version=""1.0""?>\n<Clock xmlns:dt=""urn:schemas-microsoft-com:datatypes""><Description dt:dt=""string"">E-Prime Primary Realtime Clock</Description><StartTime><Timestamp dt:dt=""int"">0</Timestamp><DateUtc dt:dt=""string"">2015-05-11T19:14:37Z</DateUtc></StartTime><FrequencyChanges><FrequencyChange><Frequency dt:dt=""r8"">2825664</Frequency><Timestamp dt:dt=""r8"">5184709905086</Timestamp><Current dt:dt=""r8"">0</Current><DateUtc dt:dt=""string"">2015-05-11T19:14:37Z</DateUtc></FrequencyChange></FrequencyChanges></Clock>\n"	Arrow Flanker 2014-12263-1	60.018	1.0.0.100	1	684921247	Professional	2.0.10.353	2.0.10.353	05-11-2015	5/11/2015 7:14:37 PM	15:14:37	2.0.10.248	3	1	1	1	NA	NA	NA	NA	NA	NA	NA	NA	NA	NA	NA	NA	NA	NA	NA	NA	NA	NA	NA	NA	NA	NA	NA	NA	BlockProc	BlockList	NA	59	{RIGHTARROW}	NA	-100	1678	neutral	NA	NA	NA	NA	NA	NA	NA	NA	NA	NA	NA	NA	NA	NA	NA	NA	NA	NA	NA	NA	NA	NA	TrialProc	TrialList	0	14	435209	17	0	17	433293	0	1	{RIGHTARROW}	-999999	0	434776	0	{RIGHTARROW}	419	435195	NA	NA	right	ooroo.bmp	354	0	NA	0	0	0	0	NA	0	0	0	NA	0	0	0	0	NA	0	0	6	1	59
Arrow Flanker 2014	12263	1	"<?xml version=""1.0""?>\n<Clock xmlns:dt=""urn:schemas-microsoft-com:datatypes""><Description dt:dt=""string"">E-Prime Primary Realtime Clock</Description><StartTime><Timestamp dt:dt=""int"">0</Timestamp><DateUtc dt:dt=""string"">2015-05-11T19:14:37Z</DateUtc></StartTime><FrequencyChanges><FrequencyChange><Frequency dt:dt=""r8"">2825664</Frequency><Timestamp dt:dt=""r8"">5184709905086</Timestamp><Current dt:dt=""r8"">0</Current><DateUtc dt:dt=""string"">2015-05-11T19:14:37Z</DateUtc></FrequencyChange></FrequencyChanges></Clock>\n"	Arrow Flanker 2014-12263-1	60.018	1.0.0.100	1	684921247	Professional	2.0.10.353	2.0.10.353	05-11-2015	5/11/2015 7:14:37 PM	15:14:37	2.0.10.248	3	1	1	1	NA	NA	NA	NA	NA	NA	NA	NA	NA	NA	NA	NA	NA	NA	NA	NA	NA	NA	NA	NA	NA	NA	NA	NA	BlockProc	BlockList	NA	60	{LEFTARROW}	NA	-100	1483	congruent	NA	NA	NA	NA	NA	NA	NA	NA	NA	NA	NA	NA	NA	NA	NA	NA	NA	NA	NA	NA	NA	NA	TrialProc	TrialList	0	17	437692	16	0	16	435742	0	1	{LEFTARROW}	-999999	0	437292	0	{LEFTARROW}	383	437675	NA	NA	left	lllll.bmp	354	0	NA	0	0	0	0	NA	0	0	0	NA	0	0	0	0	NA	0	0	1	1	60
Arrow Flanker 2014	12263	1	"<?xml version=""1.0""?>\n<Clock xmlns:dt=""urn:schemas-microsoft-com:datatypes""><Description dt:dt=""string"">E-Prime Primary Realtime Clock</Description><StartTime><Timestamp dt:dt=""int"">0</Timestamp><DateUtc dt:dt=""string"">2015-05-11T19:14:37Z</DateUtc></StartTime><FrequencyChanges><FrequencyChange><Frequency dt:dt=""r8"">2825664</Frequency><Timestamp dt:dt=""r8"">5184709905086</Timestamp><Current dt:dt=""r8"">0</Current><DateUtc dt:dt=""string"">2015-05-11T19:14:37Z</DateUtc></FrequencyChange></FrequencyChanges></Clock>\n"	Arrow Flanker 2014-12263-1	60.018	1.0.0.100	1	684921247	Professional	2.0.10.353	2.0.10.353	05-11-2015	5/11/2015 7:14:37 PM	15:14:37	2.0.10.248	3	1	1	1	NA	NA	NA	NA	NA	NA	NA	NA	NA	NA	NA	NA	NA	NA	NA	NA	NA	NA	NA	NA	NA	NA	NA	NA	BlockProc	BlockList	NA	61	{RIGHTARROW}	NA	-100	1496	incongruent	NA	NA	NA	NA	NA	NA	NA	NA	NA	NA	NA	NA	NA	NA	NA	NA	NA	NA	NA	NA	NA	NA	TrialProc	TrialList	0	8	439891	17	0	17	438225	0	1	{RIGHTARROW}	-999999	-1	439324	0	{RIGHTARROW}	559	439883	NA	NA	right	llrll.bmp	354	0	NA	0	0	0	0	NA	0	0	0	NA	0	0	0	0	NA	0	0	4	1	61
Arrow Flanker 2014	12263	1	"<?xml version=""1.0""?>\n<Clock xmlns:dt=""urn:schemas-microsoft-com:datatypes""><Description dt:dt=""string"">E-Prime Primary Realtime Clock</Description><StartTime><Timestamp dt:dt=""int"">0</Timestamp><DateUtc dt:dt=""string"">2015-05-11T19:14:37Z</DateUtc></StartTime><FrequencyChanges><FrequencyChange><Frequency dt:dt=""r8"">2825664</Frequency><Timestamp dt:dt=""r8"">5184709905086</Timestamp><Current dt:dt=""r8"">0</Current><DateUtc dt:dt=""string"">2015-05-11T19:14:37Z</DateUtc></FrequencyChange></FrequencyChanges></Clock>\n"	Arrow Flanker 2014-12263-1	60.018	1.0.0.100	1	684921247	Professional	2.0.10.353	2.0.10.353	05-11-2015	5/11/2015 7:14:37 PM	15:14:37	2.0.10.248	3	1	1	1	NA	NA	NA	NA	NA	NA	NA	NA	NA	NA	NA	NA	NA	NA	NA	NA	NA	NA	NA	NA	NA	NA	NA	NA	BlockProc	BlockList	NA	62	{LEFTARROW}	NA	-100	774	congruent	NA	NA	NA	NA	NA	NA	NA	NA	NA	NA	NA	NA	NA	NA	NA	NA	NA	NA	NA	NA	NA	NA	TrialProc	TrialList	0	6	441857	17	0	16	440424	0	1	{LEFTARROW}	-999999	0	441474	0	{LEFTARROW}	377	441851	NA	NA	left	lllll.bmp	354	0	NA	0	0	0	0	NA	0	0	0	NA	0	0	0	0	NA	0	0	1	1	62
Arrow Flanker 2014	12263	1	"<?xml version=""1.0""?>\n<Clock xmlns:dt=""urn:schemas-microsoft-com:datatypes""><Description dt:dt=""string"">E-Prime Primary Realtime Clock</Description><StartTime><Timestamp dt:dt=""int"">0</Timestamp><DateUtc dt:dt=""string"">2015-05-11T19:14:37Z</DateUtc></StartTime><FrequencyChanges><FrequencyChange><Frequency dt:dt=""r8"">2825664</Frequency><Timestamp dt:dt=""r8"">5184709905086</Timestamp><Current dt:dt=""r8"">0</Current><DateUtc dt:dt=""string"">2015-05-11T19:14:37Z</DateUtc></FrequencyChange></FrequencyChanges></Clock>\n"	Arrow Flanker 2014-12263-1	60.018	1.0.0.100	1	684921247	Professional	2.0.10.353	2.0.10.353	05-11-2015	5/11/2015 7:14:37 PM	15:14:37	2.0.10.248	3	1	1	1	NA	NA	NA	NA	NA	NA	NA	NA	NA	NA	NA	NA	NA	NA	NA	NA	NA	NA	NA	NA	NA	NA	NA	NA	BlockProc	BlockList	NA	63	{RIGHTARROW}	NA	-100	1958	incongruent	NA	NA	NA	NA	NA	NA	NA	NA	NA	NA	NA	NA	NA	NA	NA	NA	NA	NA	NA	NA	NA	NA	TrialProc	TrialList	0	7	444690	16	0	16	442390	0	1	{RIGHTARROW}	-999999	0	444156	0	{RIGHTARROW}	527	444683	NA	NA	right	llrll.bmp	354	0	NA	0	0	0	0	NA	0	0	0	NA	0	0	0	0	NA	0	0	4	1	63
Arrow Flanker 2014	12263	1	"<?xml version=""1.0""?>\n<Clock xmlns:dt=""urn:schemas-microsoft-com:datatypes""><Description dt:dt=""string"">E-Prime Primary Realtime Clock</Description><StartTime><Timestamp dt:dt=""int"">0</Timestamp><DateUtc dt:dt=""string"">2015-05-11T19:14:37Z</DateUtc></StartTime><FrequencyChanges><FrequencyChange><Frequency dt:dt=""r8"">2825664</Frequency><Timestamp dt:dt=""r8"">5184709905086</Timestamp><Current dt:dt=""r8"">0</Current><DateUtc dt:dt=""string"">2015-05-11T19:14:37Z</DateUtc></FrequencyChange></FrequencyChanges></Clock>\n"	Arrow Flanker 2014-12263-1	60.018	1.0.0.100	1	684921247	Professional	2.0.10.353	2.0.10.353	05-11-2015	5/11/2015 7:14:37 PM	15:14:37	2.0.10.248	3	1	1	1	NA	NA	NA	NA	NA	NA	NA	NA	NA	NA	NA	NA	NA	NA	NA	NA	NA	NA	NA	NA	NA	NA	NA	NA	BlockProc	BlockList	NA	64	{RIGHTARROW}	NA	-100	771	neutral	NA	NA	NA	NA	NA	NA	NA	NA	NA	NA	NA	NA	NA	NA	NA	NA	NA	NA	NA	NA	NA	NA	TrialProc	TrialList	0	14	446889	17	0	17	445223	0	1	{RIGHTARROW}	-999999	0	446339	0	{RIGHTARROW}	536	446875	NA	NA	right	ooroo.bmp	354	0	NA	0	0	0	0	NA	0	0	0	NA	0	0	0	0	NA	0	0	6	1	64
Arrow Flanker 2014	12263	1	"<?xml version=""1.0""?>\n<Clock xmlns:dt=""urn:schemas-microsoft-com:datatypes""><Description dt:dt=""string"">E-Prime Primary Realtime Clock</Description><StartTime><Timestamp dt:dt=""int"">0</Timestamp><DateUtc dt:dt=""string"">2015-05-11T19:14:37Z</DateUtc></StartTime><FrequencyChanges><FrequencyChange><Frequency dt:dt=""r8"">2825664</Frequency><Timestamp dt:dt=""r8"">5184709905086</Timestamp><Current dt:dt=""r8"">0</Current><DateUtc dt:dt=""string"">2015-05-11T19:14:37Z</DateUtc></FrequencyChange></FrequencyChanges></Clock>\n"	Arrow Flanker 2014-12263-1	60.018	1.0.0.100	1	684921247	Professional	2.0.10.353	2.0.10.353	05-11-2015	5/11/2015 7:14:37 PM	15:14:37	2.0.10.248	3	1	1	1	NA	NA	NA	NA	NA	NA	NA	NA	NA	NA	NA	NA	NA	NA	NA	NA	NA	NA	NA	NA	NA	NA	NA	NA	BlockProc	BlockList	NA	65	{RIGHTARROW}	NA	-100	937	neutral	NA	NA	NA	NA	NA	NA	NA	NA	NA	NA	NA	NA	NA	NA	NA	NA	NA	NA	NA	NA	NA	NA	TrialProc	TrialList	0	15	448922	16	0	16	447422	0	1	{RIGHTARROW}	-999999	0	448422	0	{RIGHTARROW}	484	448906	NA	NA	right	ooroo.bmp	354	0	NA	0	0	0	0	NA	0	0	0	NA	0	0	0	0	NA	0	0	6	1	65
Arrow Flanker 2014	12263	1	"<?xml version=""1.0""?>\n<Clock xmlns:dt=""urn:schemas-microsoft-com:datatypes""><Description dt:dt=""string"">E-Prime Primary Realtime Clock</Description><StartTime><Timestamp dt:dt=""int"">0</Timestamp><DateUtc dt:dt=""string"">2015-05-11T19:14:37Z</DateUtc></StartTime><FrequencyChanges><FrequencyChange><Frequency dt:dt=""r8"">2825664</Frequency><Timestamp dt:dt=""r8"">5184709905086</Timestamp><Current dt:dt=""r8"">0</Current><DateUtc dt:dt=""string"">2015-05-11T19:14:37Z</DateUtc></FrequencyChange></FrequencyChanges></Clock>\n"	Arrow Flanker 2014-12263-1	60.018	1.0.0.100	1	684921247	Professional	2.0.10.353	2.0.10.353	05-11-2015	5/11/2015 7:14:37 PM	15:14:37	2.0.10.248	3	1	1	1	NA	NA	NA	NA	NA	NA	NA	NA	NA	NA	NA	NA	NA	NA	NA	NA	NA	NA	NA	NA	NA	NA	NA	NA	BlockProc	BlockList	NA	66	{RIGHTARROW}	NA	-100	1598	incongruent	NA	NA	NA	NA	NA	NA	NA	NA	NA	NA	NA	NA	NA	NA	NA	NA	NA	NA	NA	NA	NA	NA	TrialProc	TrialList	1	13	451687	17	0	17	449455	0	1	{RIGHTARROW}	-999999	0	451154	0	{RIGHTARROW}	520	451674	NA	NA	right	llrll.bmp	354	0	NA	0	0	0	0	NA	0	0	0	NA	0	0	0	0	NA	0	0	4	1	66
Arrow Flanker 2014	12263	1	"<?xml version=""1.0""?>\n<Clock xmlns:dt=""urn:schemas-microsoft-com:datatypes""><Description dt:dt=""string"">E-Prime Primary Realtime Clock</Description><StartTime><Timestamp dt:dt=""int"">0</Timestamp><DateUtc dt:dt=""string"">2015-05-11T19:14:37Z</DateUtc></StartTime><FrequencyChanges><FrequencyChange><Frequency dt:dt=""r8"">2825664</Frequency><Timestamp dt:dt=""r8"">5184709905086</Timestamp><Current dt:dt=""r8"">0</Current><DateUtc dt:dt=""string"">2015-05-11T19:14:37Z</DateUtc></FrequencyChange></FrequencyChanges></Clock>\n"	Arrow Flanker 2014-12263-1	60.018	1.0.0.100	1	684921247	Professional	2.0.10.353	2.0.10.353	05-11-2015	5/11/2015 7:14:37 PM	15:14:37	2.0.10.248	3	1	1	1	NA	NA	NA	NA	NA	NA	NA	NA	NA	NA	NA	NA	NA	NA	NA	NA	NA	NA	NA	NA	NA	NA	NA	NA	BlockProc	BlockList	NA	67	{LEFTARROW}	NA	-100	1751	congruent	NA	NA	NA	NA	NA	NA	NA	NA	NA	NA	NA	NA	NA	NA	NA	NA	NA	NA	NA	NA	NA	NA	TrialProc	TrialList	0	17	453787	16	0	17	452221	0	1	{LEFTARROW}	-999999	0	453404	0	{LEFTARROW}	366	453770	NA	NA	left	lllll.bmp	354	0	NA	0	0	0	0	NA	0	0	0	NA	0	0	0	0	NA	0	0	1	1	67
Arrow Flanker 2014	12263	1	"<?xml version=""1.0""?>\n<Clock xmlns:dt=""urn:schemas-microsoft-com:datatypes""><Description dt:dt=""string"">E-Prime Primary Realtime Clock</Description><StartTime><Timestamp dt:dt=""int"">0</Timestamp><DateUtc dt:dt=""string"">2015-05-11T19:14:37Z</DateUtc></StartTime><FrequencyChanges><FrequencyChange><Frequency dt:dt=""r8"">2825664</Frequency><Timestamp dt:dt=""r8"">5184709905086</Timestamp><Current dt:dt=""r8"">0</Current><DateUtc dt:dt=""string"">2015-05-11T19:14:37Z</DateUtc></FrequencyChange></FrequencyChanges></Clock>\n"	Arrow Flanker 2014-12263-1	60.018	1.0.0.100	1	684921247	Professional	2.0.10.353	2.0.10.353	05-11-2015	5/11/2015 7:14:37 PM	15:14:37	2.0.10.248	3	1	1	1	NA	NA	NA	NA	NA	NA	NA	NA	NA	NA	NA	NA	NA	NA	NA	NA	NA	NA	NA	NA	NA	NA	NA	NA	BlockProc	BlockList	NA	68	{LEFTARROW}	NA	-100	1053	congruent	NA	NA	NA	NA	NA	NA	NA	NA	NA	NA	NA	NA	NA	NA	NA	NA	NA	NA	NA	NA	NA	NA	TrialProc	TrialList	0	6	455920	16	0	17	454320	0	1	{LEFTARROW}	-999999	0	455453	0	{LEFTARROW}	461	455914	NA	NA	left	lllll.bmp	354	0	NA	0	0	0	0	NA	0	0	0	NA	0	0	0	0	NA	0	0	1	1	68
Arrow Flanker 2014	12263	1	"<?xml version=""1.0""?>\n<Clock xmlns:dt=""urn:schemas-microsoft-com:datatypes""><Description dt:dt=""string"">E-Prime Primary Realtime Clock</Description><StartTime><Timestamp dt:dt=""int"">0</Timestamp><DateUtc dt:dt=""string"">2015-05-11T19:14:37Z</DateUtc></StartTime><FrequencyChanges><FrequencyChange><Frequency dt:dt=""r8"">2825664</Frequency><Timestamp dt:dt=""r8"">5184709905086</Timestamp><Current dt:dt=""r8"">0</Current><DateUtc dt:dt=""string"">2015-05-11T19:14:37Z</DateUtc></FrequencyChange></FrequencyChanges></Clock>\n"	Arrow Flanker 2014-12263-1	60.018	1.0.0.100	1	684921247	Professional	2.0.10.353	2.0.10.353	05-11-2015	5/11/2015 7:14:37 PM	15:14:37	2.0.10.248	3	1	1	1	NA	NA	NA	NA	NA	NA	NA	NA	NA	NA	NA	NA	NA	NA	NA	NA	NA	NA	NA	NA	NA	NA	NA	NA	BlockProc	BlockList	NA	69	{RIGHTARROW}	NA	-100	1512	congruent	NA	NA	NA	NA	NA	NA	NA	NA	NA	NA	NA	NA	NA	NA	NA	NA	NA	NA	NA	NA	NA	NA	TrialProc	TrialList	0	12	458902	17	0	17	456453	0	1	{RIGHTARROW}	-999999	16	458402	0	{RIGHTARROW}	488	458890	NA	NA	right	rrrrr.bmp	354	0	NA	0	0	0	0	NA	0	0	0	NA	0	0	0	0	NA	0	0	2	1	69
Arrow Flanker 2014	12263	1	"<?xml version=""1.0""?>\n<Clock xmlns:dt=""urn:schemas-microsoft-com:datatypes""><Description dt:dt=""string"">E-Prime Primary Realtime Clock</Description><StartTime><Timestamp dt:dt=""int"">0</Timestamp><DateUtc dt:dt=""string"">2015-05-11T19:14:37Z</DateUtc></StartTime><FrequencyChanges><FrequencyChange><Frequency dt:dt=""r8"">2825664</Frequency><Timestamp dt:dt=""r8"">5184709905086</Timestamp><Current dt:dt=""r8"">0</Current><DateUtc dt:dt=""string"">2015-05-11T19:14:37Z</DateUtc></FrequencyChange></FrequencyChanges></Clock>\n"	Arrow Flanker 2014-12263-1	60.018	1.0.0.100	1	684921247	Professional	2.0.10.353	2.0.10.353	05-11-2015	5/11/2015 7:14:37 PM	15:14:37	2.0.10.248	3	1	1	1	NA	NA	NA	NA	NA	NA	NA	NA	NA	NA	NA	NA	NA	NA	NA	NA	NA	NA	NA	NA	NA	NA	NA	NA	BlockProc	BlockList	NA	70	{LEFTARROW}	NA	-100	1159	incongruent	NA	NA	NA	NA	NA	NA	NA	NA	NA	NA	NA	NA	NA	NA	NA	NA	NA	NA	NA	NA	2	1	TrialProc	TrialList	1	19	461501	17	0	16	459435	0	1	{LEFTARROW}	-999999	0	460968	0	{LEFTARROW}	514	461482	NA	NA	left	rrlrr.bmp	354	0	NA	-999999	16	462034	0	1	1784	463818	0	NA	-999999	16	463834	0	1	1392	465226	3	1	70
Arrow Flanker 2014	12263	1	"<?xml version=""1.0""?>\n<Clock xmlns:dt=""urn:schemas-microsoft-com:datatypes""><Description dt:dt=""string"">E-Prime Primary Realtime Clock</Description><StartTime><Timestamp dt:dt=""int"">0</Timestamp><DateUtc dt:dt=""string"">2015-05-11T19:14:37Z</DateUtc></StartTime><FrequencyChanges><FrequencyChange><Frequency dt:dt=""r8"">2825664</Frequency><Timestamp dt:dt=""r8"">5184709905086</Timestamp><Current dt:dt=""r8"">0</Current><DateUtc dt:dt=""string"">2015-05-11T19:14:37Z</DateUtc></FrequencyChange></FrequencyChanges></Clock>\n"	Arrow Flanker 2014-12263-1	60.018	1.0.0.100	1	684921247	Professional	2.0.10.353	2.0.10.353	05-11-2015	5/11/2015 7:14:37 PM	15:14:37	2.0.10.248	3	1	1	1	NA	NA	NA	NA	NA	NA	NA	NA	NA	NA	NA	NA	NA	NA	NA	NA	NA	NA	NA	NA	NA	NA	NA	NA	BlockProc	BlockList	NA	71	{LEFTARROW}	NA	-100	2005	neutral	NA	NA	NA	NA	NA	NA	NA	NA	NA	NA	NA	NA	NA	NA	NA	NA	NA	NA	NA	NA	NA	NA	TrialProc	TrialList	0	13	468566	16	0	22	466400	0	1	{LEFTARROW}	-999999	0	468133	0	{LEFTARROW}	420	468553	NA	NA	left	ooloo.bmp	354	0	NA	0	0	0	0	NA	0	0	0	NA	0	0	0	0	NA	0	0	5	1	71
Arrow Flanker 2014	12263	1	"<?xml version=""1.0""?>\n<Clock xmlns:dt=""urn:schemas-microsoft-com:datatypes""><Description dt:dt=""string"">E-Prime Primary Realtime Clock</Description><StartTime><Timestamp dt:dt=""int"">0</Timestamp><DateUtc dt:dt=""string"">2015-05-11T19:14:37Z</DateUtc></StartTime><FrequencyChanges><FrequencyChange><Frequency dt:dt=""r8"">2825664</Frequency><Timestamp dt:dt=""r8"">5184709905086</Timestamp><Current dt:dt=""r8"">0</Current><DateUtc dt:dt=""string"">2015-05-11T19:14:37Z</DateUtc></FrequencyChange></FrequencyChanges></Clock>\n"	Arrow Flanker 2014-12263-1	60.018	1.0.0.100	1	684921247	Professional	2.0.10.353	2.0.10.353	05-11-2015	5/11/2015 7:14:37 PM	15:14:37	2.0.10.248	3	1	1	1	NA	NA	NA	NA	NA	NA	NA	NA	NA	NA	NA	NA	NA	NA	NA	NA	NA	NA	NA	NA	NA	NA	NA	NA	BlockProc	BlockList	NA	72	{LEFTARROW}	NA	-100	851	neutral	NA	NA	NA	NA	NA	NA	NA	NA	NA	NA	NA	NA	NA	NA	NA	NA	NA	NA	NA	NA	NA	NA	TrialProc	TrialList	0	6	470815	17	0	17	469099	0	1	{LEFTARROW}	-999999	0	470399	0	{LEFTARROW}	410	470809	NA	NA	left	ooloo.bmp	354	0	NA	0	0	0	0	NA	0	0	0	NA	0	0	0	0	NA	0	0	5	1	72
Arrow Flanker 2014	12263	1	"<?xml version=""1.0""?>\n<Clock xmlns:dt=""urn:schemas-microsoft-com:datatypes""><Description dt:dt=""string"">E-Prime Primary Realtime Clock</Description><StartTime><Timestamp dt:dt=""int"">0</Timestamp><DateUtc dt:dt=""string"">2015-05-11T19:14:37Z</DateUtc></StartTime><FrequencyChanges><FrequencyChange><Frequency dt:dt=""r8"">2825664</Frequency><Timestamp dt:dt=""r8"">5184709905086</Timestamp><Current dt:dt=""r8"">0</Current><DateUtc dt:dt=""string"">2015-05-11T19:14:37Z</DateUtc></FrequencyChange></FrequencyChanges></Clock>\n"	Arrow Flanker 2014-12263-1	60.018	1.0.0.100	1	684921247	Professional	2.0.10.353	2.0.10.353	05-11-2015	5/11/2015 7:14:37 PM	15:14:37	2.0.10.248	3	1	1	1	NA	NA	NA	NA	NA	NA	NA	NA	NA	NA	NA	NA	NA	NA	NA	NA	NA	NA	NA	NA	NA	NA	NA	NA	BlockProc	BlockList	NA	73	{LEFTARROW}	NA	-100	1498	incongruent	NA	NA	NA	NA	NA	NA	NA	NA	NA	NA	NA	NA	NA	NA	NA	NA	NA	NA	NA	NA	NA	NA	TrialProc	TrialList	0	8	473681	17	0	16	471348	0	1	{LEFTARROW}	-999999	16	473131	0	{LEFTARROW}	542	473673	NA	NA	left	rrlrr.bmp	354	0	NA	0	0	0	0	NA	0	0	0	NA	0	0	0	0	NA	0	0	3	1	73
