ExperimentName	Subject	Session	Clock.Information	DataFile.Basename	Display.RefreshRate	ExperimentVersion	Group	RandomSeed	RuntimeCapabilities	RuntimeVersion	RuntimeVersionExpected	SessionDate	SessionStartDateTimeUtc	SessionTime	StudioVersion	Block	BlockList	BlockList.Cycle	BlockList.Sample	Both	CompletelyMW	CongMeanRT	CongTotal	Fragmented	GoodByeList	GoodByeList.Cycle	GoodByeList.Sample	IncongMeanRT	IncongTotal	MapBlockList	MapBlockList.Cycle	MapBlockList.Sample	Mindwandering	MostlyMW	MostlyOT	NeutralMeanRT	NeutralTotal	NumberProbes1	NumberProbes2	OnTask	PracBlockList	PracBlockList.Cycle	PracBlockList.Sample	Procedure[Block]	Running[Block]	Sequential	Trial	CorrectAnswer	CuePositionY	CuePositionY2	DurationOfFixation	FlankerType	MapTrialList	MapTrialList.Cycle	MapTrialList.Sample	PracSlideFixationStart.DurationError	PracSlideFixationStart.OnsetDelay	PracSlideFixationStart.OnsetTime	PracSlideFixationStart.OnsetToOnsetTime	PracSlideTarget.ACC	PracSlideTarget.CRESP	PracSlideTarget.DurationError	PracSlideTarget.OnsetDelay	PracSlideTarget.OnsetTime	PracSlideTarget.OnsetToOnsetTime	PracSlideTarget.RESP	PracSlideTarget.RT	PracSlideTarget.RTTime	PracSlideTarget.Tag	PracTrialList	PracTrialList.Cycle	PracTrialList.Sample	Probe1Resp	Probe2Resp	Procedure[Trial]	Running[Trial]	SlideFixationEnd.DurationError	SlideFixationEnd.OnsetDelay	SlideFixationEnd.OnsetTime	SlideFixationEnd.OnsetToOnsetTime	SlideFixationStart.DurationError	SlideFixationStart.OnsetDelay	SlideFixationStart.OnsetTime	SlideFixationStart.OnsetToOnsetTime	SlideTarget.ACC	SlideTarget.CRESP	SlideTarget.DurationError	SlideTarget.OnsetDelay	SlideTarget.OnsetTime	SlideTarget.OnsetToOnsetTime	SlideTarget.RESP	SlideTarget.RT	SlideTarget.RTTime	SlideTarget.Tag	TargerDirection	TargetDirection	TargetImage	TargetPosition	ThoughtProbe1.ACC	ThoughtProbe1.CRESP	ThoughtProbe1.DurationError	ThoughtProbe1.OnsetDelay	ThoughtProbe1.OnsetTime	ThoughtProbe1.OnsetToOnsetTime	ThoughtProbe1.RESP	ThoughtProbe1.RT	ThoughtProbe1.RTTime	ThoughtProbe2.ACC	ThoughtProbe2.CRESP	ThoughtProbe2.DurationError	ThoughtProbe2.OnsetDelay	ThoughtProbe2.OnsetTime	ThoughtProbe2.OnsetToOnsetTime	ThoughtProbe2.RESP	ThoughtProbe2.RT	ThoughtProbe2.RTTime	TrialList	TrialList.Cycle	TrialList.Sample
Arrow Flanker 2014	12280	1	"<?xml version=""1.0""?>\n<Clock xmlns:dt=""urn:schemas-microsoft-com:datatypes""><Description dt:dt=""string"">E-Prime Primary Realtime Clock</Description><StartTime><Timestamp dt:dt=""int"">0</Timestamp><DateUtc dt:dt=""string"">2015-05-15T15:53:59Z</DateUtc></StartTime><FrequencyChanges><FrequencyChange><Frequency dt:dt=""r8"">2825664</Frequency><Timestamp dt:dt=""r8"">6127114947103</Timestamp><Current dt:dt=""r8"">0</Current><DateUtc dt:dt=""string"">2015-05-15T15:53:59Z</DateUtc></FrequencyChange></FrequencyChanges></Clock>\n"	Arrow Flanker 2014-12280-1	60.018	1.0.0.100	1	-1802815560	Professional	2.0.10.353	2.0.10.353	05-15-2015	5/15/2015 3:54:00 PM	11:54:00	2.0.10.248	1	NA	NA	NA	NA	NA	NA	NA	NA	NA	NA	NA	NA	NA	1	1	1	NA	NA	NA	NA	NA	NA	NA	NA	NA	NA	NA	MapBlockProc	MapBlockList	NA	1	{RIGHTARROW}	-100	NA	718	NA	2	1	1	0	10	171493	733	0	{RIGHTARROW}	0	0	172726	1716	NA	0	0	NA	NA	NA	NA	NA	NA	MapTrialProc	MapTrialList	NA	NA	NA	NA	NA	NA	NA	NA	NA	NA	NA	NA	NA	NA	NA	NA	NA	NA	right	NA	R.bmp	354	NA	NA	NA	NA	NA	NA	NA	NA	NA	NA	NA	NA	NA	NA	NA	NA	NA	NA	NA	NA	NA
Arrow Flanker 2014	12280	1	"<?xml version=""1.0""?>\n<Clock xmlns:dt=""urn:schemas-microsoft-com:datatypes""><Description dt:dt=""string"">E-Prime Primary Realtime Clock</Description><StartTime><Timestamp dt:dt=""int"">0</Timestamp><DateUtc dt:dt=""string"">2015-05-15T15:53:59Z</DateUtc></StartTime><FrequencyChanges><FrequencyChange><Frequency dt:dt=""r8"">2825664</Frequency><Timestamp dt:dt=""r8"">6127114947103</Timestamp><Current dt:dt=""r8"">0</Current><DateUtc dt:dt=""string"">2015-05-15T15:53:59Z</DateUtc></FrequencyChange></FrequencyChanges></Clock>\n"	Arrow Flanker 2014-12280-1	60.018	1.0.0.100	1	-1802815560	Professional	2.0.10.353	2.0.10.353	05-15-2015	5/15/2015 3:54:00 PM	11:54:00	2.0.10.248	1	NA	NA	NA	NA	NA	NA	NA	NA	NA	NA	NA	NA	NA	1	1	1	NA	NA	NA	NA	NA	NA	NA	NA	NA	NA	NA	MapBlockProc	MapBlockList	NA	2	{RIGHTARROW}	-100	NA	1203	NA	2	1	2	0	16	175958	1216	0	{RIGHTARROW}	0	0	177674	1700	NA	0	0	NA	NA	NA	NA	NA	NA	MapTrialProc	MapTrialList	NA	NA	NA	NA	NA	NA	NA	NA	NA	NA	NA	NA	NA	NA	NA	NA	NA	NA	right	NA	R.bmp	354	NA	NA	NA	NA	NA	NA	NA	NA	NA	NA	NA	NA	NA	NA	NA	NA	NA	NA	NA	NA	NA
Arrow Flanker 2014	12280	1	"<?xml version=""1.0""?>\n<Clock xmlns:dt=""urn:schemas-microsoft-com:datatypes""><Description dt:dt=""string"">E-Prime Primary Realtime Clock</Description><StartTime><Timestamp dt:dt=""int"">0</Timestamp><DateUtc dt:dt=""string"">2015-05-15T15:53:59Z</DateUtc></StartTime><FrequencyChanges><FrequencyChange><Frequency dt:dt=""r8"">2825664</Frequency><Timestamp dt:dt=""r8"">6127114947103</Timestamp><Current dt:dt=""r8"">0</Current><DateUtc dt:dt=""string"">2015-05-15T15:53:59Z</DateUtc></FrequencyChange></FrequencyChanges></Clock>\n"	Arrow Flanker 2014-12280-1	60.018	1.0.0.100	1	-1802815560	Professional	2.0.10.353	2.0.10.353	05-15-2015	5/15/2015 3:54:00 PM	11:54:00	2.0.10.248	1	NA	NA	NA	NA	NA	NA	NA	NA	NA	NA	NA	NA	NA	1	1	1	NA	NA	NA	NA	NA	NA	NA	NA	NA	NA	NA	MapBlockProc	MapBlockList	NA	3	{RIGHTARROW}	-100	NA	907	NA	2	1	3	0	16	180890	917	0	{RIGHTARROW}	0	0	182306	1700	NA	0	0	NA	NA	NA	NA	NA	NA	MapTrialProc	MapTrialList	NA	NA	NA	NA	NA	NA	NA	NA	NA	NA	NA	NA	NA	NA	NA	NA	NA	NA	right	NA	R.bmp	354	NA	NA	NA	NA	NA	NA	NA	NA	NA	NA	NA	NA	NA	NA	NA	NA	NA	NA	NA	NA	NA
Arrow Flanker 2014	12280	1	"<?xml version=""1.0""?>\n<Clock xmlns:dt=""urn:schemas-microsoft-com:datatypes""><Description dt:dt=""string"">E-Prime Primary Realtime Clock</Description><StartTime><Timestamp dt:dt=""int"">0</Timestamp><DateUtc dt:dt=""string"">2015-05-15T15:53:59Z</DateUtc></StartTime><FrequencyChanges><FrequencyChange><Frequency dt:dt=""r8"">2825664</Frequency><Timestamp dt:dt=""r8"">6127114947103</Timestamp><Current dt:dt=""r8"">0</Current><DateUtc dt:dt=""string"">2015-05-15T15:53:59Z</DateUtc></FrequencyChange></FrequencyChanges></Clock>\n"	Arrow Flanker 2014-12280-1	60.018	1.0.0.100	1	-1802815560	Professional	2.0.10.353	2.0.10.353	05-15-2015	5/15/2015 3:54:00 PM	11:54:00	2.0.10.248	1	NA	NA	NA	NA	NA	NA	NA	NA	NA	NA	NA	NA	NA	1	1	1	NA	NA	NA	NA	NA	NA	NA	NA	NA	NA	NA	MapBlockProc	MapBlockList	NA	4	{LEFTARROW}	-100	NA	1112	NA	1	1	4	0	16	185522	1116	0	{LEFTARROW}	-999999	0	187138	0	{RIGHTARROW}	88	187226	NA	NA	NA	NA	NA	NA	MapTrialProc	MapTrialList	NA	NA	NA	NA	NA	NA	NA	NA	NA	NA	NA	NA	NA	NA	NA	NA	NA	NA	left	NA	L.bmp	354	NA	NA	NA	NA	NA	NA	NA	NA	NA	NA	NA	NA	NA	NA	NA	NA	NA	NA	NA	NA	NA
Arrow Flanker 2014	12280	1	"<?xml version=""1.0""?>\n<Clock xmlns:dt=""urn:schemas-microsoft-com:datatypes""><Description dt:dt=""string"">E-Prime Primary Realtime Clock</Description><StartTime><Timestamp dt:dt=""int"">0</Timestamp><DateUtc dt:dt=""string"">2015-05-15T15:53:59Z</DateUtc></StartTime><FrequencyChanges><FrequencyChange><Frequency dt:dt=""r8"">2825664</Frequency><Timestamp dt:dt=""r8"">6127114947103</Timestamp><Current dt:dt=""r8"">0</Current><DateUtc dt:dt=""string"">2015-05-15T15:53:59Z</DateUtc></FrequencyChange></FrequencyChanges></Clock>\n"	Arrow Flanker 2014-12280-1	60.018	1.0.0.100	1	-1802815560	Professional	2.0.10.353	2.0.10.353	05-15-2015	5/15/2015 3:54:00 PM	11:54:00	2.0.10.248	1	NA	NA	NA	NA	NA	NA	NA	NA	NA	NA	NA	NA	NA	1	1	1	NA	NA	NA	NA	NA	NA	NA	NA	NA	NA	NA	MapBlockProc	MapBlockList	NA	5	{LEFTARROW}	-100	NA	501	NA	1	1	5	0	16	188754	517	0	{LEFTARROW}	0	0	189771	1716	NA	0	0	NA	NA	NA	NA	NA	NA	MapTrialProc	MapTrialList	NA	NA	NA	NA	NA	NA	NA	NA	NA	NA	NA	NA	NA	NA	NA	NA	NA	NA	left	NA	L.bmp	354	NA	NA	NA	NA	NA	NA	NA	NA	NA	NA	NA	NA	NA	NA	NA	NA	NA	NA	NA	NA	NA
Arrow Flanker 2014	12280	1	"<?xml version=""1.0""?>\n<Clock xmlns:dt=""urn:schemas-microsoft-com:datatypes""><Description dt:dt=""string"">E-Prime Primary Realtime Clock</Description><StartTime><Timestamp dt:dt=""int"">0</Timestamp><DateUtc dt:dt=""string"">2015-05-15T15:53:59Z</DateUtc></StartTime><FrequencyChanges><FrequencyChange><Frequency dt:dt=""r8"">2825664</Frequency><Timestamp dt:dt=""r8"">6127114947103</Timestamp><Current dt:dt=""r8"">0</Current><DateUtc dt:dt=""string"">2015-05-15T15:53:59Z</DateUtc></FrequencyChange></FrequencyChanges></Clock>\n"	Arrow Flanker 2014-12280-1	60.018	1.0.0.100	1	-1802815560	Professional	2.0.10.353	2.0.10.353	05-15-2015	5/15/2015 3:54:00 PM	11:54:00	2.0.10.248	1	NA	NA	NA	NA	NA	NA	NA	NA	NA	NA	NA	NA	NA	1	1	1	NA	NA	NA	NA	NA	NA	NA	NA	NA	NA	NA	MapBlockProc	MapBlockList	NA	6	{LEFTARROW}	-100	NA	1267	NA	1	1	6	0	16	193003	1283	1	{LEFTARROW}	-999999	0	194786	0	{LEFTARROW}	455	195241	NA	NA	NA	NA	NA	NA	MapTrialProc	MapTrialList	NA	NA	NA	NA	NA	NA	NA	NA	NA	NA	NA	NA	NA	NA	NA	NA	NA	NA	left	NA	L.bmp	354	NA	NA	NA	NA	NA	NA	NA	NA	NA	NA	NA	NA	NA	NA	NA	NA	NA	NA	NA	NA	NA
Arrow Flanker 2014	12280	1	"<?xml version=""1.0""?>\n<Clock xmlns:dt=""urn:schemas-microsoft-com:datatypes""><Description dt:dt=""string"">E-Prime Primary Realtime Clock</Description><StartTime><Timestamp dt:dt=""int"">0</Timestamp><DateUtc dt:dt=""string"">2015-05-15T15:53:59Z</DateUtc></StartTime><FrequencyChanges><FrequencyChange><Frequency dt:dt=""r8"">2825664</Frequency><Timestamp dt:dt=""r8"">6127114947103</Timestamp><Current dt:dt=""r8"">0</Current><DateUtc dt:dt=""string"">2015-05-15T15:53:59Z</DateUtc></FrequencyChange></FrequencyChanges></Clock>\n"	Arrow Flanker 2014-12280-1	60.018	1.0.0.100	1	-1802815560	Professional	2.0.10.353	2.0.10.353	05-15-2015	5/15/2015 3:54:00 PM	11:54:00	2.0.10.248	1	NA	NA	NA	NA	NA	NA	NA	NA	NA	NA	NA	NA	NA	1	1	1	NA	NA	NA	NA	NA	NA	NA	NA	NA	NA	NA	MapBlockProc	MapBlockList	NA	7	{RIGHTARROW}	-100	NA	759	NA	2	1	7	0	17	196769	766	0	{RIGHTARROW}	0	0	198035	1716	NA	0	0	NA	NA	NA	NA	NA	NA	MapTrialProc	MapTrialList	NA	NA	NA	NA	NA	NA	NA	NA	NA	NA	NA	NA	NA	NA	NA	NA	NA	NA	right	NA	R.bmp	354	NA	NA	NA	NA	NA	NA	NA	NA	NA	NA	NA	NA	NA	NA	NA	NA	NA	NA	NA	NA	NA
Arrow Flanker 2014	12280	1	"<?xml version=""1.0""?>\n<Clock xmlns:dt=""urn:schemas-microsoft-com:datatypes""><Description dt:dt=""string"">E-Prime Primary Realtime Clock</Description><StartTime><Timestamp dt:dt=""int"">0</Timestamp><DateUtc dt:dt=""string"">2015-05-15T15:53:59Z</DateUtc></StartTime><FrequencyChanges><FrequencyChange><Frequency dt:dt=""r8"">2825664</Frequency><Timestamp dt:dt=""r8"">6127114947103</Timestamp><Current dt:dt=""r8"">0</Current><DateUtc dt:dt=""string"">2015-05-15T15:53:59Z</DateUtc></FrequencyChange></FrequencyChanges></Clock>\n"	Arrow Flanker 2014-12280-1	60.018	1.0.0.100	1	-1802815560	Professional	2.0.10.353	2.0.10.353	05-15-2015	5/15/2015 3:54:00 PM	11:54:00	2.0.10.248	1	NA	NA	NA	NA	NA	NA	NA	NA	NA	NA	NA	NA	NA	1	1	1	NA	NA	NA	NA	NA	NA	NA	NA	NA	NA	NA	MapBlockProc	MapBlockList	NA	8	{LEFTARROW}	-100	NA	1279	NA	1	1	8	0	16	201267	1283	1	{LEFTARROW}	-999999	0	203050	0	{LEFTARROW}	1039	204089	NA	NA	NA	NA	NA	NA	MapTrialProc	MapTrialList	NA	NA	NA	NA	NA	NA	NA	NA	NA	NA	NA	NA	NA	NA	NA	NA	NA	NA	left	NA	L.bmp	354	NA	NA	NA	NA	NA	NA	NA	NA	NA	NA	NA	NA	NA	NA	NA	NA	NA	NA	NA	NA	NA
Arrow Flanker 2014	12280	1	"<?xml version=""1.0""?>\n<Clock xmlns:dt=""urn:schemas-microsoft-com:datatypes""><Description dt:dt=""string"">E-Prime Primary Realtime Clock</Description><StartTime><Timestamp dt:dt=""int"">0</Timestamp><DateUtc dt:dt=""string"">2015-05-15T15:53:59Z</DateUtc></StartTime><FrequencyChanges><FrequencyChange><Frequency dt:dt=""r8"">2825664</Frequency><Timestamp dt:dt=""r8"">6127114947103</Timestamp><Current dt:dt=""r8"">0</Current><DateUtc dt:dt=""string"">2015-05-15T15:53:59Z</DateUtc></FrequencyChange></FrequencyChanges></Clock>\n"	Arrow Flanker 2014-12280-1	60.018	1.0.0.100	1	-1802815560	Professional	2.0.10.353	2.0.10.353	05-15-2015	5/15/2015 3:54:00 PM	11:54:00	2.0.10.248	1	NA	NA	NA	NA	NA	NA	NA	NA	NA	NA	NA	NA	NA	1	1	1	NA	NA	NA	NA	NA	NA	NA	NA	NA	NA	NA	MapBlockProc	MapBlockList	NA	9	{RIGHTARROW}	-100	NA	1007	NA	2	1	9	0	16	205616	1016	1	{RIGHTARROW}	-999999	0	207132	0	{RIGHTARROW}	924	208056	NA	NA	NA	NA	NA	NA	MapTrialProc	MapTrialList	NA	NA	NA	NA	NA	NA	NA	NA	NA	NA	NA	NA	NA	NA	NA	NA	NA	NA	right	NA	R.bmp	354	NA	NA	NA	NA	NA	NA	NA	NA	NA	NA	NA	NA	NA	NA	NA	NA	NA	NA	NA	NA	NA
Arrow Flanker 2014	12280	1	"<?xml version=""1.0""?>\n<Clock xmlns:dt=""urn:schemas-microsoft-com:datatypes""><Description dt:dt=""string"">E-Prime Primary Realtime Clock</Description><StartTime><Timestamp dt:dt=""int"">0</Timestamp><DateUtc dt:dt=""string"">2015-05-15T15:53:59Z</DateUtc></StartTime><FrequencyChanges><FrequencyChange><Frequency dt:dt=""r8"">2825664</Frequency><Timestamp dt:dt=""r8"">6127114947103</Timestamp><Current dt:dt=""r8"">0</Current><DateUtc dt:dt=""string"">2015-05-15T15:53:59Z</DateUtc></FrequencyChange></FrequencyChanges></Clock>\n"	Arrow Flanker 2014-12280-1	60.018	1.0.0.100	1	-1802815560	Professional	2.0.10.353	2.0.10.353	05-15-2015	5/15/2015 3:54:00 PM	11:54:00	2.0.10.248	1	NA	NA	NA	NA	NA	NA	NA	NA	NA	NA	NA	NA	NA	1	1	1	NA	NA	NA	NA	NA	NA	NA	NA	NA	NA	NA	MapBlockProc	MapBlockList	NA	10	{LEFTARROW}	-100	NA	415	NA	1	1	10	0	16	209598	417	1	{LEFTARROW}	-999999	0	210515	0	{LEFTARROW}	949	211464	NA	NA	NA	NA	NA	NA	MapTrialProc	MapTrialList	NA	NA	NA	NA	NA	NA	NA	NA	NA	NA	NA	NA	NA	NA	NA	NA	NA	NA	left	NA	L.bmp	354	NA	NA	NA	NA	NA	NA	NA	NA	NA	NA	NA	NA	NA	NA	NA	NA	NA	NA	NA	NA	NA
Arrow Flanker 2014	12280	1	"<?xml version=""1.0""?>\n<Clock xmlns:dt=""urn:schemas-microsoft-com:datatypes""><Description dt:dt=""string"">E-Prime Primary Realtime Clock</Description><StartTime><Timestamp dt:dt=""int"">0</Timestamp><DateUtc dt:dt=""string"">2015-05-15T15:53:59Z</DateUtc></StartTime><FrequencyChanges><FrequencyChange><Frequency dt:dt=""r8"">2825664</Frequency><Timestamp dt:dt=""r8"">6127114947103</Timestamp><Current dt:dt=""r8"">0</Current><DateUtc dt:dt=""string"">2015-05-15T15:53:59Z</DateUtc></FrequencyChange></FrequencyChanges></Clock>\n"	Arrow Flanker 2014-12280-1	60.018	1.0.0.100	1	-1802815560	Professional	2.0.10.353	2.0.10.353	05-15-2015	5/15/2015 3:54:00 PM	11:54:00	2.0.10.248	2	NA	NA	NA	NA	NA	NA	NA	NA	NA	NA	NA	NA	NA	NA	NA	NA	NA	NA	NA	NA	NA	NA	NA	NA	1	1	1	PracBlockProc	PracBlockList	NA	1	{RIGHTARROW}	-100	NA	694	congruent	NA	NA	NA	0	17	244055	699	1	{RIGHTARROW}	0	0	245254	0	{RIGHTARROW}	1600	246854	NA	4	1	1	NA	NA	PracTrialProc	PracTrialList	NA	NA	NA	NA	NA	NA	NA	NA	NA	NA	NA	NA	NA	NA	NA	NA	NA	NA	right	NA	rrrrr.bmp	354	NA	NA	NA	NA	NA	NA	NA	NA	NA	NA	NA	NA	NA	NA	NA	NA	NA	NA	NA	NA	NA
Arrow Flanker 2014	12280	1	"<?xml version=""1.0""?>\n<Clock xmlns:dt=""urn:schemas-microsoft-com:datatypes""><Description dt:dt=""string"">E-Prime Primary Realtime Clock</Description><StartTime><Timestamp dt:dt=""int"">0</Timestamp><DateUtc dt:dt=""string"">2015-05-15T15:53:59Z</DateUtc></StartTime><FrequencyChanges><FrequencyChange><Frequency dt:dt=""r8"">2825664</Frequency><Timestamp dt:dt=""r8"">6127114947103</Timestamp><Current dt:dt=""r8"">0</Current><DateUtc dt:dt=""string"">2015-05-15T15:53:59Z</DateUtc></FrequencyChange></FrequencyChanges></Clock>\n"	Arrow Flanker 2014-12280-1	60.018	1.0.0.100	1	-1802815560	Professional	2.0.10.353	2.0.10.353	05-15-2015	5/15/2015 3:54:00 PM	11:54:00	2.0.10.248	2	NA	NA	NA	NA	NA	NA	NA	NA	NA	NA	NA	NA	NA	NA	NA	NA	NA	NA	NA	NA	NA	NA	NA	NA	1	1	1	PracBlockProc	PracBlockList	NA	2	{LEFTARROW}	-100	NA	1532	congruent	NA	NA	NA	0	17	248387	1532	1	{LEFTARROW}	-999999	0	250419	0	{LEFTARROW}	1187	251606	NA	1	1	2	NA	NA	PracTrialProc	PracTrialList	NA	NA	NA	NA	NA	NA	NA	NA	NA	NA	NA	NA	NA	NA	NA	NA	NA	NA	left	NA	lllll.bmp	354	NA	NA	NA	NA	NA	NA	NA	NA	NA	NA	NA	NA	NA	NA	NA	NA	NA	NA	NA	NA	NA
Arrow Flanker 2014	12280	1	"<?xml version=""1.0""?>\n<Clock xmlns:dt=""urn:schemas-microsoft-com:datatypes""><Description dt:dt=""string"">E-Prime Primary Realtime Clock</Description><StartTime><Timestamp dt:dt=""int"">0</Timestamp><DateUtc dt:dt=""string"">2015-05-15T15:53:59Z</DateUtc></StartTime><FrequencyChanges><FrequencyChange><Frequency dt:dt=""r8"">2825664</Frequency><Timestamp dt:dt=""r8"">6127114947103</Timestamp><Current dt:dt=""r8"">0</Current><DateUtc dt:dt=""string"">2015-05-15T15:53:59Z</DateUtc></FrequencyChange></FrequencyChanges></Clock>\n"	Arrow Flanker 2014-12280-1	60.018	1.0.0.100	1	-1802815560	Professional	2.0.10.353	2.0.10.353	05-15-2015	5/15/2015 3:54:00 PM	11:54:00	2.0.10.248	2	NA	NA	NA	NA	NA	NA	NA	NA	NA	NA	NA	NA	NA	NA	NA	NA	NA	NA	NA	NA	NA	NA	NA	NA	1	1	1	PracBlockProc	PracBlockList	NA	3	{RIGHTARROW}	-100	NA	1195	incongruent	NA	NA	NA	0	16	253135	1200	0	{RIGHTARROW}	0	0	254835	1716	NA	0	0	NA	5	1	3	NA	NA	PracTrialProc	PracTrialList	NA	NA	NA	NA	NA	NA	NA	NA	NA	NA	NA	NA	NA	NA	NA	NA	NA	NA	right	NA	llrll.bmp	354	NA	NA	NA	NA	NA	NA	NA	NA	NA	NA	NA	NA	NA	NA	NA	NA	NA	NA	NA	NA	NA
Arrow Flanker 2014	12280	1	"<?xml version=""1.0""?>\n<Clock xmlns:dt=""urn:schemas-microsoft-com:datatypes""><Description dt:dt=""string"">E-Prime Primary Realtime Clock</Description><StartTime><Timestamp dt:dt=""int"">0</Timestamp><DateUtc dt:dt=""string"">2015-05-15T15:53:59Z</DateUtc></StartTime><FrequencyChanges><FrequencyChange><Frequency dt:dt=""r8"">2825664</Frequency><Timestamp dt:dt=""r8"">6127114947103</Timestamp><Current dt:dt=""r8"">0</Current><DateUtc dt:dt=""string"">2015-05-15T15:53:59Z</DateUtc></FrequencyChange></FrequencyChanges></Clock>\n"	Arrow Flanker 2014-12280-1	60.018	1.0.0.100	1	-1802815560	Professional	2.0.10.353	2.0.10.353	05-15-2015	5/15/2015 3:54:00 PM	11:54:00	2.0.10.248	2	NA	NA	NA	NA	NA	NA	NA	NA	NA	NA	NA	NA	NA	NA	NA	NA	NA	NA	NA	NA	NA	NA	NA	NA	1	1	1	PracBlockProc	PracBlockList	NA	4	{LEFTARROW}	-100	NA	527	incongruent	NA	NA	NA	0	16	258067	533	0	{LEFTARROW}	0	0	259100	1716	NA	0	0	NA	2	1	4	NA	NA	PracTrialProc	PracTrialList	NA	NA	NA	NA	NA	NA	NA	NA	NA	NA	NA	NA	NA	NA	NA	NA	NA	NA	left	NA	rrlrr.bmp	354	NA	NA	NA	NA	NA	NA	NA	NA	NA	NA	NA	NA	NA	NA	NA	NA	NA	NA	NA	NA	NA
Arrow Flanker 2014	12280	1	"<?xml version=""1.0""?>\n<Clock xmlns:dt=""urn:schemas-microsoft-com:datatypes""><Description dt:dt=""string"">E-Prime Primary Realtime Clock</Description><StartTime><Timestamp dt:dt=""int"">0</Timestamp><DateUtc dt:dt=""string"">2015-05-15T15:53:59Z</DateUtc></StartTime><FrequencyChanges><FrequencyChange><Frequency dt:dt=""r8"">2825664</Frequency><Timestamp dt:dt=""r8"">6127114947103</Timestamp><Current dt:dt=""r8"">0</Current><DateUtc dt:dt=""string"">2015-05-15T15:53:59Z</DateUtc></FrequencyChange></FrequencyChanges></Clock>\n"	Arrow Flanker 2014-12280-1	60.018	1.0.0.100	1	-1802815560	Professional	2.0.10.353	2.0.10.353	05-15-2015	5/15/2015 3:54:00 PM	11:54:00	2.0.10.248	2	NA	NA	NA	NA	NA	NA	NA	NA	NA	NA	NA	NA	NA	NA	NA	NA	NA	NA	NA	NA	NA	NA	NA	NA	1	1	1	PracBlockProc	PracBlockList	NA	5	{LEFTARROW}	-100	NA	1268	neutral	NA	NA	NA	0	16	262332	1283	0	{LEFTARROW}	0	0	264115	1700	NA	0	0	NA	3	1	5	NA	NA	PracTrialProc	PracTrialList	NA	NA	NA	NA	NA	NA	NA	NA	NA	NA	NA	NA	NA	NA	NA	NA	NA	NA	left	NA	ooloo.bmp	354	NA	NA	NA	NA	NA	NA	NA	NA	NA	NA	NA	NA	NA	NA	NA	NA	NA	NA	NA	NA	NA
Arrow Flanker 2014	12280	1	"<?xml version=""1.0""?>\n<Clock xmlns:dt=""urn:schemas-microsoft-com:datatypes""><Description dt:dt=""string"">E-Prime Primary Realtime Clock</Description><StartTime><Timestamp dt:dt=""int"">0</Timestamp><DateUtc dt:dt=""string"">2015-05-15T15:53:59Z</DateUtc></StartTime><FrequencyChanges><FrequencyChange><Frequency dt:dt=""r8"">2825664</Frequency><Timestamp dt:dt=""r8"">6127114947103</Timestamp><Current dt:dt=""r8"">0</Current><DateUtc dt:dt=""string"">2015-05-15T15:53:59Z</DateUtc></FrequencyChange></FrequencyChanges></Clock>\n"	Arrow Flanker 2014-12280-1	60.018	1.0.0.100	1	-1802815560	Professional	2.0.10.353	2.0.10.353	05-15-2015	5/15/2015 3:54:00 PM	11:54:00	2.0.10.248	2	NA	NA	NA	NA	NA	NA	NA	NA	NA	NA	NA	NA	NA	NA	NA	NA	NA	NA	NA	NA	NA	NA	NA	NA	1	1	1	PracBlockProc	PracBlockList	NA	6	{RIGHTARROW}	-100	NA	400	neutral	NA	NA	NA	0	16	267331	400	1	{RIGHTARROW}	-999999	0	268231	0	{RIGHTARROW}	1422	269653	NA	6	1	6	NA	NA	PracTrialProc	PracTrialList	NA	NA	NA	NA	NA	NA	NA	NA	NA	NA	NA	NA	NA	NA	NA	NA	NA	NA	right	NA	ooroo.bmp	354	NA	NA	NA	NA	NA	NA	NA	NA	NA	NA	NA	NA	NA	NA	NA	NA	NA	NA	NA	NA	NA
Arrow Flanker 2014	12280	1	"<?xml version=""1.0""?>\n<Clock xmlns:dt=""urn:schemas-microsoft-com:datatypes""><Description dt:dt=""string"">E-Prime Primary Realtime Clock</Description><StartTime><Timestamp dt:dt=""int"">0</Timestamp><DateUtc dt:dt=""string"">2015-05-15T15:53:59Z</DateUtc></StartTime><FrequencyChanges><FrequencyChange><Frequency dt:dt=""r8"">2825664</Frequency><Timestamp dt:dt=""r8"">6127114947103</Timestamp><Current dt:dt=""r8"">0</Current><DateUtc dt:dt=""string"">2015-05-15T15:53:59Z</DateUtc></FrequencyChange></FrequencyChanges></Clock>\n"	Arrow Flanker 2014-12280-1	60.018	1.0.0.100	1	-1802815560	Professional	2.0.10.353	2.0.10.353	05-15-2015	5/15/2015 3:54:00 PM	11:54:00	2.0.10.248	3	NA	NA	NA	NA	NA	NA	NA	NA	NA	NA	NA	NA	NA	NA	NA	NA	NA	NA	NA	NA	NA	NA	NA	NA	1	2	2	PracBlockProc	PracBlockList	NA	1	{LEFTARROW}	-100	NA	1393	congruent	NA	NA	NA	0	5	278361	1400	1	{LEFTARROW}	-999999	0	280260	0	{LEFTARROW}	1168	281428	NA	1	2	7	NA	NA	PracTrialProc	PracTrialList	NA	NA	NA	NA	NA	NA	NA	NA	NA	NA	NA	NA	NA	NA	NA	NA	NA	NA	left	NA	lllll.bmp	354	NA	NA	NA	NA	NA	NA	NA	NA	NA	NA	NA	NA	NA	NA	NA	NA	NA	NA	NA	NA	NA
Arrow Flanker 2014	12280	1	"<?xml version=""1.0""?>\n<Clock xmlns:dt=""urn:schemas-microsoft-com:datatypes""><Description dt:dt=""string"">E-Prime Primary Realtime Clock</Description><StartTime><Timestamp dt:dt=""int"">0</Timestamp><DateUtc dt:dt=""string"">2015-05-15T15:53:59Z</DateUtc></StartTime><FrequencyChanges><FrequencyChange><Frequency dt:dt=""r8"">2825664</Frequency><Timestamp dt:dt=""r8"">6127114947103</Timestamp><Current dt:dt=""r8"">0</Current><DateUtc dt:dt=""string"">2015-05-15T15:53:59Z</DateUtc></FrequencyChange></FrequencyChanges></Clock>\n"	Arrow Flanker 2014-12280-1	60.018	1.0.0.100	1	-1802815560	Professional	2.0.10.353	2.0.10.353	05-15-2015	5/15/2015 3:54:00 PM	11:54:00	2.0.10.248	3	NA	NA	NA	NA	NA	NA	NA	NA	NA	NA	NA	NA	NA	NA	NA	NA	NA	NA	NA	NA	NA	NA	NA	NA	1	2	2	PracBlockProc	PracBlockList	NA	2	{LEFTARROW}	-100	NA	1197	incongruent	NA	NA	NA	0	17	282960	1199	0	{LEFTARROW}	0	0	284659	1700	NA	0	0	NA	2	2	8	NA	NA	PracTrialProc	PracTrialList	NA	NA	NA	NA	NA	NA	NA	NA	NA	NA	NA	NA	NA	NA	NA	NA	NA	NA	left	NA	rrlrr.bmp	354	NA	NA	NA	NA	NA	NA	NA	NA	NA	NA	NA	NA	NA	NA	NA	NA	NA	NA	NA	NA	NA
Arrow Flanker 2014	12280	1	"<?xml version=""1.0""?>\n<Clock xmlns:dt=""urn:schemas-microsoft-com:datatypes""><Description dt:dt=""string"">E-Prime Primary Realtime Clock</Description><StartTime><Timestamp dt:dt=""int"">0</Timestamp><DateUtc dt:dt=""string"">2015-05-15T15:53:59Z</DateUtc></StartTime><FrequencyChanges><FrequencyChange><Frequency dt:dt=""r8"">2825664</Frequency><Timestamp dt:dt=""r8"">6127114947103</Timestamp><Current dt:dt=""r8"">0</Current><DateUtc dt:dt=""string"">2015-05-15T15:53:59Z</DateUtc></FrequencyChange></FrequencyChanges></Clock>\n"	Arrow Flanker 2014-12280-1	60.018	1.0.0.100	1	-1802815560	Professional	2.0.10.353	2.0.10.353	05-15-2015	5/15/2015 3:54:00 PM	11:54:00	2.0.10.248	3	NA	NA	NA	NA	NA	NA	NA	NA	NA	NA	NA	NA	NA	NA	NA	NA	NA	NA	NA	NA	NA	NA	NA	NA	1	2	2	PracBlockProc	PracBlockList	NA	3	{RIGHTARROW}	-100	NA	448	congruent	NA	NA	NA	0	16	287875	450	1	{RIGHTARROW}	-999999	16	288841	0	{RIGHTARROW}	458	289299	NA	4	2	9	NA	NA	PracTrialProc	PracTrialList	NA	NA	NA	NA	NA	NA	NA	NA	NA	NA	NA	NA	NA	NA	NA	NA	NA	NA	right	NA	rrrrr.bmp	354	NA	NA	NA	NA	NA	NA	NA	NA	NA	NA	NA	NA	NA	NA	NA	NA	NA	NA	NA	NA	NA
Arrow Flanker 2014	12280	1	"<?xml version=""1.0""?>\n<Clock xmlns:dt=""urn:schemas-microsoft-com:datatypes""><Description dt:dt=""string"">E-Prime Primary Realtime Clock</Description><StartTime><Timestamp dt:dt=""int"">0</Timestamp><DateUtc dt:dt=""string"">2015-05-15T15:53:59Z</DateUtc></StartTime><FrequencyChanges><FrequencyChange><Frequency dt:dt=""r8"">2825664</Frequency><Timestamp dt:dt=""r8"">6127114947103</Timestamp><Current dt:dt=""r8"">0</Current><DateUtc dt:dt=""string"">2015-05-15T15:53:59Z</DateUtc></FrequencyChange></FrequencyChanges></Clock>\n"	Arrow Flanker 2014-12280-1	60.018	1.0.0.100	1	-1802815560	Professional	2.0.10.353	2.0.10.353	05-15-2015	5/15/2015 3:54:00 PM	11:54:00	2.0.10.248	3	NA	NA	NA	NA	NA	NA	NA	NA	NA	NA	NA	NA	NA	NA	NA	NA	NA	NA	NA	NA	NA	NA	NA	NA	1	2	2	PracBlockProc	PracBlockList	NA	4	{RIGHTARROW}	-100	NA	798	neutral	NA	NA	NA	0	17	290841	799	1	{RIGHTARROW}	-999999	0	292140	0	{RIGHTARROW}	935	293075	NA	6	2	10	NA	NA	PracTrialProc	PracTrialList	NA	NA	NA	NA	NA	NA	NA	NA	NA	NA	NA	NA	NA	NA	NA	NA	NA	NA	right	NA	ooroo.bmp	354	NA	NA	NA	NA	NA	NA	NA	NA	NA	NA	NA	NA	NA	NA	NA	NA	NA	NA	NA	NA	NA
Arrow Flanker 2014	12280	1	"<?xml version=""1.0""?>\n<Clock xmlns:dt=""urn:schemas-microsoft-com:datatypes""><Description dt:dt=""string"">E-Prime Primary Realtime Clock</Description><StartTime><Timestamp dt:dt=""int"">0</Timestamp><DateUtc dt:dt=""string"">2015-05-15T15:53:59Z</DateUtc></StartTime><FrequencyChanges><FrequencyChange><Frequency dt:dt=""r8"">2825664</Frequency><Timestamp dt:dt=""r8"">6127114947103</Timestamp><Current dt:dt=""r8"">0</Current><DateUtc dt:dt=""string"">2015-05-15T15:53:59Z</DateUtc></FrequencyChange></FrequencyChanges></Clock>\n"	Arrow Flanker 2014-12280-1	60.018	1.0.0.100	1	-1802815560	Professional	2.0.10.353	2.0.10.353	05-15-2015	5/15/2015 3:54:00 PM	11:54:00	2.0.10.248	3	NA	NA	NA	NA	NA	NA	NA	NA	NA	NA	NA	NA	NA	NA	NA	NA	NA	NA	NA	NA	NA	NA	NA	NA	1	2	2	PracBlockProc	PracBlockList	NA	5	{LEFTARROW}	-100	NA	487	neutral	NA	NA	NA	0	16	294606	500	1	{LEFTARROW}	-999999	0	295606	0	{LEFTARROW}	765	296371	NA	3	2	11	NA	NA	PracTrialProc	PracTrialList	NA	NA	NA	NA	NA	NA	NA	NA	NA	NA	NA	NA	NA	NA	NA	NA	NA	NA	left	NA	ooloo.bmp	354	NA	NA	NA	NA	NA	NA	NA	NA	NA	NA	NA	NA	NA	NA	NA	NA	NA	NA	NA	NA	NA
Arrow Flanker 2014	12280	1	"<?xml version=""1.0""?>\n<Clock xmlns:dt=""urn:schemas-microsoft-com:datatypes""><Description dt:dt=""string"">E-Prime Primary Realtime Clock</Description><StartTime><Timestamp dt:dt=""int"">0</Timestamp><DateUtc dt:dt=""string"">2015-05-15T15:53:59Z</DateUtc></StartTime><FrequencyChanges><FrequencyChange><Frequency dt:dt=""r8"">2825664</Frequency><Timestamp dt:dt=""r8"">6127114947103</Timestamp><Current dt:dt=""r8"">0</Current><DateUtc dt:dt=""string"">2015-05-15T15:53:59Z</DateUtc></FrequencyChange></FrequencyChanges></Clock>\n"	Arrow Flanker 2014-12280-1	60.018	1.0.0.100	1	-1802815560	Professional	2.0.10.353	2.0.10.353	05-15-2015	5/15/2015 3:54:00 PM	11:54:00	2.0.10.248	3	NA	NA	NA	NA	NA	NA	NA	NA	NA	NA	NA	NA	NA	NA	NA	NA	NA	NA	NA	NA	NA	NA	NA	NA	1	2	2	PracBlockProc	PracBlockList	NA	6	{RIGHTARROW}	-100	NA	894	incongruent	NA	NA	NA	0	16	297905	900	0	{RIGHTARROW}	0	0	299305	1716	NA	0	0	NA	5	2	12	NA	NA	PracTrialProc	PracTrialList	NA	NA	NA	NA	NA	NA	NA	NA	NA	NA	NA	NA	NA	NA	NA	NA	NA	NA	right	NA	llrll.bmp	354	NA	NA	NA	NA	NA	NA	NA	NA	NA	NA	NA	NA	NA	NA	NA	NA	NA	NA	NA	NA	NA
Arrow Flanker 2014	12280	1	"<?xml version=""1.0""?>\n<Clock xmlns:dt=""urn:schemas-microsoft-com:datatypes""><Description dt:dt=""string"">E-Prime Primary Realtime Clock</Description><StartTime><Timestamp dt:dt=""int"">0</Timestamp><DateUtc dt:dt=""string"">2015-05-15T15:53:59Z</DateUtc></StartTime><FrequencyChanges><FrequencyChange><Frequency dt:dt=""r8"">2825664</Frequency><Timestamp dt:dt=""r8"">6127114947103</Timestamp><Current dt:dt=""r8"">0</Current><DateUtc dt:dt=""string"">2015-05-15T15:53:59Z</DateUtc></FrequencyChange></FrequencyChanges></Clock>\n"	Arrow Flanker 2014-12280-1	60.018	1.0.0.100	1	-1802815560	Professional	2.0.10.353	2.0.10.353	05-15-2015	5/15/2015 3:54:00 PM	11:54:00	2.0.10.248	4	NA	NA	NA	NA	NA	NA	NA	NA	NA	NA	NA	NA	NA	NA	NA	NA	NA	NA	NA	NA	NA	NA	NA	NA	1	3	3	PracBlockProc	PracBlockList	NA	1	{RIGHTARROW}	-100	NA	756	neutral	NA	NA	NA	0	9	305819	767	1	{RIGHTARROW}	-999999	0	307086	0	{RIGHTARROW}	1092	308178	NA	6	3	13	NA	NA	PracTrialProc	PracTrialList	NA	NA	NA	NA	NA	NA	NA	NA	NA	NA	NA	NA	NA	NA	NA	NA	NA	NA	right	NA	ooroo.bmp	354	NA	NA	NA	NA	NA	NA	NA	NA	NA	NA	NA	NA	NA	NA	NA	NA	NA	NA	NA	NA	NA
Arrow Flanker 2014	12280	1	"<?xml version=""1.0""?>\n<Clock xmlns:dt=""urn:schemas-microsoft-com:datatypes""><Description dt:dt=""string"">E-Prime Primary Realtime Clock</Description><StartTime><Timestamp dt:dt=""int"">0</Timestamp><DateUtc dt:dt=""string"">2015-05-15T15:53:59Z</DateUtc></StartTime><FrequencyChanges><FrequencyChange><Frequency dt:dt=""r8"">2825664</Frequency><Timestamp dt:dt=""r8"">6127114947103</Timestamp><Current dt:dt=""r8"">0</Current><DateUtc dt:dt=""string"">2015-05-15T15:53:59Z</DateUtc></FrequencyChange></FrequencyChanges></Clock>\n"	Arrow Flanker 2014-12280-1	60.018	1.0.0.100	1	-1802815560	Professional	2.0.10.353	2.0.10.353	05-15-2015	5/15/2015 3:54:00 PM	11:54:00	2.0.10.248	4	NA	NA	NA	NA	NA	NA	NA	NA	NA	NA	NA	NA	NA	NA	NA	NA	NA	NA	NA	NA	NA	NA	NA	NA	1	3	3	PracBlockProc	PracBlockList	NA	2	{RIGHTARROW}	-100	NA	1275	incongruent	NA	NA	NA	0	16	309718	1283	0	{RIGHTARROW}	-999999	0	311501	0	{LEFTARROW}	1173	312674	NA	5	3	14	NA	NA	PracTrialProc	PracTrialList	NA	NA	NA	NA	NA	NA	NA	NA	NA	NA	NA	NA	NA	NA	NA	NA	NA	NA	right	NA	llrll.bmp	354	NA	NA	NA	NA	NA	NA	NA	NA	NA	NA	NA	NA	NA	NA	NA	NA	NA	NA	NA	NA	NA
Arrow Flanker 2014	12280	1	"<?xml version=""1.0""?>\n<Clock xmlns:dt=""urn:schemas-microsoft-com:datatypes""><Description dt:dt=""string"">E-Prime Primary Realtime Clock</Description><StartTime><Timestamp dt:dt=""int"">0</Timestamp><DateUtc dt:dt=""string"">2015-05-15T15:53:59Z</DateUtc></StartTime><FrequencyChanges><FrequencyChange><Frequency dt:dt=""r8"">2825664</Frequency><Timestamp dt:dt=""r8"">6127114947103</Timestamp><Current dt:dt=""r8"">0</Current><DateUtc dt:dt=""string"">2015-05-15T15:53:59Z</DateUtc></FrequencyChange></FrequencyChanges></Clock>\n"	Arrow Flanker 2014-12280-1	60.018	1.0.0.100	1	-1802815560	Professional	2.0.10.353	2.0.10.353	05-15-2015	5/15/2015 3:54:00 PM	11:54:00	2.0.10.248	4	NA	NA	NA	NA	NA	NA	NA	NA	NA	NA	NA	NA	NA	NA	NA	NA	NA	NA	NA	NA	NA	NA	NA	NA	1	3	3	PracBlockProc	PracBlockList	NA	3	{RIGHTARROW}	-100	NA	1136	congruent	NA	NA	NA	0	16	314200	1150	1	{RIGHTARROW}	-999999	0	315850	0	{RIGHTARROW}	776	316626	NA	4	3	15	NA	NA	PracTrialProc	PracTrialList	NA	NA	NA	NA	NA	NA	NA	NA	NA	NA	NA	NA	NA	NA	NA	NA	NA	NA	right	NA	rrrrr.bmp	354	NA	NA	NA	NA	NA	NA	NA	NA	NA	NA	NA	NA	NA	NA	NA	NA	NA	NA	NA	NA	NA
Arrow Flanker 2014	12280	1	"<?xml version=""1.0""?>\n<Clock xmlns:dt=""urn:schemas-microsoft-com:datatypes""><Description dt:dt=""string"">E-Prime Primary Realtime Clock</Description><StartTime><Timestamp dt:dt=""int"">0</Timestamp><DateUtc dt:dt=""string"">2015-05-15T15:53:59Z</DateUtc></StartTime><FrequencyChanges><FrequencyChange><Frequency dt:dt=""r8"">2825664</Frequency><Timestamp dt:dt=""r8"">6127114947103</Timestamp><Current dt:dt=""r8"">0</Current><DateUtc dt:dt=""string"">2015-05-15T15:53:59Z</DateUtc></FrequencyChange></FrequencyChanges></Clock>\n"	Arrow Flanker 2014-12280-1	60.018	1.0.0.100	1	-1802815560	Professional	2.0.10.353	2.0.10.353	05-15-2015	5/15/2015 3:54:00 PM	11:54:00	2.0.10.248	4	NA	NA	NA	NA	NA	NA	NA	NA	NA	NA	NA	NA	NA	NA	NA	NA	NA	NA	NA	NA	NA	NA	NA	NA	1	3	3	PracBlockProc	PracBlockList	NA	4	{LEFTARROW}	-100	NA	1104	congruent	NA	NA	NA	0	16	318166	0	1	{LEFTARROW}	-999999	0	319782	0	{LEFTARROW}	683	320465	NA	1	3	16	NA	NA	PracTrialProc	PracTrialList	NA	NA	NA	NA	NA	NA	NA	NA	NA	NA	NA	NA	NA	NA	NA	NA	NA	NA	left	NA	lllll.bmp	354	NA	NA	NA	NA	NA	NA	NA	NA	NA	NA	NA	NA	NA	NA	NA	NA	NA	NA	NA	NA	NA
Arrow Flanker 2014	12280	1	"<?xml version=""1.0""?>\n<Clock xmlns:dt=""urn:schemas-microsoft-com:datatypes""><Description dt:dt=""string"">E-Prime Primary Realtime Clock</Description><StartTime><Timestamp dt:dt=""int"">0</Timestamp><DateUtc dt:dt=""string"">2015-05-15T15:53:59Z</DateUtc></StartTime><FrequencyChanges><FrequencyChange><Frequency dt:dt=""r8"">2825664</Frequency><Timestamp dt:dt=""r8"">6127114947103</Timestamp><Current dt:dt=""r8"">0</Current><DateUtc dt:dt=""string"">2015-05-15T15:53:59Z</DateUtc></FrequencyChange></FrequencyChanges></Clock>\n"	Arrow Flanker 2014-12280-1	60.018	1.0.0.100	1	-1802815560	Professional	2.0.10.353	2.0.10.353	05-15-2015	5/15/2015 3:54:00 PM	11:54:00	2.0.10.248	4	NA	NA	NA	NA	NA	NA	NA	NA	NA	NA	NA	NA	NA	NA	NA	NA	NA	NA	NA	NA	NA	NA	NA	NA	1	3	3	PracBlockProc	PracBlockList	NA	5	{LEFTARROW}	-100	NA	974	incongruent	NA	NA	NA	0	16	321998	0	0	{LEFTARROW}	-999999	0	323481	0	{RIGHTARROW}	984	324465	NA	2	3	17	NA	NA	PracTrialProc	PracTrialList	NA	NA	NA	NA	NA	NA	NA	NA	NA	NA	NA	NA	NA	NA	NA	NA	NA	NA	left	NA	rrlrr.bmp	354	NA	NA	NA	NA	NA	NA	NA	NA	NA	NA	NA	NA	NA	NA	NA	NA	NA	NA	NA	NA	NA
Arrow Flanker 2014	12280	1	"<?xml version=""1.0""?>\n<Clock xmlns:dt=""urn:schemas-microsoft-com:datatypes""><Description dt:dt=""string"">E-Prime Primary Realtime Clock</Description><StartTime><Timestamp dt:dt=""int"">0</Timestamp><DateUtc dt:dt=""string"">2015-05-15T15:53:59Z</DateUtc></StartTime><FrequencyChanges><FrequencyChange><Frequency dt:dt=""r8"">2825664</Frequency><Timestamp dt:dt=""r8"">6127114947103</Timestamp><Current dt:dt=""r8"">0</Current><DateUtc dt:dt=""string"">2015-05-15T15:53:59Z</DateUtc></FrequencyChange></FrequencyChanges></Clock>\n"	Arrow Flanker 2014-12280-1	60.018	1.0.0.100	1	-1802815560	Professional	2.0.10.353	2.0.10.353	05-15-2015	5/15/2015 3:54:00 PM	11:54:00	2.0.10.248	4	NA	NA	NA	NA	NA	NA	NA	NA	NA	NA	NA	NA	NA	NA	NA	NA	NA	NA	NA	NA	NA	NA	NA	NA	1	3	3	PracBlockProc	PracBlockList	NA	6	{LEFTARROW}	-100	NA	1284	neutral	NA	NA	NA	0	17	325997	0	1	{LEFTARROW}	-999999	0	327796	0	{LEFTARROW}	1197	328993	NA	3	3	18	NA	NA	PracTrialProc	PracTrialList	NA	NA	NA	NA	NA	NA	NA	NA	NA	NA	NA	NA	NA	NA	NA	NA	NA	NA	left	NA	ooloo.bmp	354	NA	NA	NA	NA	NA	NA	NA	NA	NA	NA	NA	NA	NA	NA	NA	NA	NA	NA	NA	NA	NA
Arrow Flanker 2014	12280	1	"<?xml version=""1.0""?>\n<Clock xmlns:dt=""urn:schemas-microsoft-com:datatypes""><Description dt:dt=""string"">E-Prime Primary Realtime Clock</Description><StartTime><Timestamp dt:dt=""int"">0</Timestamp><DateUtc dt:dt=""string"">2015-05-15T15:53:59Z</DateUtc></StartTime><FrequencyChanges><FrequencyChange><Frequency dt:dt=""r8"">2825664</Frequency><Timestamp dt:dt=""r8"">6127114947103</Timestamp><Current dt:dt=""r8"">0</Current><DateUtc dt:dt=""string"">2015-05-15T15:53:59Z</DateUtc></FrequencyChange></FrequencyChanges></Clock>\n"	Arrow Flanker 2014-12280-1	60.018	1.0.0.100	1	-1802815560	Professional	2.0.10.353	2.0.10.353	05-15-2015	5/15/2015 3:54:00 PM	11:54:00	2.0.10.248	5	NA	NA	NA	NA	NA	NA	NA	NA	NA	NA	NA	NA	NA	NA	NA	NA	NA	NA	NA	NA	NA	NA	NA	NA	1	4	4	PracBlockProc	PracBlockList	NA	1	{LEFTARROW}	-100	NA	1431	neutral	NA	NA	NA	0	21	335894	0	0	{LEFTARROW}	0	16	337843	1700	NA	0	0	NA	3	4	19	NA	NA	PracTrialProc	PracTrialList	NA	NA	NA	NA	NA	NA	NA	NA	NA	NA	NA	NA	NA	NA	NA	NA	NA	NA	left	NA	ooloo.bmp	354	NA	NA	NA	NA	NA	NA	NA	NA	NA	NA	NA	NA	NA	NA	NA	NA	NA	NA	NA	NA	NA
Arrow Flanker 2014	12280	1	"<?xml version=""1.0""?>\n<Clock xmlns:dt=""urn:schemas-microsoft-com:datatypes""><Description dt:dt=""string"">E-Prime Primary Realtime Clock</Description><StartTime><Timestamp dt:dt=""int"">0</Timestamp><DateUtc dt:dt=""string"">2015-05-15T15:53:59Z</DateUtc></StartTime><FrequencyChanges><FrequencyChange><Frequency dt:dt=""r8"">2825664</Frequency><Timestamp dt:dt=""r8"">6127114947103</Timestamp><Current dt:dt=""r8"">0</Current><DateUtc dt:dt=""string"">2015-05-15T15:53:59Z</DateUtc></FrequencyChange></FrequencyChanges></Clock>\n"	Arrow Flanker 2014-12280-1	60.018	1.0.0.100	1	-1802815560	Professional	2.0.10.353	2.0.10.353	05-15-2015	5/15/2015 3:54:00 PM	11:54:00	2.0.10.248	5	NA	NA	NA	NA	NA	NA	NA	NA	NA	NA	NA	NA	NA	NA	NA	NA	NA	NA	NA	NA	NA	NA	NA	NA	1	4	4	PracBlockProc	PracBlockList	NA	2	{RIGHTARROW}	-100	NA	432	congruent	NA	NA	NA	0	16	341059	0	1	{RIGHTARROW}	-999999	0	341992	0	{RIGHTARROW}	760	342752	NA	4	4	20	NA	NA	PracTrialProc	PracTrialList	NA	NA	NA	NA	NA	NA	NA	NA	NA	NA	NA	NA	NA	NA	NA	NA	NA	NA	right	NA	rrrrr.bmp	354	NA	NA	NA	NA	NA	NA	NA	NA	NA	NA	NA	NA	NA	NA	NA	NA	NA	NA	NA	NA	NA
Arrow Flanker 2014	12280	1	"<?xml version=""1.0""?>\n<Clock xmlns:dt=""urn:schemas-microsoft-com:datatypes""><Description dt:dt=""string"">E-Prime Primary Realtime Clock</Description><StartTime><Timestamp dt:dt=""int"">0</Timestamp><DateUtc dt:dt=""string"">2015-05-15T15:53:59Z</DateUtc></StartTime><FrequencyChanges><FrequencyChange><Frequency dt:dt=""r8"">2825664</Frequency><Timestamp dt:dt=""r8"">6127114947103</Timestamp><Current dt:dt=""r8"">0</Current><DateUtc dt:dt=""string"">2015-05-15T15:53:59Z</DateUtc></FrequencyChange></FrequencyChanges></Clock>\n"	Arrow Flanker 2014-12280-1	60.018	1.0.0.100	1	-1802815560	Professional	2.0.10.353	2.0.10.353	05-15-2015	5/15/2015 3:54:00 PM	11:54:00	2.0.10.248	5	NA	NA	NA	NA	NA	NA	NA	NA	NA	NA	NA	NA	NA	NA	NA	NA	NA	NA	NA	NA	NA	NA	NA	NA	1	4	4	PracBlockProc	PracBlockList	NA	3	{LEFTARROW}	-100	NA	1595	congruent	NA	NA	NA	0	16	344291	0	1	{LEFTARROW}	-999999	0	346391	0	{LEFTARROW}	633	347024	NA	1	4	21	NA	NA	PracTrialProc	PracTrialList	NA	NA	NA	NA	NA	NA	NA	NA	NA	NA	NA	NA	NA	NA	NA	NA	NA	NA	left	NA	lllll.bmp	354	NA	NA	NA	NA	NA	NA	NA	NA	NA	NA	NA	NA	NA	NA	NA	NA	NA	NA	NA	NA	NA
Arrow Flanker 2014	12280	1	"<?xml version=""1.0""?>\n<Clock xmlns:dt=""urn:schemas-microsoft-com:datatypes""><Description dt:dt=""string"">E-Prime Primary Realtime Clock</Description><StartTime><Timestamp dt:dt=""int"">0</Timestamp><DateUtc dt:dt=""string"">2015-05-15T15:53:59Z</DateUtc></StartTime><FrequencyChanges><FrequencyChange><Frequency dt:dt=""r8"">2825664</Frequency><Timestamp dt:dt=""r8"">6127114947103</Timestamp><Current dt:dt=""r8"">0</Current><DateUtc dt:dt=""string"">2015-05-15T15:53:59Z</DateUtc></FrequencyChange></FrequencyChanges></Clock>\n"	Arrow Flanker 2014-12280-1	60.018	1.0.0.100	1	-1802815560	Professional	2.0.10.353	2.0.10.353	05-15-2015	5/15/2015 3:54:00 PM	11:54:00	2.0.10.248	5	NA	NA	NA	NA	NA	NA	NA	NA	NA	NA	NA	NA	NA	NA	NA	NA	NA	NA	NA	NA	NA	NA	NA	NA	1	4	4	PracBlockProc	PracBlockList	NA	4	{RIGHTARROW}	-100	NA	933	neutral	NA	NA	NA	0	17	348557	0	0	{RIGHTARROW}	-999999	0	349990	0	{LEFTARROW}	1162	351152	NA	6	4	22	NA	NA	PracTrialProc	PracTrialList	NA	NA	NA	NA	NA	NA	NA	NA	NA	NA	NA	NA	NA	NA	NA	NA	NA	NA	right	NA	ooroo.bmp	354	NA	NA	NA	NA	NA	NA	NA	NA	NA	NA	NA	NA	NA	NA	NA	NA	NA	NA	NA	NA	NA
Arrow Flanker 2014	12280	1	"<?xml version=""1.0""?>\n<Clock xmlns:dt=""urn:schemas-microsoft-com:datatypes""><Description dt:dt=""string"">E-Prime Primary Realtime Clock</Description><StartTime><Timestamp dt:dt=""int"">0</Timestamp><DateUtc dt:dt=""string"">2015-05-15T15:53:59Z</DateUtc></StartTime><FrequencyChanges><FrequencyChange><Frequency dt:dt=""r8"">2825664</Frequency><Timestamp dt:dt=""r8"">6127114947103</Timestamp><Current dt:dt=""r8"">0</Current><DateUtc dt:dt=""string"">2015-05-15T15:53:59Z</DateUtc></FrequencyChange></FrequencyChanges></Clock>\n"	Arrow Flanker 2014-12280-1	60.018	1.0.0.100	1	-1802815560	Professional	2.0.10.353	2.0.10.353	05-15-2015	5/15/2015 3:54:00 PM	11:54:00	2.0.10.248	5	NA	NA	NA	NA	NA	NA	NA	NA	NA	NA	NA	NA	NA	NA	NA	NA	NA	NA	NA	NA	NA	NA	NA	NA	1	4	4	PracBlockProc	PracBlockList	NA	5	{RIGHTARROW}	-100	NA	1400	incongruent	NA	NA	NA	0	17	352689	0	1	{RIGHTARROW}	-999999	0	354605	0	{RIGHTARROW}	1058	355663	NA	5	4	23	NA	NA	PracTrialProc	PracTrialList	NA	NA	NA	NA	NA	NA	NA	NA	NA	NA	NA	NA	NA	NA	NA	NA	NA	NA	right	NA	llrll.bmp	354	NA	NA	NA	NA	NA	NA	NA	NA	NA	NA	NA	NA	NA	NA	NA	NA	NA	NA	NA	NA	NA
Arrow Flanker 2014	12280	1	"<?xml version=""1.0""?>\n<Clock xmlns:dt=""urn:schemas-microsoft-com:datatypes""><Description dt:dt=""string"">E-Prime Primary Realtime Clock</Description><StartTime><Timestamp dt:dt=""int"">0</Timestamp><DateUtc dt:dt=""string"">2015-05-15T15:53:59Z</DateUtc></StartTime><FrequencyChanges><FrequencyChange><Frequency dt:dt=""r8"">2825664</Frequency><Timestamp dt:dt=""r8"">6127114947103</Timestamp><Current dt:dt=""r8"">0</Current><DateUtc dt:dt=""string"">2015-05-15T15:53:59Z</DateUtc></FrequencyChange></FrequencyChanges></Clock>\n"	Arrow Flanker 2014-12280-1	60.018	1.0.0.100	1	-1802815560	Professional	2.0.10.353	2.0.10.353	05-15-2015	5/15/2015 3:54:00 PM	11:54:00	2.0.10.248	5	NA	NA	NA	NA	NA	NA	NA	NA	NA	NA	NA	NA	NA	NA	NA	NA	NA	NA	NA	NA	NA	NA	NA	NA	1	4	4	PracBlockProc	PracBlockList	NA	6	{LEFTARROW}	-100	NA	538	incongruent	NA	NA	NA	0	16	357204	0	1	{LEFTARROW}	-999999	0	358254	0	{LEFTARROW}	1329	359583	NA	2	4	24	NA	NA	PracTrialProc	PracTrialList	NA	NA	NA	NA	NA	NA	NA	NA	NA	NA	NA	NA	NA	NA	NA	NA	NA	NA	left	NA	rrlrr.bmp	354	NA	NA	NA	NA	NA	NA	NA	NA	NA	NA	NA	NA	NA	NA	NA	NA	NA	NA	NA	NA	NA
Arrow Flanker 2014	12280	1	"<?xml version=""1.0""?>\n<Clock xmlns:dt=""urn:schemas-microsoft-com:datatypes""><Description dt:dt=""string"">E-Prime Primary Realtime Clock</Description><StartTime><Timestamp dt:dt=""int"">0</Timestamp><DateUtc dt:dt=""string"">2015-05-15T15:53:59Z</DateUtc></StartTime><FrequencyChanges><FrequencyChange><Frequency dt:dt=""r8"">2825664</Frequency><Timestamp dt:dt=""r8"">6127114947103</Timestamp><Current dt:dt=""r8"">0</Current><DateUtc dt:dt=""string"">2015-05-15T15:53:59Z</DateUtc></FrequencyChange></FrequencyChanges></Clock>\n"	Arrow Flanker 2014-12280-1	60.018	1.0.0.100	1	-1802815560	Professional	2.0.10.353	2.0.10.353	05-15-2015	5/15/2015 3:54:00 PM	11:54:00	2.0.10.248	6	NA	NA	NA	NA	NA	NA	NA	NA	NA	NA	NA	NA	NA	NA	NA	NA	NA	NA	NA	NA	NA	NA	NA	NA	1	5	5	PracBlockProc	PracBlockList	NA	1	{LEFTARROW}	-100	NA	1299	neutral	NA	NA	NA	0	9	364952	0	0	{LEFTARROW}	0	0	366751	1700	NA	0	0	NA	3	5	25	NA	NA	PracTrialProc	PracTrialList	NA	NA	NA	NA	NA	NA	NA	NA	NA	NA	NA	NA	NA	NA	NA	NA	NA	NA	left	NA	ooloo.bmp	354	NA	NA	NA	NA	NA	NA	NA	NA	NA	NA	NA	NA	NA	NA	NA	NA	NA	NA	NA	NA	NA
Arrow Flanker 2014	12280	1	"<?xml version=""1.0""?>\n<Clock xmlns:dt=""urn:schemas-microsoft-com:datatypes""><Description dt:dt=""string"">E-Prime Primary Realtime Clock</Description><StartTime><Timestamp dt:dt=""int"">0</Timestamp><DateUtc dt:dt=""string"">2015-05-15T15:53:59Z</DateUtc></StartTime><FrequencyChanges><FrequencyChange><Frequency dt:dt=""r8"">2825664</Frequency><Timestamp dt:dt=""r8"">6127114947103</Timestamp><Current dt:dt=""r8"">0</Current><DateUtc dt:dt=""string"">2015-05-15T15:53:59Z</DateUtc></FrequencyChange></FrequencyChanges></Clock>\n"	Arrow Flanker 2014-12280-1	60.018	1.0.0.100	1	-1802815560	Professional	2.0.10.353	2.0.10.353	05-15-2015	5/15/2015 3:54:00 PM	11:54:00	2.0.10.248	6	NA	NA	NA	NA	NA	NA	NA	NA	NA	NA	NA	NA	NA	NA	NA	NA	NA	NA	NA	NA	NA	NA	NA	NA	1	5	5	PracBlockProc	PracBlockList	NA	2	{RIGHTARROW}	-100	NA	750	incongruent	NA	NA	NA	0	16	369967	0	0	{RIGHTARROW}	0	16	371233	1700	NA	0	0	NA	5	5	26	NA	NA	PracTrialProc	PracTrialList	NA	NA	NA	NA	NA	NA	NA	NA	NA	NA	NA	NA	NA	NA	NA	NA	NA	NA	right	NA	llrll.bmp	354	NA	NA	NA	NA	NA	NA	NA	NA	NA	NA	NA	NA	NA	NA	NA	NA	NA	NA	NA	NA	NA
Arrow Flanker 2014	12280	1	"<?xml version=""1.0""?>\n<Clock xmlns:dt=""urn:schemas-microsoft-com:datatypes""><Description dt:dt=""string"">E-Prime Primary Realtime Clock</Description><StartTime><Timestamp dt:dt=""int"">0</Timestamp><DateUtc dt:dt=""string"">2015-05-15T15:53:59Z</DateUtc></StartTime><FrequencyChanges><FrequencyChange><Frequency dt:dt=""r8"">2825664</Frequency><Timestamp dt:dt=""r8"">6127114947103</Timestamp><Current dt:dt=""r8"">0</Current><DateUtc dt:dt=""string"">2015-05-15T15:53:59Z</DateUtc></FrequencyChange></FrequencyChanges></Clock>\n"	Arrow Flanker 2014-12280-1	60.018	1.0.0.100	1	-1802815560	Professional	2.0.10.353	2.0.10.353	05-15-2015	5/15/2015 3:54:00 PM	11:54:00	2.0.10.248	6	NA	NA	NA	NA	NA	NA	NA	NA	NA	NA	NA	NA	NA	NA	NA	NA	NA	NA	NA	NA	NA	NA	NA	NA	1	5	5	PracBlockProc	PracBlockList	NA	3	{LEFTARROW}	-100	NA	1069	congruent	NA	NA	NA	0	16	374449	0	1	{LEFTARROW}	-999999	0	376032	0	{LEFTARROW}	862	376894	NA	1	5	27	NA	NA	PracTrialProc	PracTrialList	NA	NA	NA	NA	NA	NA	NA	NA	NA	NA	NA	NA	NA	NA	NA	NA	NA	NA	left	NA	lllll.bmp	354	NA	NA	NA	NA	NA	NA	NA	NA	NA	NA	NA	NA	NA	NA	NA	NA	NA	NA	NA	NA	NA
Arrow Flanker 2014	12280	1	"<?xml version=""1.0""?>\n<Clock xmlns:dt=""urn:schemas-microsoft-com:datatypes""><Description dt:dt=""string"">E-Prime Primary Realtime Clock</Description><StartTime><Timestamp dt:dt=""int"">0</Timestamp><DateUtc dt:dt=""string"">2015-05-15T15:53:59Z</DateUtc></StartTime><FrequencyChanges><FrequencyChange><Frequency dt:dt=""r8"">2825664</Frequency><Timestamp dt:dt=""r8"">6127114947103</Timestamp><Current dt:dt=""r8"">0</Current><DateUtc dt:dt=""string"">2015-05-15T15:53:59Z</DateUtc></FrequencyChange></FrequencyChanges></Clock>\n"	Arrow Flanker 2014-12280-1	60.018	1.0.0.100	1	-1802815560	Professional	2.0.10.353	2.0.10.353	05-15-2015	5/15/2015 3:54:00 PM	11:54:00	2.0.10.248	6	NA	NA	NA	NA	NA	NA	NA	NA	NA	NA	NA	NA	NA	NA	NA	NA	NA	NA	NA	NA	NA	NA	NA	NA	1	5	5	PracBlockProc	PracBlockList	NA	4	{RIGHTARROW}	-100	NA	816	congruent	NA	NA	NA	0	16	378431	0	1	{RIGHTARROW}	-999999	0	379747	0	{RIGHTARROW}	571	380318	NA	4	5	28	NA	NA	PracTrialProc	PracTrialList	NA	NA	NA	NA	NA	NA	NA	NA	NA	NA	NA	NA	NA	NA	NA	NA	NA	NA	right	NA	rrrrr.bmp	354	NA	NA	NA	NA	NA	NA	NA	NA	NA	NA	NA	NA	NA	NA	NA	NA	NA	NA	NA	NA	NA
Arrow Flanker 2014	12280	1	"<?xml version=""1.0""?>\n<Clock xmlns:dt=""urn:schemas-microsoft-com:datatypes""><Description dt:dt=""string"">E-Prime Primary Realtime Clock</Description><StartTime><Timestamp dt:dt=""int"">0</Timestamp><DateUtc dt:dt=""string"">2015-05-15T15:53:59Z</DateUtc></StartTime><FrequencyChanges><FrequencyChange><Frequency dt:dt=""r8"">2825664</Frequency><Timestamp dt:dt=""r8"">6127114947103</Timestamp><Current dt:dt=""r8"">0</Current><DateUtc dt:dt=""string"">2015-05-15T15:53:59Z</DateUtc></FrequencyChange></FrequencyChanges></Clock>\n"	Arrow Flanker 2014-12280-1	60.018	1.0.0.100	1	-1802815560	Professional	2.0.10.353	2.0.10.353	05-15-2015	5/15/2015 3:54:00 PM	11:54:00	2.0.10.248	6	NA	NA	NA	NA	NA	NA	NA	NA	NA	NA	NA	NA	NA	NA	NA	NA	NA	NA	NA	NA	NA	NA	NA	NA	1	5	5	PracBlockProc	PracBlockList	NA	5	{RIGHTARROW}	-100	NA	922	neutral	NA	NA	NA	0	17	381847	0	1	{RIGHTARROW}	-999999	0	383280	0	{RIGHTARROW}	990	384270	NA	6	5	29	NA	NA	PracTrialProc	PracTrialList	NA	NA	NA	NA	NA	NA	NA	NA	NA	NA	NA	NA	NA	NA	NA	NA	NA	NA	right	NA	ooroo.bmp	354	NA	NA	NA	NA	NA	NA	NA	NA	NA	NA	NA	NA	NA	NA	NA	NA	NA	NA	NA	NA	NA
Arrow Flanker 2014	12280	1	"<?xml version=""1.0""?>\n<Clock xmlns:dt=""urn:schemas-microsoft-com:datatypes""><Description dt:dt=""string"">E-Prime Primary Realtime Clock</Description><StartTime><Timestamp dt:dt=""int"">0</Timestamp><DateUtc dt:dt=""string"">2015-05-15T15:53:59Z</DateUtc></StartTime><FrequencyChanges><FrequencyChange><Frequency dt:dt=""r8"">2825664</Frequency><Timestamp dt:dt=""r8"">6127114947103</Timestamp><Current dt:dt=""r8"">0</Current><DateUtc dt:dt=""string"">2015-05-15T15:53:59Z</DateUtc></FrequencyChange></FrequencyChanges></Clock>\n"	Arrow Flanker 2014-12280-1	60.018	1.0.0.100	1	-1802815560	Professional	2.0.10.353	2.0.10.353	05-15-2015	5/15/2015 3:54:00 PM	11:54:00	2.0.10.248	6	NA	NA	NA	NA	NA	NA	NA	NA	NA	NA	NA	NA	NA	NA	NA	NA	NA	NA	NA	NA	NA	NA	NA	NA	1	5	5	PracBlockProc	PracBlockList	NA	6	{LEFTARROW}	-100	NA	844	incongruent	NA	NA	NA	0	16	385796	0	1	{LEFTARROW}	-999999	0	387145	0	{LEFTARROW}	1572	388717	NA	2	5	30	NA	NA	PracTrialProc	PracTrialList	NA	NA	NA	NA	NA	NA	NA	NA	NA	NA	NA	NA	NA	NA	NA	NA	NA	NA	left	NA	rrlrr.bmp	354	NA	NA	NA	NA	NA	NA	NA	NA	NA	NA	NA	NA	NA	NA	NA	NA	NA	NA	NA	NA	NA
Arrow Flanker 2014	12280	1	"<?xml version=""1.0""?>\n<Clock xmlns:dt=""urn:schemas-microsoft-com:datatypes""><Description dt:dt=""string"">E-Prime Primary Realtime Clock</Description><StartTime><Timestamp dt:dt=""int"">0</Timestamp><DateUtc dt:dt=""string"">2015-05-15T15:53:59Z</DateUtc></StartTime><FrequencyChanges><FrequencyChange><Frequency dt:dt=""r8"">2825664</Frequency><Timestamp dt:dt=""r8"">6127114947103</Timestamp><Current dt:dt=""r8"">0</Current><DateUtc dt:dt=""string"">2015-05-15T15:53:59Z</DateUtc></FrequencyChange></FrequencyChanges></Clock>\n"	Arrow Flanker 2014-12280-1	60.018	1.0.0.100	1	-1802815560	Professional	2.0.10.353	2.0.10.353	05-15-2015	5/15/2015 3:54:00 PM	11:54:00	2.0.10.248	7	NA	NA	NA	NA	NA	NA	NA	NA	NA	NA	NA	NA	NA	NA	NA	NA	NA	NA	NA	NA	NA	NA	NA	NA	1	6	6	PracBlockProc	PracBlockList	NA	1	{LEFTARROW}	-100	NA	1187	congruent	NA	NA	NA	0	19	393760	0	1	{LEFTARROW}	-999999	0	395459	0	{LEFTARROW}	1082	396541	NA	1	6	31	NA	NA	PracTrialProc	PracTrialList	NA	NA	NA	NA	NA	NA	NA	NA	NA	NA	NA	NA	NA	NA	NA	NA	NA	NA	left	NA	lllll.bmp	354	NA	NA	NA	NA	NA	NA	NA	NA	NA	NA	NA	NA	NA	NA	NA	NA	NA	NA	NA	NA	NA
Arrow Flanker 2014	12280	1	"<?xml version=""1.0""?>\n<Clock xmlns:dt=""urn:schemas-microsoft-com:datatypes""><Description dt:dt=""string"">E-Prime Primary Realtime Clock</Description><StartTime><Timestamp dt:dt=""int"">0</Timestamp><DateUtc dt:dt=""string"">2015-05-15T15:53:59Z</DateUtc></StartTime><FrequencyChanges><FrequencyChange><Frequency dt:dt=""r8"">2825664</Frequency><Timestamp dt:dt=""r8"">6127114947103</Timestamp><Current dt:dt=""r8"">0</Current><DateUtc dt:dt=""string"">2015-05-15T15:53:59Z</DateUtc></FrequencyChange></FrequencyChanges></Clock>\n"	Arrow Flanker 2014-12280-1	60.018	1.0.0.100	1	-1802815560	Professional	2.0.10.353	2.0.10.353	05-15-2015	5/15/2015 3:54:00 PM	11:54:00	2.0.10.248	7	NA	NA	NA	NA	NA	NA	NA	NA	NA	NA	NA	NA	NA	NA	NA	NA	NA	NA	NA	NA	NA	NA	NA	NA	1	6	6	PracBlockProc	PracBlockList	NA	2	{RIGHTARROW}	-100	NA	1442	congruent	NA	NA	NA	0	16	398075	0	1	{RIGHTARROW}	-999999	0	400025	0	{RIGHTARROW}	547	400572	NA	4	6	32	NA	NA	PracTrialProc	PracTrialList	NA	NA	NA	NA	NA	NA	NA	NA	NA	NA	NA	NA	NA	NA	NA	NA	NA	NA	right	NA	rrrrr.bmp	354	NA	NA	NA	NA	NA	NA	NA	NA	NA	NA	NA	NA	NA	NA	NA	NA	NA	NA	NA	NA	NA
Arrow Flanker 2014	12280	1	"<?xml version=""1.0""?>\n<Clock xmlns:dt=""urn:schemas-microsoft-com:datatypes""><Description dt:dt=""string"">E-Prime Primary Realtime Clock</Description><StartTime><Timestamp dt:dt=""int"">0</Timestamp><DateUtc dt:dt=""string"">2015-05-15T15:53:59Z</DateUtc></StartTime><FrequencyChanges><FrequencyChange><Frequency dt:dt=""r8"">2825664</Frequency><Timestamp dt:dt=""r8"">6127114947103</Timestamp><Current dt:dt=""r8"">0</Current><DateUtc dt:dt=""string"">2015-05-15T15:53:59Z</DateUtc></FrequencyChange></FrequencyChanges></Clock>\n"	Arrow Flanker 2014-12280-1	60.018	1.0.0.100	1	-1802815560	Professional	2.0.10.353	2.0.10.353	05-15-2015	5/15/2015 3:54:00 PM	11:54:00	2.0.10.248	7	NA	NA	NA	NA	NA	NA	NA	NA	NA	NA	NA	NA	NA	NA	NA	NA	NA	NA	NA	NA	NA	NA	NA	NA	1	6	6	PracBlockProc	PracBlockList	NA	3	{RIGHTARROW}	-100	NA	1523	incongruent	NA	NA	NA	0	16	402107	0	0	{RIGHTARROW}	-999999	0	404140	0	{LEFTARROW}	512	404652	NA	5	6	33	NA	NA	PracTrialProc	PracTrialList	NA	NA	NA	NA	NA	NA	NA	NA	NA	NA	NA	NA	NA	NA	NA	NA	NA	NA	right	NA	llrll.bmp	354	NA	NA	NA	NA	NA	NA	NA	NA	NA	NA	NA	NA	NA	NA	NA	NA	NA	NA	NA	NA	NA
Arrow Flanker 2014	12280	1	"<?xml version=""1.0""?>\n<Clock xmlns:dt=""urn:schemas-microsoft-com:datatypes""><Description dt:dt=""string"">E-Prime Primary Realtime Clock</Description><StartTime><Timestamp dt:dt=""int"">0</Timestamp><DateUtc dt:dt=""string"">2015-05-15T15:53:59Z</DateUtc></StartTime><FrequencyChanges><FrequencyChange><Frequency dt:dt=""r8"">2825664</Frequency><Timestamp dt:dt=""r8"">6127114947103</Timestamp><Current dt:dt=""r8"">0</Current><DateUtc dt:dt=""string"">2015-05-15T15:53:59Z</DateUtc></FrequencyChange></FrequencyChanges></Clock>\n"	Arrow Flanker 2014-12280-1	60.018	1.0.0.100	1	-1802815560	Professional	2.0.10.353	2.0.10.353	05-15-2015	5/15/2015 3:54:00 PM	11:54:00	2.0.10.248	7	NA	NA	NA	NA	NA	NA	NA	NA	NA	NA	NA	NA	NA	NA	NA	NA	NA	NA	NA	NA	NA	NA	NA	NA	1	6	6	PracBlockProc	PracBlockList	NA	4	{LEFTARROW}	-100	NA	629	incongruent	NA	NA	NA	0	16	406189	0	0	{LEFTARROW}	-999999	0	407322	0	{RIGHTARROW}	818	408140	NA	2	6	34	NA	NA	PracTrialProc	PracTrialList	NA	NA	NA	NA	NA	NA	NA	NA	NA	NA	NA	NA	NA	NA	NA	NA	NA	NA	left	NA	rrlrr.bmp	354	NA	NA	NA	NA	NA	NA	NA	NA	NA	NA	NA	NA	NA	NA	NA	NA	NA	NA	NA	NA	NA
Arrow Flanker 2014	12280	1	"<?xml version=""1.0""?>\n<Clock xmlns:dt=""urn:schemas-microsoft-com:datatypes""><Description dt:dt=""string"">E-Prime Primary Realtime Clock</Description><StartTime><Timestamp dt:dt=""int"">0</Timestamp><DateUtc dt:dt=""string"">2015-05-15T15:53:59Z</DateUtc></StartTime><FrequencyChanges><FrequencyChange><Frequency dt:dt=""r8"">2825664</Frequency><Timestamp dt:dt=""r8"">6127114947103</Timestamp><Current dt:dt=""r8"">0</Current><DateUtc dt:dt=""string"">2015-05-15T15:53:59Z</DateUtc></FrequencyChange></FrequencyChanges></Clock>\n"	Arrow Flanker 2014-12280-1	60.018	1.0.0.100	1	-1802815560	Professional	2.0.10.353	2.0.10.353	05-15-2015	5/15/2015 3:54:00 PM	11:54:00	2.0.10.248	7	NA	NA	NA	NA	NA	NA	NA	NA	NA	NA	NA	NA	NA	NA	NA	NA	NA	NA	NA	NA	NA	NA	NA	NA	1	6	6	PracBlockProc	PracBlockList	NA	5	{LEFTARROW}	-100	NA	521	neutral	NA	NA	NA	0	16	409672	0	1	{LEFTARROW}	-999999	0	410705	0	{LEFTARROW}	955	411660	NA	3	6	35	NA	NA	PracTrialProc	PracTrialList	NA	NA	NA	NA	NA	NA	NA	NA	NA	NA	NA	NA	NA	NA	NA	NA	NA	NA	left	NA	ooloo.bmp	354	NA	NA	NA	NA	NA	NA	NA	NA	NA	NA	NA	NA	NA	NA	NA	NA	NA	NA	NA	NA	NA
Arrow Flanker 2014	12280	1	"<?xml version=""1.0""?>\n<Clock xmlns:dt=""urn:schemas-microsoft-com:datatypes""><Description dt:dt=""string"">E-Prime Primary Realtime Clock</Description><StartTime><Timestamp dt:dt=""int"">0</Timestamp><DateUtc dt:dt=""string"">2015-05-15T15:53:59Z</DateUtc></StartTime><FrequencyChanges><FrequencyChange><Frequency dt:dt=""r8"">2825664</Frequency><Timestamp dt:dt=""r8"">6127114947103</Timestamp><Current dt:dt=""r8"">0</Current><DateUtc dt:dt=""string"">2015-05-15T15:53:59Z</DateUtc></FrequencyChange></FrequencyChanges></Clock>\n"	Arrow Flanker 2014-12280-1	60.018	1.0.0.100	1	-1802815560	Professional	2.0.10.353	2.0.10.353	05-15-2015	5/15/2015 3:54:00 PM	11:54:00	2.0.10.248	7	NA	NA	NA	NA	NA	NA	NA	NA	NA	NA	NA	NA	NA	NA	NA	NA	NA	NA	NA	NA	NA	NA	NA	NA	1	6	6	PracBlockProc	PracBlockList	NA	6	{RIGHTARROW}	-100	NA	668	neutral	NA	NA	NA	0	16	413187	0	0	{RIGHTARROW}	-999999	0	414370	0	{LEFTARROW}	1049	415419	NA	6	6	36	NA	NA	PracTrialProc	PracTrialList	NA	NA	NA	NA	NA	NA	NA	NA	NA	NA	NA	NA	NA	NA	NA	NA	NA	NA	right	NA	ooroo.bmp	354	NA	NA	NA	NA	NA	NA	NA	NA	NA	NA	NA	NA	NA	NA	NA	NA	NA	NA	NA	NA	NA
Arrow Flanker 2014	12280	1	"<?xml version=""1.0""?>\n<Clock xmlns:dt=""urn:schemas-microsoft-com:datatypes""><Description dt:dt=""string"">E-Prime Primary Realtime Clock</Description><StartTime><Timestamp dt:dt=""int"">0</Timestamp><DateUtc dt:dt=""string"">2015-05-15T15:53:59Z</DateUtc></StartTime><FrequencyChanges><FrequencyChange><Frequency dt:dt=""r8"">2825664</Frequency><Timestamp dt:dt=""r8"">6127114947103</Timestamp><Current dt:dt=""r8"">0</Current><DateUtc dt:dt=""string"">2015-05-15T15:53:59Z</DateUtc></FrequencyChange></FrequencyChanges></Clock>\n"	Arrow Flanker 2014-12280-1	60.018	1.0.0.100	1	-1802815560	Professional	2.0.10.353	2.0.10.353	05-15-2015	5/15/2015 3:54:00 PM	11:54:00	2.0.10.248	8	NA	NA	NA	NA	NA	NA	NA	NA	NA	NA	NA	NA	NA	NA	NA	NA	NA	NA	NA	NA	NA	NA	NA	NA	1	7	7	PracBlockProc	PracBlockList	NA	1	{LEFTARROW}	-100	NA	405	incongruent	NA	NA	NA	0	13	421768	0	0	{LEFTARROW}	-999999	16	422701	0	{RIGHTARROW}	1518	424219	NA	2	7	37	NA	NA	PracTrialProc	PracTrialList	NA	NA	NA	NA	NA	NA	NA	NA	NA	NA	NA	NA	NA	NA	NA	NA	NA	NA	left	NA	rrlrr.bmp	354	NA	NA	NA	NA	NA	NA	NA	NA	NA	NA	NA	NA	NA	NA	NA	NA	NA	NA	NA	NA	NA
Arrow Flanker 2014	12280	1	"<?xml version=""1.0""?>\n<Clock xmlns:dt=""urn:schemas-microsoft-com:datatypes""><Description dt:dt=""string"">E-Prime Primary Realtime Clock</Description><StartTime><Timestamp dt:dt=""int"">0</Timestamp><DateUtc dt:dt=""string"">2015-05-15T15:53:59Z</DateUtc></StartTime><FrequencyChanges><FrequencyChange><Frequency dt:dt=""r8"">2825664</Frequency><Timestamp dt:dt=""r8"">6127114947103</Timestamp><Current dt:dt=""r8"">0</Current><DateUtc dt:dt=""string"">2015-05-15T15:53:59Z</DateUtc></FrequencyChange></FrequencyChanges></Clock>\n"	Arrow Flanker 2014-12280-1	60.018	1.0.0.100	1	-1802815560	Professional	2.0.10.353	2.0.10.353	05-15-2015	5/15/2015 3:54:00 PM	11:54:00	2.0.10.248	8	NA	NA	NA	NA	NA	NA	NA	NA	NA	NA	NA	NA	NA	NA	NA	NA	NA	NA	NA	NA	NA	NA	NA	NA	1	7	7	PracBlockProc	PracBlockList	NA	2	{LEFTARROW}	-100	NA	1307	neutral	NA	NA	NA	0	16	425750	0	1	{LEFTARROW}	-999999	0	427583	0	{LEFTARROW}	1004	428587	NA	3	7	38	NA	NA	PracTrialProc	PracTrialList	NA	NA	NA	NA	NA	NA	NA	NA	NA	NA	NA	NA	NA	NA	NA	NA	NA	NA	left	NA	ooloo.bmp	354	NA	NA	NA	NA	NA	NA	NA	NA	NA	NA	NA	NA	NA	NA	NA	NA	NA	NA	NA	NA	NA
Arrow Flanker 2014	12280	1	"<?xml version=""1.0""?>\n<Clock xmlns:dt=""urn:schemas-microsoft-com:datatypes""><Description dt:dt=""string"">E-Prime Primary Realtime Clock</Description><StartTime><Timestamp dt:dt=""int"">0</Timestamp><DateUtc dt:dt=""string"">2015-05-15T15:53:59Z</DateUtc></StartTime><FrequencyChanges><FrequencyChange><Frequency dt:dt=""r8"">2825664</Frequency><Timestamp dt:dt=""r8"">6127114947103</Timestamp><Current dt:dt=""r8"">0</Current><DateUtc dt:dt=""string"">2015-05-15T15:53:59Z</DateUtc></FrequencyChange></FrequencyChanges></Clock>\n"	Arrow Flanker 2014-12280-1	60.018	1.0.0.100	1	-1802815560	Professional	2.0.10.353	2.0.10.353	05-15-2015	5/15/2015 3:54:00 PM	11:54:00	2.0.10.248	8	NA	NA	NA	NA	NA	NA	NA	NA	NA	NA	NA	NA	NA	NA	NA	NA	NA	NA	NA	NA	NA	NA	NA	NA	1	7	7	PracBlockProc	PracBlockList	NA	3	{LEFTARROW}	-100	NA	1463	congruent	NA	NA	NA	0	17	430116	0	1	{LEFTARROW}	-999999	0	432082	0	{LEFTARROW}	1112	433194	NA	1	7	39	NA	NA	PracTrialProc	PracTrialList	NA	NA	NA	NA	NA	NA	NA	NA	NA	NA	NA	NA	NA	NA	NA	NA	NA	NA	left	NA	lllll.bmp	354	NA	NA	NA	NA	NA	NA	NA	NA	NA	NA	NA	NA	NA	NA	NA	NA	NA	NA	NA	NA	NA
Arrow Flanker 2014	12280	1	"<?xml version=""1.0""?>\n<Clock xmlns:dt=""urn:schemas-microsoft-com:datatypes""><Description dt:dt=""string"">E-Prime Primary Realtime Clock</Description><StartTime><Timestamp dt:dt=""int"">0</Timestamp><DateUtc dt:dt=""string"">2015-05-15T15:53:59Z</DateUtc></StartTime><FrequencyChanges><FrequencyChange><Frequency dt:dt=""r8"">2825664</Frequency><Timestamp dt:dt=""r8"">6127114947103</Timestamp><Current dt:dt=""r8"">0</Current><DateUtc dt:dt=""string"">2015-05-15T15:53:59Z</DateUtc></FrequencyChange></FrequencyChanges></Clock>\n"	Arrow Flanker 2014-12280-1	60.018	1.0.0.100	1	-1802815560	Professional	2.0.10.353	2.0.10.353	05-15-2015	5/15/2015 3:54:00 PM	11:54:00	2.0.10.248	8	NA	NA	NA	NA	NA	NA	NA	NA	NA	NA	NA	NA	NA	NA	NA	NA	NA	NA	NA	NA	NA	NA	NA	NA	1	7	7	PracBlockProc	PracBlockList	NA	4	{RIGHTARROW}	-100	NA	1239	congruent	NA	NA	NA	0	16	434731	0	1	{RIGHTARROW}	-999999	0	436480	0	{RIGHTARROW}	826	437306	NA	4	7	40	NA	NA	PracTrialProc	PracTrialList	NA	NA	NA	NA	NA	NA	NA	NA	NA	NA	NA	NA	NA	NA	NA	NA	NA	NA	right	NA	rrrrr.bmp	354	NA	NA	NA	NA	NA	NA	NA	NA	NA	NA	NA	NA	NA	NA	NA	NA	NA	NA	NA	NA	NA
Arrow Flanker 2014	12280	1	"<?xml version=""1.0""?>\n<Clock xmlns:dt=""urn:schemas-microsoft-com:datatypes""><Description dt:dt=""string"">E-Prime Primary Realtime Clock</Description><StartTime><Timestamp dt:dt=""int"">0</Timestamp><DateUtc dt:dt=""string"">2015-05-15T15:53:59Z</DateUtc></StartTime><FrequencyChanges><FrequencyChange><Frequency dt:dt=""r8"">2825664</Frequency><Timestamp dt:dt=""r8"">6127114947103</Timestamp><Current dt:dt=""r8"">0</Current><DateUtc dt:dt=""string"">2015-05-15T15:53:59Z</DateUtc></FrequencyChange></FrequencyChanges></Clock>\n"	Arrow Flanker 2014-12280-1	60.018	1.0.0.100	1	-1802815560	Professional	2.0.10.353	2.0.10.353	05-15-2015	5/15/2015 3:54:00 PM	11:54:00	2.0.10.248	8	NA	NA	NA	NA	NA	NA	NA	NA	NA	NA	NA	NA	NA	NA	NA	NA	NA	NA	NA	NA	NA	NA	NA	NA	1	7	7	PracBlockProc	PracBlockList	NA	5	{RIGHTARROW}	-100	NA	701	neutral	NA	NA	NA	0	16	438846	0	0	{RIGHTARROW}	-999999	0	440063	0	{LEFTARROW}	1547	441610	NA	6	7	41	NA	NA	PracTrialProc	PracTrialList	NA	NA	NA	NA	NA	NA	NA	NA	NA	NA	NA	NA	NA	NA	NA	NA	NA	NA	right	NA	ooroo.bmp	354	NA	NA	NA	NA	NA	NA	NA	NA	NA	NA	NA	NA	NA	NA	NA	NA	NA	NA	NA	NA	NA
Arrow Flanker 2014	12280	1	"<?xml version=""1.0""?>\n<Clock xmlns:dt=""urn:schemas-microsoft-com:datatypes""><Description dt:dt=""string"">E-Prime Primary Realtime Clock</Description><StartTime><Timestamp dt:dt=""int"">0</Timestamp><DateUtc dt:dt=""string"">2015-05-15T15:53:59Z</DateUtc></StartTime><FrequencyChanges><FrequencyChange><Frequency dt:dt=""r8"">2825664</Frequency><Timestamp dt:dt=""r8"">6127114947103</Timestamp><Current dt:dt=""r8"">0</Current><DateUtc dt:dt=""string"">2015-05-15T15:53:59Z</DateUtc></FrequencyChange></FrequencyChanges></Clock>\n"	Arrow Flanker 2014-12280-1	60.018	1.0.0.100	1	-1802815560	Professional	2.0.10.353	2.0.10.353	05-15-2015	5/15/2015 3:54:00 PM	11:54:00	2.0.10.248	8	NA	NA	NA	NA	NA	NA	NA	NA	NA	NA	NA	NA	NA	NA	NA	NA	NA	NA	NA	NA	NA	NA	NA	NA	1	7	7	PracBlockProc	PracBlockList	NA	6	{RIGHTARROW}	-100	NA	1523	incongruent	NA	NA	NA	0	16	443145	0	1	{RIGHTARROW}	-999999	0	445178	0	{RIGHTARROW}	1248	446426	NA	5	7	42	NA	NA	PracTrialProc	PracTrialList	NA	NA	NA	NA	NA	NA	NA	NA	NA	NA	NA	NA	NA	NA	NA	NA	NA	NA	right	NA	llrll.bmp	354	NA	NA	NA	NA	NA	NA	NA	NA	NA	NA	NA	NA	NA	NA	NA	NA	NA	NA	NA	NA	NA
Arrow Flanker 2014	12280	1	"<?xml version=""1.0""?>\n<Clock xmlns:dt=""urn:schemas-microsoft-com:datatypes""><Description dt:dt=""string"">E-Prime Primary Realtime Clock</Description><StartTime><Timestamp dt:dt=""int"">0</Timestamp><DateUtc dt:dt=""string"">2015-05-15T15:53:59Z</DateUtc></StartTime><FrequencyChanges><FrequencyChange><Frequency dt:dt=""r8"">2825664</Frequency><Timestamp dt:dt=""r8"">6127114947103</Timestamp><Current dt:dt=""r8"">0</Current><DateUtc dt:dt=""string"">2015-05-15T15:53:59Z</DateUtc></FrequencyChange></FrequencyChanges></Clock>\n"	Arrow Flanker 2014-12280-1	60.018	1.0.0.100	1	-1802815560	Professional	2.0.10.353	2.0.10.353	05-15-2015	5/15/2015 3:54:00 PM	11:54:00	2.0.10.248	9	NA	NA	NA	NA	NA	NA	NA	NA	NA	NA	NA	NA	NA	NA	NA	NA	NA	NA	NA	NA	NA	NA	NA	NA	1	8	8	PracBlockProc	PracBlockList	NA	1	{RIGHTARROW}	-100	NA	478	neutral	NA	NA	NA	0	10	449460	0	1	{RIGHTARROW}	0	0	450443	0	{RIGHTARROW}	1662	452105	NA	6	8	43	NA	NA	PracTrialProc	PracTrialList	NA	NA	NA	NA	NA	NA	NA	NA	NA	NA	NA	NA	NA	NA	NA	NA	NA	NA	right	NA	ooroo.bmp	354	NA	NA	NA	NA	NA	NA	NA	NA	NA	NA	NA	NA	NA	NA	NA	NA	NA	NA	NA	NA	NA
Arrow Flanker 2014	12280	1	"<?xml version=""1.0""?>\n<Clock xmlns:dt=""urn:schemas-microsoft-com:datatypes""><Description dt:dt=""string"">E-Prime Primary Realtime Clock</Description><StartTime><Timestamp dt:dt=""int"">0</Timestamp><DateUtc dt:dt=""string"">2015-05-15T15:53:59Z</DateUtc></StartTime><FrequencyChanges><FrequencyChange><Frequency dt:dt=""r8"">2825664</Frequency><Timestamp dt:dt=""r8"">6127114947103</Timestamp><Current dt:dt=""r8"">0</Current><DateUtc dt:dt=""string"">2015-05-15T15:53:59Z</DateUtc></FrequencyChange></FrequencyChanges></Clock>\n"	Arrow Flanker 2014-12280-1	60.018	1.0.0.100	1	-1802815560	Professional	2.0.10.353	2.0.10.353	05-15-2015	5/15/2015 3:54:00 PM	11:54:00	2.0.10.248	9	NA	NA	NA	NA	NA	NA	NA	NA	NA	NA	NA	NA	NA	NA	NA	NA	NA	NA	NA	NA	NA	NA	NA	NA	1	8	8	PracBlockProc	PracBlockList	NA	2	{LEFTARROW}	-100	NA	1135	neutral	NA	NA	NA	0	16	453625	0	1	{LEFTARROW}	-999999	0	455275	0	{LEFTARROW}	1086	456361	NA	3	8	44	NA	NA	PracTrialProc	PracTrialList	NA	NA	NA	NA	NA	NA	NA	NA	NA	NA	NA	NA	NA	NA	NA	NA	NA	NA	left	NA	ooloo.bmp	354	NA	NA	NA	NA	NA	NA	NA	NA	NA	NA	NA	NA	NA	NA	NA	NA	NA	NA	NA	NA	NA
Arrow Flanker 2014	12280	1	"<?xml version=""1.0""?>\n<Clock xmlns:dt=""urn:schemas-microsoft-com:datatypes""><Description dt:dt=""string"">E-Prime Primary Realtime Clock</Description><StartTime><Timestamp dt:dt=""int"">0</Timestamp><DateUtc dt:dt=""string"">2015-05-15T15:53:59Z</DateUtc></StartTime><FrequencyChanges><FrequencyChange><Frequency dt:dt=""r8"">2825664</Frequency><Timestamp dt:dt=""r8"">6127114947103</Timestamp><Current dt:dt=""r8"">0</Current><DateUtc dt:dt=""string"">2015-05-15T15:53:59Z</DateUtc></FrequencyChange></FrequencyChanges></Clock>\n"	Arrow Flanker 2014-12280-1	60.018	1.0.0.100	1	-1802815560	Professional	2.0.10.353	2.0.10.353	05-15-2015	5/15/2015 3:54:00 PM	11:54:00	2.0.10.248	9	NA	NA	NA	NA	NA	NA	NA	NA	NA	NA	NA	NA	NA	NA	NA	NA	NA	NA	NA	NA	NA	NA	NA	NA	1	8	8	PracBlockProc	PracBlockList	NA	3	{LEFTARROW}	-100	NA	841	incongruent	NA	NA	NA	0	17	457891	0	0	{LEFTARROW}	-999999	0	459240	0	{RIGHTARROW}	833	460073	NA	2	8	45	NA	NA	PracTrialProc	PracTrialList	NA	NA	NA	NA	NA	NA	NA	NA	NA	NA	NA	NA	NA	NA	NA	NA	NA	NA	left	NA	rrlrr.bmp	354	NA	NA	NA	NA	NA	NA	NA	NA	NA	NA	NA	NA	NA	NA	NA	NA	NA	NA	NA	NA	NA
Arrow Flanker 2014	12280	1	"<?xml version=""1.0""?>\n<Clock xmlns:dt=""urn:schemas-microsoft-com:datatypes""><Description dt:dt=""string"">E-Prime Primary Realtime Clock</Description><StartTime><Timestamp dt:dt=""int"">0</Timestamp><DateUtc dt:dt=""string"">2015-05-15T15:53:59Z</DateUtc></StartTime><FrequencyChanges><FrequencyChange><Frequency dt:dt=""r8"">2825664</Frequency><Timestamp dt:dt=""r8"">6127114947103</Timestamp><Current dt:dt=""r8"">0</Current><DateUtc dt:dt=""string"">2015-05-15T15:53:59Z</DateUtc></FrequencyChange></FrequencyChanges></Clock>\n"	Arrow Flanker 2014-12280-1	60.018	1.0.0.100	1	-1802815560	Professional	2.0.10.353	2.0.10.353	05-15-2015	5/15/2015 3:54:00 PM	11:54:00	2.0.10.248	9	NA	NA	NA	NA	NA	NA	NA	NA	NA	NA	NA	NA	NA	NA	NA	NA	NA	NA	NA	NA	NA	NA	NA	NA	1	8	8	PracBlockProc	PracBlockList	NA	4	{RIGHTARROW}	-100	NA	793	congruent	NA	NA	NA	0	16	461606	0	1	{RIGHTARROW}	-999999	0	462906	0	{RIGHTARROW}	1023	463929	NA	4	8	46	NA	NA	PracTrialProc	PracTrialList	NA	NA	NA	NA	NA	NA	NA	NA	NA	NA	NA	NA	NA	NA	NA	NA	NA	NA	right	NA	rrrrr.bmp	354	NA	NA	NA	NA	NA	NA	NA	NA	NA	NA	NA	NA	NA	NA	NA	NA	NA	NA	NA	NA	NA
Arrow Flanker 2014	12280	1	"<?xml version=""1.0""?>\n<Clock xmlns:dt=""urn:schemas-microsoft-com:datatypes""><Description dt:dt=""string"">E-Prime Primary Realtime Clock</Description><StartTime><Timestamp dt:dt=""int"">0</Timestamp><DateUtc dt:dt=""string"">2015-05-15T15:53:59Z</DateUtc></StartTime><FrequencyChanges><FrequencyChange><Frequency dt:dt=""r8"">2825664</Frequency><Timestamp dt:dt=""r8"">6127114947103</Timestamp><Current dt:dt=""r8"">0</Current><DateUtc dt:dt=""string"">2015-05-15T15:53:59Z</DateUtc></FrequencyChange></FrequencyChanges></Clock>\n"	Arrow Flanker 2014-12280-1	60.018	1.0.0.100	1	-1802815560	Professional	2.0.10.353	2.0.10.353	05-15-2015	5/15/2015 3:54:00 PM	11:54:00	2.0.10.248	9	NA	NA	NA	NA	NA	NA	NA	NA	NA	NA	NA	NA	NA	NA	NA	NA	NA	NA	NA	NA	NA	NA	NA	NA	1	8	8	PracBlockProc	PracBlockList	NA	5	{LEFTARROW}	-100	NA	958	congruent	NA	NA	NA	0	16	465455	0	0	{LEFTARROW}	0	0	466921	1700	NA	0	0	NA	1	8	47	NA	NA	PracTrialProc	PracTrialList	NA	NA	NA	NA	NA	NA	NA	NA	NA	NA	NA	NA	NA	NA	NA	NA	NA	NA	left	NA	lllll.bmp	354	NA	NA	NA	NA	NA	NA	NA	NA	NA	NA	NA	NA	NA	NA	NA	NA	NA	NA	NA	NA	NA
Arrow Flanker 2014	12280	1	"<?xml version=""1.0""?>\n<Clock xmlns:dt=""urn:schemas-microsoft-com:datatypes""><Description dt:dt=""string"">E-Prime Primary Realtime Clock</Description><StartTime><Timestamp dt:dt=""int"">0</Timestamp><DateUtc dt:dt=""string"">2015-05-15T15:53:59Z</DateUtc></StartTime><FrequencyChanges><FrequencyChange><Frequency dt:dt=""r8"">2825664</Frequency><Timestamp dt:dt=""r8"">6127114947103</Timestamp><Current dt:dt=""r8"">0</Current><DateUtc dt:dt=""string"">2015-05-15T15:53:59Z</DateUtc></FrequencyChange></FrequencyChanges></Clock>\n"	Arrow Flanker 2014-12280-1	60.018	1.0.0.100	1	-1802815560	Professional	2.0.10.353	2.0.10.353	05-15-2015	5/15/2015 3:54:00 PM	11:54:00	2.0.10.248	9	NA	NA	NA	NA	NA	NA	NA	NA	NA	NA	NA	NA	NA	NA	NA	NA	NA	NA	NA	NA	NA	NA	NA	NA	1	8	8	PracBlockProc	PracBlockList	NA	6	{RIGHTARROW}	-100	NA	1529	incongruent	NA	NA	NA	0	16	470137	0	0	{RIGHTARROW}	-999999	0	472170	0	{LEFTARROW}	1198	473368	NA	5	8	48	NA	NA	PracTrialProc	PracTrialList	NA	NA	NA	NA	NA	NA	NA	NA	NA	NA	NA	NA	NA	NA	NA	NA	NA	NA	right	NA	llrll.bmp	354	NA	NA	NA	NA	NA	NA	NA	NA	NA	NA	NA	NA	NA	NA	NA	NA	NA	NA	NA	NA	NA
Arrow Flanker 2014	12280	1	"<?xml version=""1.0""?>\n<Clock xmlns:dt=""urn:schemas-microsoft-com:datatypes""><Description dt:dt=""string"">E-Prime Primary Realtime Clock</Description><StartTime><Timestamp dt:dt=""int"">0</Timestamp><DateUtc dt:dt=""string"">2015-05-15T15:53:59Z</DateUtc></StartTime><FrequencyChanges><FrequencyChange><Frequency dt:dt=""r8"">2825664</Frequency><Timestamp dt:dt=""r8"">6127114947103</Timestamp><Current dt:dt=""r8"">0</Current><DateUtc dt:dt=""string"">2015-05-15T15:53:59Z</DateUtc></FrequencyChange></FrequencyChanges></Clock>\n"	Arrow Flanker 2014-12280-1	60.018	1.0.0.100	1	-1802815560	Professional	2.0.10.353	2.0.10.353	05-15-2015	5/15/2015 3:54:00 PM	11:54:00	2.0.10.248	10	NA	NA	NA	NA	NA	NA	NA	NA	NA	NA	NA	NA	NA	NA	NA	NA	NA	NA	NA	NA	NA	NA	NA	NA	1	9	9	PracBlockProc	PracBlockList	NA	1	{LEFTARROW}	-100	NA	913	congruent	NA	NA	NA	0	19	484683	0	1	{LEFTARROW}	0	0	486099	0	{LEFTARROW}	1652	487751	NA	1	9	49	NA	NA	PracTrialProc	PracTrialList	NA	NA	NA	NA	NA	NA	NA	NA	NA	NA	NA	NA	NA	NA	NA	NA	NA	NA	left	NA	lllll.bmp	354	NA	NA	NA	NA	NA	NA	NA	NA	NA	NA	NA	NA	NA	NA	NA	NA	NA	NA	NA	NA	NA
Arrow Flanker 2014	12280	1	"<?xml version=""1.0""?>\n<Clock xmlns:dt=""urn:schemas-microsoft-com:datatypes""><Description dt:dt=""string"">E-Prime Primary Realtime Clock</Description><StartTime><Timestamp dt:dt=""int"">0</Timestamp><DateUtc dt:dt=""string"">2015-05-15T15:53:59Z</DateUtc></StartTime><FrequencyChanges><FrequencyChange><Frequency dt:dt=""r8"">2825664</Frequency><Timestamp dt:dt=""r8"">6127114947103</Timestamp><Current dt:dt=""r8"">0</Current><DateUtc dt:dt=""string"">2015-05-15T15:53:59Z</DateUtc></FrequencyChange></FrequencyChanges></Clock>\n"	Arrow Flanker 2014-12280-1	60.018	1.0.0.100	1	-1802815560	Professional	2.0.10.353	2.0.10.353	05-15-2015	5/15/2015 3:54:00 PM	11:54:00	2.0.10.248	10	NA	NA	NA	NA	NA	NA	NA	NA	NA	NA	NA	NA	NA	NA	NA	NA	NA	NA	NA	NA	NA	NA	NA	NA	1	9	9	PracBlockProc	PracBlockList	NA	2	{LEFTARROW}	-100	NA	1119	neutral	NA	NA	NA	0	16	489281	0	1	{LEFTARROW}	-999999	0	490914	0	{LEFTARROW}	949	491863	NA	3	9	50	NA	NA	PracTrialProc	PracTrialList	NA	NA	NA	NA	NA	NA	NA	NA	NA	NA	NA	NA	NA	NA	NA	NA	NA	NA	left	NA	ooloo.bmp	354	NA	NA	NA	NA	NA	NA	NA	NA	NA	NA	NA	NA	NA	NA	NA	NA	NA	NA	NA	NA	NA
Arrow Flanker 2014	12280	1	"<?xml version=""1.0""?>\n<Clock xmlns:dt=""urn:schemas-microsoft-com:datatypes""><Description dt:dt=""string"">E-Prime Primary Realtime Clock</Description><StartTime><Timestamp dt:dt=""int"">0</Timestamp><DateUtc dt:dt=""string"">2015-05-15T15:53:59Z</DateUtc></StartTime><FrequencyChanges><FrequencyChange><Frequency dt:dt=""r8"">2825664</Frequency><Timestamp dt:dt=""r8"">6127114947103</Timestamp><Current dt:dt=""r8"">0</Current><DateUtc dt:dt=""string"">2015-05-15T15:53:59Z</DateUtc></FrequencyChange></FrequencyChanges></Clock>\n"	Arrow Flanker 2014-12280-1	60.018	1.0.0.100	1	-1802815560	Professional	2.0.10.353	2.0.10.353	05-15-2015	5/15/2015 3:54:00 PM	11:54:00	2.0.10.248	10	NA	NA	NA	NA	NA	NA	NA	NA	NA	NA	NA	NA	NA	NA	NA	NA	NA	NA	NA	NA	NA	NA	NA	NA	1	9	9	PracBlockProc	PracBlockList	NA	3	{RIGHTARROW}	-100	NA	841	congruent	NA	NA	NA	0	17	493397	0	1	{RIGHTARROW}	-999999	0	494746	0	{RIGHTARROW}	973	495719	NA	4	9	51	NA	NA	PracTrialProc	PracTrialList	NA	NA	NA	NA	NA	NA	NA	NA	NA	NA	NA	NA	NA	NA	NA	NA	NA	NA	right	NA	rrrrr.bmp	354	NA	NA	NA	NA	NA	NA	NA	NA	NA	NA	NA	NA	NA	NA	NA	NA	NA	NA	NA	NA	NA
Arrow Flanker 2014	12280	1	"<?xml version=""1.0""?>\n<Clock xmlns:dt=""urn:schemas-microsoft-com:datatypes""><Description dt:dt=""string"">E-Prime Primary Realtime Clock</Description><StartTime><Timestamp dt:dt=""int"">0</Timestamp><DateUtc dt:dt=""string"">2015-05-15T15:53:59Z</DateUtc></StartTime><FrequencyChanges><FrequencyChange><Frequency dt:dt=""r8"">2825664</Frequency><Timestamp dt:dt=""r8"">6127114947103</Timestamp><Current dt:dt=""r8"">0</Current><DateUtc dt:dt=""string"">2015-05-15T15:53:59Z</DateUtc></FrequencyChange></FrequencyChanges></Clock>\n"	Arrow Flanker 2014-12280-1	60.018	1.0.0.100	1	-1802815560	Professional	2.0.10.353	2.0.10.353	05-15-2015	5/15/2015 3:54:00 PM	11:54:00	2.0.10.248	10	NA	NA	NA	NA	NA	NA	NA	NA	NA	NA	NA	NA	NA	NA	NA	NA	NA	NA	NA	NA	NA	NA	NA	NA	1	9	9	PracBlockProc	PracBlockList	NA	4	{LEFTARROW}	-100	NA	1206	incongruent	NA	NA	NA	0	16	497245	0	1	{LEFTARROW}	-999999	0	498962	0	{LEFTARROW}	1156	500118	NA	2	9	52	NA	NA	PracTrialProc	PracTrialList	NA	NA	NA	NA	NA	NA	NA	NA	NA	NA	NA	NA	NA	NA	NA	NA	NA	NA	left	NA	rrlrr.bmp	354	NA	NA	NA	NA	NA	NA	NA	NA	NA	NA	NA	NA	NA	NA	NA	NA	NA	NA	NA	NA	NA
Arrow Flanker 2014	12280	1	"<?xml version=""1.0""?>\n<Clock xmlns:dt=""urn:schemas-microsoft-com:datatypes""><Description dt:dt=""string"">E-Prime Primary Realtime Clock</Description><StartTime><Timestamp dt:dt=""int"">0</Timestamp><DateUtc dt:dt=""string"">2015-05-15T15:53:59Z</DateUtc></StartTime><FrequencyChanges><FrequencyChange><Frequency dt:dt=""r8"">2825664</Frequency><Timestamp dt:dt=""r8"">6127114947103</Timestamp><Current dt:dt=""r8"">0</Current><DateUtc dt:dt=""string"">2015-05-15T15:53:59Z</DateUtc></FrequencyChange></FrequencyChanges></Clock>\n"	Arrow Flanker 2014-12280-1	60.018	1.0.0.100	1	-1802815560	Professional	2.0.10.353	2.0.10.353	05-15-2015	5/15/2015 3:54:00 PM	11:54:00	2.0.10.248	10	NA	NA	NA	NA	NA	NA	NA	NA	NA	NA	NA	NA	NA	NA	NA	NA	NA	NA	NA	NA	NA	NA	NA	NA	1	9	9	PracBlockProc	PracBlockList	NA	5	{RIGHTARROW}	-100	NA	590	incongruent	NA	NA	NA	0	15	501644	0	0	{RIGHTARROW}	0	0	502744	0	{LEFTARROW}	1694	504438	NA	5	9	53	NA	NA	PracTrialProc	PracTrialList	NA	NA	NA	NA	NA	NA	NA	NA	NA	NA	NA	NA	NA	NA	NA	NA	NA	NA	right	NA	llrll.bmp	354	NA	NA	NA	NA	NA	NA	NA	NA	NA	NA	NA	NA	NA	NA	NA	NA	NA	NA	NA	NA	NA
Arrow Flanker 2014	12280	1	"<?xml version=""1.0""?>\n<Clock xmlns:dt=""urn:schemas-microsoft-com:datatypes""><Description dt:dt=""string"">E-Prime Primary Realtime Clock</Description><StartTime><Timestamp dt:dt=""int"">0</Timestamp><DateUtc dt:dt=""string"">2015-05-15T15:53:59Z</DateUtc></StartTime><FrequencyChanges><FrequencyChange><Frequency dt:dt=""r8"">2825664</Frequency><Timestamp dt:dt=""r8"">6127114947103</Timestamp><Current dt:dt=""r8"">0</Current><DateUtc dt:dt=""string"">2015-05-15T15:53:59Z</DateUtc></FrequencyChange></FrequencyChanges></Clock>\n"	Arrow Flanker 2014-12280-1	60.018	1.0.0.100	1	-1802815560	Professional	2.0.10.353	2.0.10.353	05-15-2015	5/15/2015 3:54:00 PM	11:54:00	2.0.10.248	10	NA	NA	NA	NA	NA	NA	NA	NA	NA	NA	NA	NA	NA	NA	NA	NA	NA	NA	NA	NA	NA	NA	NA	NA	1	9	9	PracBlockProc	PracBlockList	NA	6	{RIGHTARROW}	-100	NA	812	neutral	NA	NA	NA	0	17	505960	0	1	{RIGHTARROW}	-999999	0	507276	0	{RIGHTARROW}	1194	508470	NA	6	9	54	NA	NA	PracTrialProc	PracTrialList	NA	NA	NA	NA	NA	NA	NA	NA	NA	NA	NA	NA	NA	NA	NA	NA	NA	NA	right	NA	ooroo.bmp	354	NA	NA	NA	NA	NA	NA	NA	NA	NA	NA	NA	NA	NA	NA	NA	NA	NA	NA	NA	NA	NA
Arrow Flanker 2014	12280	1	"<?xml version=""1.0""?>\n<Clock xmlns:dt=""urn:schemas-microsoft-com:datatypes""><Description dt:dt=""string"">E-Prime Primary Realtime Clock</Description><StartTime><Timestamp dt:dt=""int"">0</Timestamp><DateUtc dt:dt=""string"">2015-05-15T15:53:59Z</DateUtc></StartTime><FrequencyChanges><FrequencyChange><Frequency dt:dt=""r8"">2825664</Frequency><Timestamp dt:dt=""r8"">6127114947103</Timestamp><Current dt:dt=""r8"">0</Current><DateUtc dt:dt=""string"">2015-05-15T15:53:59Z</DateUtc></FrequencyChange></FrequencyChanges></Clock>\n"	Arrow Flanker 2014-12280-1	60.018	1.0.0.100	1	-1802815560	Professional	2.0.10.353	2.0.10.353	05-15-2015	5/15/2015 3:54:00 PM	11:54:00	2.0.10.248	11	NA	NA	NA	NA	NA	NA	NA	NA	NA	NA	NA	NA	NA	NA	NA	NA	NA	NA	NA	NA	NA	NA	NA	NA	1	10	10	PracBlockProc	PracBlockList	NA	1	{RIGHTARROW}	-100	NA	1563	neutral	NA	NA	NA	0	17	514807	0	1	{RIGHTARROW}	-999999	0	516873	0	{RIGHTARROW}	652	517525	NA	6	10	55	NA	NA	PracTrialProc	PracTrialList	NA	NA	NA	NA	NA	NA	NA	NA	NA	NA	NA	NA	NA	NA	NA	NA	NA	NA	right	NA	ooroo.bmp	354	NA	NA	NA	NA	NA	NA	NA	NA	NA	NA	NA	NA	NA	NA	NA	NA	NA	NA	NA	NA	NA
Arrow Flanker 2014	12280	1	"<?xml version=""1.0""?>\n<Clock xmlns:dt=""urn:schemas-microsoft-com:datatypes""><Description dt:dt=""string"">E-Prime Primary Realtime Clock</Description><StartTime><Timestamp dt:dt=""int"">0</Timestamp><DateUtc dt:dt=""string"">2015-05-15T15:53:59Z</DateUtc></StartTime><FrequencyChanges><FrequencyChange><Frequency dt:dt=""r8"">2825664</Frequency><Timestamp dt:dt=""r8"">6127114947103</Timestamp><Current dt:dt=""r8"">0</Current><DateUtc dt:dt=""string"">2015-05-15T15:53:59Z</DateUtc></FrequencyChange></FrequencyChanges></Clock>\n"	Arrow Flanker 2014-12280-1	60.018	1.0.0.100	1	-1802815560	Professional	2.0.10.353	2.0.10.353	05-15-2015	5/15/2015 3:54:00 PM	11:54:00	2.0.10.248	11	NA	NA	NA	NA	NA	NA	NA	NA	NA	NA	NA	NA	NA	NA	NA	NA	NA	NA	NA	NA	NA	NA	NA	NA	1	10	10	PracBlockProc	PracBlockList	NA	2	{LEFTARROW}	-100	NA	505	congruent	NA	NA	NA	0	17	519056	0	1	{LEFTARROW}	-999999	0	520072	0	{LEFTARROW}	1437	521509	NA	1	10	56	NA	NA	PracTrialProc	PracTrialList	NA	NA	NA	NA	NA	NA	NA	NA	NA	NA	NA	NA	NA	NA	NA	NA	NA	NA	left	NA	lllll.bmp	354	NA	NA	NA	NA	NA	NA	NA	NA	NA	NA	NA	NA	NA	NA	NA	NA	NA	NA	NA	NA	NA
Arrow Flanker 2014	12280	1	"<?xml version=""1.0""?>\n<Clock xmlns:dt=""urn:schemas-microsoft-com:datatypes""><Description dt:dt=""string"">E-Prime Primary Realtime Clock</Description><StartTime><Timestamp dt:dt=""int"">0</Timestamp><DateUtc dt:dt=""string"">2015-05-15T15:53:59Z</DateUtc></StartTime><FrequencyChanges><FrequencyChange><Frequency dt:dt=""r8"">2825664</Frequency><Timestamp dt:dt=""r8"">6127114947103</Timestamp><Current dt:dt=""r8"">0</Current><DateUtc dt:dt=""string"">2015-05-15T15:53:59Z</DateUtc></FrequencyChange></FrequencyChanges></Clock>\n"	Arrow Flanker 2014-12280-1	60.018	1.0.0.100	1	-1802815560	Professional	2.0.10.353	2.0.10.353	05-15-2015	5/15/2015 3:54:00 PM	11:54:00	2.0.10.248	11	NA	NA	NA	NA	NA	NA	NA	NA	NA	NA	NA	NA	NA	NA	NA	NA	NA	NA	NA	NA	NA	NA	NA	NA	1	10	10	PracBlockProc	PracBlockList	NA	3	{LEFTARROW}	-100	NA	629	neutral	NA	NA	NA	0	16	523038	0	1	{LEFTARROW}	-999999	0	524171	0	{LEFTARROW}	1194	525365	NA	3	10	57	NA	NA	PracTrialProc	PracTrialList	NA	NA	NA	NA	NA	NA	NA	NA	NA	NA	NA	NA	NA	NA	NA	NA	NA	NA	left	NA	ooloo.bmp	354	NA	NA	NA	NA	NA	NA	NA	NA	NA	NA	NA	NA	NA	NA	NA	NA	NA	NA	NA	NA	NA
Arrow Flanker 2014	12280	1	"<?xml version=""1.0""?>\n<Clock xmlns:dt=""urn:schemas-microsoft-com:datatypes""><Description dt:dt=""string"">E-Prime Primary Realtime Clock</Description><StartTime><Timestamp dt:dt=""int"">0</Timestamp><DateUtc dt:dt=""string"">2015-05-15T15:53:59Z</DateUtc></StartTime><FrequencyChanges><FrequencyChange><Frequency dt:dt=""r8"">2825664</Frequency><Timestamp dt:dt=""r8"">6127114947103</Timestamp><Current dt:dt=""r8"">0</Current><DateUtc dt:dt=""string"">2015-05-15T15:53:59Z</DateUtc></FrequencyChange></FrequencyChanges></Clock>\n"	Arrow Flanker 2014-12280-1	60.018	1.0.0.100	1	-1802815560	Professional	2.0.10.353	2.0.10.353	05-15-2015	5/15/2015 3:54:00 PM	11:54:00	2.0.10.248	11	NA	NA	NA	NA	NA	NA	NA	NA	NA	NA	NA	NA	NA	NA	NA	NA	NA	NA	NA	NA	NA	NA	NA	NA	1	10	10	PracBlockProc	PracBlockList	NA	4	{LEFTARROW}	-100	NA	1123	incongruent	NA	NA	NA	0	16	526903	0	0	{LEFTARROW}	0	0	528536	1700	NA	0	0	NA	2	10	58	NA	NA	PracTrialProc	PracTrialList	NA	NA	NA	NA	NA	NA	NA	NA	NA	NA	NA	NA	NA	NA	NA	NA	NA	NA	left	NA	rrlrr.bmp	354	NA	NA	NA	NA	NA	NA	NA	NA	NA	NA	NA	NA	NA	NA	NA	NA	NA	NA	NA	NA	NA
Arrow Flanker 2014	12280	1	"<?xml version=""1.0""?>\n<Clock xmlns:dt=""urn:schemas-microsoft-com:datatypes""><Description dt:dt=""string"">E-Prime Primary Realtime Clock</Description><StartTime><Timestamp dt:dt=""int"">0</Timestamp><DateUtc dt:dt=""string"">2015-05-15T15:53:59Z</DateUtc></StartTime><FrequencyChanges><FrequencyChange><Frequency dt:dt=""r8"">2825664</Frequency><Timestamp dt:dt=""r8"">6127114947103</Timestamp><Current dt:dt=""r8"">0</Current><DateUtc dt:dt=""string"">2015-05-15T15:53:59Z</DateUtc></FrequencyChange></FrequencyChanges></Clock>\n"	Arrow Flanker 2014-12280-1	60.018	1.0.0.100	1	-1802815560	Professional	2.0.10.353	2.0.10.353	05-15-2015	5/15/2015 3:54:00 PM	11:54:00	2.0.10.248	11	NA	NA	NA	NA	NA	NA	NA	NA	NA	NA	NA	NA	NA	NA	NA	NA	NA	NA	NA	NA	NA	NA	NA	NA	1	10	10	PracBlockProc	PracBlockList	NA	5	{RIGHTARROW}	-100	NA	571	congruent	NA	NA	NA	0	16	531752	0	1	{RIGHTARROW}	-999999	0	532835	0	{RIGHTARROW}	849	533684	NA	4	10	59	NA	NA	PracTrialProc	PracTrialList	NA	NA	NA	NA	NA	NA	NA	NA	NA	NA	NA	NA	NA	NA	NA	NA	NA	NA	right	NA	rrrrr.bmp	354	NA	NA	NA	NA	NA	NA	NA	NA	NA	NA	NA	NA	NA	NA	NA	NA	NA	NA	NA	NA	NA
Arrow Flanker 2014	12280	1	"<?xml version=""1.0""?>\n<Clock xmlns:dt=""urn:schemas-microsoft-com:datatypes""><Description dt:dt=""string"">E-Prime Primary Realtime Clock</Description><StartTime><Timestamp dt:dt=""int"">0</Timestamp><DateUtc dt:dt=""string"">2015-05-15T15:53:59Z</DateUtc></StartTime><FrequencyChanges><FrequencyChange><Frequency dt:dt=""r8"">2825664</Frequency><Timestamp dt:dt=""r8"">6127114947103</Timestamp><Current dt:dt=""r8"">0</Current><DateUtc dt:dt=""string"">2015-05-15T15:53:59Z</DateUtc></FrequencyChange></FrequencyChanges></Clock>\n"	Arrow Flanker 2014-12280-1	60.018	1.0.0.100	1	-1802815560	Professional	2.0.10.353	2.0.10.353	05-15-2015	5/15/2015 3:54:00 PM	11:54:00	2.0.10.248	11	NA	NA	NA	NA	NA	NA	NA	NA	NA	NA	NA	NA	NA	NA	NA	NA	NA	NA	NA	NA	NA	NA	NA	NA	1	10	10	PracBlockProc	PracBlockList	NA	6	{RIGHTARROW}	-100	NA	1568	incongruent	NA	NA	NA	0	16	535217	0	0	{RIGHTARROW}	-999999	0	537300	0	{LEFTARROW}	1280	538580	NA	5	10	60	NA	NA	PracTrialProc	PracTrialList	NA	NA	NA	NA	NA	NA	NA	NA	NA	NA	NA	NA	NA	NA	NA	NA	NA	NA	right	NA	llrll.bmp	354	NA	NA	NA	NA	NA	NA	NA	NA	NA	NA	NA	NA	NA	NA	NA	NA	NA	NA	NA	NA	NA
Arrow Flanker 2014	12280	1	"<?xml version=""1.0""?>\n<Clock xmlns:dt=""urn:schemas-microsoft-com:datatypes""><Description dt:dt=""string"">E-Prime Primary Realtime Clock</Description><StartTime><Timestamp dt:dt=""int"">0</Timestamp><DateUtc dt:dt=""string"">2015-05-15T15:53:59Z</DateUtc></StartTime><FrequencyChanges><FrequencyChange><Frequency dt:dt=""r8"">2825664</Frequency><Timestamp dt:dt=""r8"">6127114947103</Timestamp><Current dt:dt=""r8"">0</Current><DateUtc dt:dt=""string"">2015-05-15T15:53:59Z</DateUtc></FrequencyChange></FrequencyChanges></Clock>\n"	Arrow Flanker 2014-12280-1	60.018	1.0.0.100	1	-1802815560	Professional	2.0.10.353	2.0.10.353	05-15-2015	5/15/2015 3:54:00 PM	11:54:00	2.0.10.248	12	NA	NA	NA	NA	NA	NA	NA	NA	NA	NA	NA	NA	NA	NA	NA	NA	NA	NA	NA	NA	NA	NA	NA	NA	1	11	11	PracBlockProc	PracBlockList	NA	1	{LEFTARROW}	-100	NA	784	incongruent	NA	NA	NA	0	12	544032	0	0	{LEFTARROW}	-999999	0	545331	0	{RIGHTARROW}	1425	546756	NA	2	11	61	NA	NA	PracTrialProc	PracTrialList	NA	NA	NA	NA	NA	NA	NA	NA	NA	NA	NA	NA	NA	NA	NA	NA	NA	NA	left	NA	rrlrr.bmp	354	NA	NA	NA	NA	NA	NA	NA	NA	NA	NA	NA	NA	NA	NA	NA	NA	NA	NA	NA	NA	NA
Arrow Flanker 2014	12280	1	"<?xml version=""1.0""?>\n<Clock xmlns:dt=""urn:schemas-microsoft-com:datatypes""><Description dt:dt=""string"">E-Prime Primary Realtime Clock</Description><StartTime><Timestamp dt:dt=""int"">0</Timestamp><DateUtc dt:dt=""string"">2015-05-15T15:53:59Z</DateUtc></StartTime><FrequencyChanges><FrequencyChange><Frequency dt:dt=""r8"">2825664</Frequency><Timestamp dt:dt=""r8"">6127114947103</Timestamp><Current dt:dt=""r8"">0</Current><DateUtc dt:dt=""string"">2015-05-15T15:53:59Z</DateUtc></FrequencyChange></FrequencyChanges></Clock>\n"	Arrow Flanker 2014-12280-1	60.018	1.0.0.100	1	-1802815560	Professional	2.0.10.353	2.0.10.353	05-15-2015	5/15/2015 3:54:00 PM	11:54:00	2.0.10.248	12	NA	NA	NA	NA	NA	NA	NA	NA	NA	NA	NA	NA	NA	NA	NA	NA	NA	NA	NA	NA	NA	NA	NA	NA	1	11	11	PracBlockProc	PracBlockList	NA	2	{LEFTARROW}	-100	NA	1263	neutral	NA	NA	NA	0	16	548297	0	1	{LEFTARROW}	-999999	0	550063	0	{LEFTARROW}	660	550723	NA	3	11	62	NA	NA	PracTrialProc	PracTrialList	NA	NA	NA	NA	NA	NA	NA	NA	NA	NA	NA	NA	NA	NA	NA	NA	NA	NA	left	NA	ooloo.bmp	354	NA	NA	NA	NA	NA	NA	NA	NA	NA	NA	NA	NA	NA	NA	NA	NA	NA	NA	NA	NA	NA
Arrow Flanker 2014	12280	1	"<?xml version=""1.0""?>\n<Clock xmlns:dt=""urn:schemas-microsoft-com:datatypes""><Description dt:dt=""string"">E-Prime Primary Realtime Clock</Description><StartTime><Timestamp dt:dt=""int"">0</Timestamp><DateUtc dt:dt=""string"">2015-05-15T15:53:59Z</DateUtc></StartTime><FrequencyChanges><FrequencyChange><Frequency dt:dt=""r8"">2825664</Frequency><Timestamp dt:dt=""r8"">6127114947103</Timestamp><Current dt:dt=""r8"">0</Current><DateUtc dt:dt=""string"">2015-05-15T15:53:59Z</DateUtc></FrequencyChange></FrequencyChanges></Clock>\n"	Arrow Flanker 2014-12280-1	60.018	1.0.0.100	1	-1802815560	Professional	2.0.10.353	2.0.10.353	05-15-2015	5/15/2015 3:54:00 PM	11:54:00	2.0.10.248	12	NA	NA	NA	NA	NA	NA	NA	NA	NA	NA	NA	NA	NA	NA	NA	NA	NA	NA	NA	NA	NA	NA	NA	NA	1	11	11	PracBlockProc	PracBlockList	NA	3	{RIGHTARROW}	-100	NA	1451	incongruent	NA	NA	NA	0	16	552262	0	0	{RIGHTARROW}	-999999	16	554245	0	{LEFTARROW}	1070	555315	NA	5	11	63	NA	NA	PracTrialProc	PracTrialList	NA	NA	NA	NA	NA	NA	NA	NA	NA	NA	NA	NA	NA	NA	NA	NA	NA	NA	right	NA	llrll.bmp	354	NA	NA	NA	NA	NA	NA	NA	NA	NA	NA	NA	NA	NA	NA	NA	NA	NA	NA	NA	NA	NA
Arrow Flanker 2014	12280	1	"<?xml version=""1.0""?>\n<Clock xmlns:dt=""urn:schemas-microsoft-com:datatypes""><Description dt:dt=""string"">E-Prime Primary Realtime Clock</Description><StartTime><Timestamp dt:dt=""int"">0</Timestamp><DateUtc dt:dt=""string"">2015-05-15T15:53:59Z</DateUtc></StartTime><FrequencyChanges><FrequencyChange><Frequency dt:dt=""r8"">2825664</Frequency><Timestamp dt:dt=""r8"">6127114947103</Timestamp><Current dt:dt=""r8"">0</Current><DateUtc dt:dt=""string"">2015-05-15T15:53:59Z</DateUtc></FrequencyChange></FrequencyChanges></Clock>\n"	Arrow Flanker 2014-12280-1	60.018	1.0.0.100	1	-1802815560	Professional	2.0.10.353	2.0.10.353	05-15-2015	5/15/2015 3:54:00 PM	11:54:00	2.0.10.248	12	NA	NA	NA	NA	NA	NA	NA	NA	NA	NA	NA	NA	NA	NA	NA	NA	NA	NA	NA	NA	NA	NA	NA	NA	1	11	11	PracBlockProc	PracBlockList	NA	4	{RIGHTARROW}	-100	NA	1401	congruent	NA	NA	NA	0	16	556844	0	0	{RIGHTARROW}	-999999	0	558777	0	{LEFTARROW}	842	559619	NA	4	11	64	NA	NA	PracTrialProc	PracTrialList	NA	NA	NA	NA	NA	NA	NA	NA	NA	NA	NA	NA	NA	NA	NA	NA	NA	NA	right	NA	rrrrr.bmp	354	NA	NA	NA	NA	NA	NA	NA	NA	NA	NA	NA	NA	NA	NA	NA	NA	NA	NA	NA	NA	NA
Arrow Flanker 2014	12280	1	"<?xml version=""1.0""?>\n<Clock xmlns:dt=""urn:schemas-microsoft-com:datatypes""><Description dt:dt=""string"">E-Prime Primary Realtime Clock</Description><StartTime><Timestamp dt:dt=""int"">0</Timestamp><DateUtc dt:dt=""string"">2015-05-15T15:53:59Z</DateUtc></StartTime><FrequencyChanges><FrequencyChange><Frequency dt:dt=""r8"">2825664</Frequency><Timestamp dt:dt=""r8"">6127114947103</Timestamp><Current dt:dt=""r8"">0</Current><DateUtc dt:dt=""string"">2015-05-15T15:53:59Z</DateUtc></FrequencyChange></FrequencyChanges></Clock>\n"	Arrow Flanker 2014-12280-1	60.018	1.0.0.100	1	-1802815560	Professional	2.0.10.353	2.0.10.353	05-15-2015	5/15/2015 3:54:00 PM	11:54:00	2.0.10.248	12	NA	NA	NA	NA	NA	NA	NA	NA	NA	NA	NA	NA	NA	NA	NA	NA	NA	NA	NA	NA	NA	NA	NA	NA	1	11	11	PracBlockProc	PracBlockList	NA	5	{RIGHTARROW}	-100	NA	1290	neutral	NA	NA	NA	0	16	561160	0	1	{RIGHTARROW}	-999999	0	562959	0	{RIGHTARROW}	579	563538	NA	6	11	65	NA	NA	PracTrialProc	PracTrialList	NA	NA	NA	NA	NA	NA	NA	NA	NA	NA	NA	NA	NA	NA	NA	NA	NA	NA	right	NA	ooroo.bmp	354	NA	NA	NA	NA	NA	NA	NA	NA	NA	NA	NA	NA	NA	NA	NA	NA	NA	NA	NA	NA	NA
Arrow Flanker 2014	12280	1	"<?xml version=""1.0""?>\n<Clock xmlns:dt=""urn:schemas-microsoft-com:datatypes""><Description dt:dt=""string"">E-Prime Primary Realtime Clock</Description><StartTime><Timestamp dt:dt=""int"">0</Timestamp><DateUtc dt:dt=""string"">2015-05-15T15:53:59Z</DateUtc></StartTime><FrequencyChanges><FrequencyChange><Frequency dt:dt=""r8"">2825664</Frequency><Timestamp dt:dt=""r8"">6127114947103</Timestamp><Current dt:dt=""r8"">0</Current><DateUtc dt:dt=""string"">2015-05-15T15:53:59Z</DateUtc></FrequencyChange></FrequencyChanges></Clock>\n"	Arrow Flanker 2014-12280-1	60.018	1.0.0.100	1	-1802815560	Professional	2.0.10.353	2.0.10.353	05-15-2015	5/15/2015 3:54:00 PM	11:54:00	2.0.10.248	12	NA	NA	NA	NA	NA	NA	NA	NA	NA	NA	NA	NA	NA	NA	NA	NA	NA	NA	NA	NA	NA	NA	NA	NA	1	11	11	PracBlockProc	PracBlockList	NA	6	{LEFTARROW}	-100	NA	695	congruent	NA	NA	NA	0	16	565075	0	1	{LEFTARROW}	-999999	0	566275	0	{LEFTARROW}	767	567042	NA	1	11	66	NA	NA	PracTrialProc	PracTrialList	NA	NA	NA	NA	NA	NA	NA	NA	NA	NA	NA	NA	NA	NA	NA	NA	NA	NA	left	NA	lllll.bmp	354	NA	NA	NA	NA	NA	NA	NA	NA	NA	NA	NA	NA	NA	NA	NA	NA	NA	NA	NA	NA	NA
Arrow Flanker 2014	12280	1	"<?xml version=""1.0""?>\n<Clock xmlns:dt=""urn:schemas-microsoft-com:datatypes""><Description dt:dt=""string"">E-Prime Primary Realtime Clock</Description><StartTime><Timestamp dt:dt=""int"">0</Timestamp><DateUtc dt:dt=""string"">2015-05-15T15:53:59Z</DateUtc></StartTime><FrequencyChanges><FrequencyChange><Frequency dt:dt=""r8"">2825664</Frequency><Timestamp dt:dt=""r8"">6127114947103</Timestamp><Current dt:dt=""r8"">0</Current><DateUtc dt:dt=""string"">2015-05-15T15:53:59Z</DateUtc></FrequencyChange></FrequencyChanges></Clock>\n"	Arrow Flanker 2014-12280-1	60.018	1.0.0.100	1	-1802815560	Professional	2.0.10.353	2.0.10.353	05-15-2015	5/15/2015 3:54:00 PM	11:54:00	2.0.10.248	13	NA	NA	NA	NA	NA	NA	NA	NA	NA	NA	NA	NA	NA	NA	NA	NA	NA	NA	NA	NA	NA	NA	NA	NA	1	12	12	PracBlockProc	PracBlockList	NA	1	{LEFTARROW}	-100	NA	1377	incongruent	NA	NA	NA	0	20	569990	0	0	{LEFTARROW}	-999999	0	571873	0	{RIGHTARROW}	1233	573106	NA	2	12	67	NA	NA	PracTrialProc	PracTrialList	NA	NA	NA	NA	NA	NA	NA	NA	NA	NA	NA	NA	NA	NA	NA	NA	NA	NA	left	NA	rrlrr.bmp	354	NA	NA	NA	NA	NA	NA	NA	NA	NA	NA	NA	NA	NA	NA	NA	NA	NA	NA	NA	NA	NA
Arrow Flanker 2014	12280	1	"<?xml version=""1.0""?>\n<Clock xmlns:dt=""urn:schemas-microsoft-com:datatypes""><Description dt:dt=""string"">E-Prime Primary Realtime Clock</Description><StartTime><Timestamp dt:dt=""int"">0</Timestamp><DateUtc dt:dt=""string"">2015-05-15T15:53:59Z</DateUtc></StartTime><FrequencyChanges><FrequencyChange><Frequency dt:dt=""r8"">2825664</Frequency><Timestamp dt:dt=""r8"">6127114947103</Timestamp><Current dt:dt=""r8"">0</Current><DateUtc dt:dt=""string"">2015-05-15T15:53:59Z</DateUtc></FrequencyChange></FrequencyChanges></Clock>\n"	Arrow Flanker 2014-12280-1	60.018	1.0.0.100	1	-1802815560	Professional	2.0.10.353	2.0.10.353	05-15-2015	5/15/2015 3:54:00 PM	11:54:00	2.0.10.248	13	NA	NA	NA	NA	NA	NA	NA	NA	NA	NA	NA	NA	NA	NA	NA	NA	NA	NA	NA	NA	NA	NA	NA	NA	1	12	12	PracBlockProc	PracBlockList	NA	2	{LEFTARROW}	-100	NA	1455	neutral	NA	NA	NA	0	16	574639	0	1	{LEFTARROW}	-999999	0	576605	0	{LEFTARROW}	485	577090	NA	3	12	68	NA	NA	PracTrialProc	PracTrialList	NA	NA	NA	NA	NA	NA	NA	NA	NA	NA	NA	NA	NA	NA	NA	NA	NA	NA	left	NA	ooloo.bmp	354	NA	NA	NA	NA	NA	NA	NA	NA	NA	NA	NA	NA	NA	NA	NA	NA	NA	NA	NA	NA	NA
Arrow Flanker 2014	12280	1	"<?xml version=""1.0""?>\n<Clock xmlns:dt=""urn:schemas-microsoft-com:datatypes""><Description dt:dt=""string"">E-Prime Primary Realtime Clock</Description><StartTime><Timestamp dt:dt=""int"">0</Timestamp><DateUtc dt:dt=""string"">2015-05-15T15:53:59Z</DateUtc></StartTime><FrequencyChanges><FrequencyChange><Frequency dt:dt=""r8"">2825664</Frequency><Timestamp dt:dt=""r8"">6127114947103</Timestamp><Current dt:dt=""r8"">0</Current><DateUtc dt:dt=""string"">2015-05-15T15:53:59Z</DateUtc></FrequencyChange></FrequencyChanges></Clock>\n"	Arrow Flanker 2014-12280-1	60.018	1.0.0.100	1	-1802815560	Professional	2.0.10.353	2.0.10.353	05-15-2015	5/15/2015 3:54:00 PM	11:54:00	2.0.10.248	13	NA	NA	NA	NA	NA	NA	NA	NA	NA	NA	NA	NA	NA	NA	NA	NA	NA	NA	NA	NA	NA	NA	NA	NA	1	12	12	PracBlockProc	PracBlockList	NA	3	{RIGHTARROW}	-100	NA	824	incongruent	NA	NA	NA	0	16	578621	0	0	{RIGHTARROW}	-999999	0	579954	0	{LEFTARROW}	1055	581009	NA	5	12	69	NA	NA	PracTrialProc	PracTrialList	NA	NA	NA	NA	NA	NA	NA	NA	NA	NA	NA	NA	NA	NA	NA	NA	NA	NA	right	NA	llrll.bmp	354	NA	NA	NA	NA	NA	NA	NA	NA	NA	NA	NA	NA	NA	NA	NA	NA	NA	NA	NA	NA	NA
Arrow Flanker 2014	12280	1	"<?xml version=""1.0""?>\n<Clock xmlns:dt=""urn:schemas-microsoft-com:datatypes""><Description dt:dt=""string"">E-Prime Primary Realtime Clock</Description><StartTime><Timestamp dt:dt=""int"">0</Timestamp><DateUtc dt:dt=""string"">2015-05-15T15:53:59Z</DateUtc></StartTime><FrequencyChanges><FrequencyChange><Frequency dt:dt=""r8"">2825664</Frequency><Timestamp dt:dt=""r8"">6127114947103</Timestamp><Current dt:dt=""r8"">0</Current><DateUtc dt:dt=""string"">2015-05-15T15:53:59Z</DateUtc></FrequencyChange></FrequencyChanges></Clock>\n"	Arrow Flanker 2014-12280-1	60.018	1.0.0.100	1	-1802815560	Professional	2.0.10.353	2.0.10.353	05-15-2015	5/15/2015 3:54:00 PM	11:54:00	2.0.10.248	13	NA	NA	NA	NA	NA	NA	NA	NA	NA	NA	NA	NA	NA	NA	NA	NA	NA	NA	NA	NA	NA	NA	NA	NA	1	12	12	PracBlockProc	PracBlockList	NA	4	{RIGHTARROW}	-100	NA	1429	congruent	NA	NA	NA	0	17	582537	0	1	{RIGHTARROW}	-999999	16	584486	0	{RIGHTARROW}	843	585329	NA	4	12	70	NA	NA	PracTrialProc	PracTrialList	NA	NA	NA	NA	NA	NA	NA	NA	NA	NA	NA	NA	NA	NA	NA	NA	NA	NA	right	NA	rrrrr.bmp	354	NA	NA	NA	NA	NA	NA	NA	NA	NA	NA	NA	NA	NA	NA	NA	NA	NA	NA	NA	NA	NA
Arrow Flanker 2014	12280	1	"<?xml version=""1.0""?>\n<Clock xmlns:dt=""urn:schemas-microsoft-com:datatypes""><Description dt:dt=""string"">E-Prime Primary Realtime Clock</Description><StartTime><Timestamp dt:dt=""int"">0</Timestamp><DateUtc dt:dt=""string"">2015-05-15T15:53:59Z</DateUtc></StartTime><FrequencyChanges><FrequencyChange><Frequency dt:dt=""r8"">2825664</Frequency><Timestamp dt:dt=""r8"">6127114947103</Timestamp><Current dt:dt=""r8"">0</Current><DateUtc dt:dt=""string"">2015-05-15T15:53:59Z</DateUtc></FrequencyChange></FrequencyChanges></Clock>\n"	Arrow Flanker 2014-12280-1	60.018	1.0.0.100	1	-1802815560	Professional	2.0.10.353	2.0.10.353	05-15-2015	5/15/2015 3:54:00 PM	11:54:00	2.0.10.248	13	NA	NA	NA	NA	NA	NA	NA	NA	NA	NA	NA	NA	NA	NA	NA	NA	NA	NA	NA	NA	NA	NA	NA	NA	1	12	12	PracBlockProc	PracBlockList	NA	5	{RIGHTARROW}	-100	NA	1512	neutral	NA	NA	NA	0	17	586869	0	1	{RIGHTARROW}	-999999	0	588885	0	{RIGHTARROW}	620	589505	NA	6	12	71	NA	NA	PracTrialProc	PracTrialList	NA	NA	NA	NA	NA	NA	NA	NA	NA	NA	NA	NA	NA	NA	NA	NA	NA	NA	right	NA	ooroo.bmp	354	NA	NA	NA	NA	NA	NA	NA	NA	NA	NA	NA	NA	NA	NA	NA	NA	NA	NA	NA	NA	NA
Arrow Flanker 2014	12280	1	"<?xml version=""1.0""?>\n<Clock xmlns:dt=""urn:schemas-microsoft-com:datatypes""><Description dt:dt=""string"">E-Prime Primary Realtime Clock</Description><StartTime><Timestamp dt:dt=""int"">0</Timestamp><DateUtc dt:dt=""string"">2015-05-15T15:53:59Z</DateUtc></StartTime><FrequencyChanges><FrequencyChange><Frequency dt:dt=""r8"">2825664</Frequency><Timestamp dt:dt=""r8"">6127114947103</Timestamp><Current dt:dt=""r8"">0</Current><DateUtc dt:dt=""string"">2015-05-15T15:53:59Z</DateUtc></FrequencyChange></FrequencyChanges></Clock>\n"	Arrow Flanker 2014-12280-1	60.018	1.0.0.100	1	-1802815560	Professional	2.0.10.353	2.0.10.353	05-15-2015	5/15/2015 3:54:00 PM	11:54:00	2.0.10.248	13	NA	NA	NA	NA	NA	NA	NA	NA	NA	NA	NA	NA	NA	NA	NA	NA	NA	NA	NA	NA	NA	NA	NA	NA	1	12	12	PracBlockProc	PracBlockList	NA	6	{LEFTARROW}	-100	NA	594	congruent	NA	NA	NA	0	16	591034	0	1	{LEFTARROW}	-999999	0	592134	0	{LEFTARROW}	907	593041	NA	1	12	72	NA	NA	PracTrialProc	PracTrialList	NA	NA	NA	NA	NA	NA	NA	NA	NA	NA	NA	NA	NA	NA	NA	NA	NA	NA	left	NA	lllll.bmp	354	NA	NA	NA	NA	NA	NA	NA	NA	NA	NA	NA	NA	NA	NA	NA	NA	NA	NA	NA	NA	NA
Arrow Flanker 2014	12280	1	"<?xml version=""1.0""?>\n<Clock xmlns:dt=""urn:schemas-microsoft-com:datatypes""><Description dt:dt=""string"">E-Prime Primary Realtime Clock</Description><StartTime><Timestamp dt:dt=""int"">0</Timestamp><DateUtc dt:dt=""string"">2015-05-15T15:53:59Z</DateUtc></StartTime><FrequencyChanges><FrequencyChange><Frequency dt:dt=""r8"">2825664</Frequency><Timestamp dt:dt=""r8"">6127114947103</Timestamp><Current dt:dt=""r8"">0</Current><DateUtc dt:dt=""string"">2015-05-15T15:53:59Z</DateUtc></FrequencyChange></FrequencyChanges></Clock>\n"	Arrow Flanker 2014-12280-1	60.018	1.0.0.100	1	-1802815560	Professional	2.0.10.353	2.0.10.353	05-15-2015	5/15/2015 3:54:00 PM	11:54:00	2.0.10.248	14	NA	NA	NA	NA	NA	NA	NA	NA	NA	NA	NA	NA	NA	NA	NA	NA	NA	NA	NA	NA	NA	NA	NA	NA	1	13	13	PracBlockProc	PracBlockList	NA	1	{LEFTARROW}	-100	NA	509	incongruent	NA	NA	NA	0	16	596033	0	0	{LEFTARROW}	0	0	597049	1716	NA	0	0	NA	2	13	73	NA	NA	PracTrialProc	PracTrialList	NA	NA	NA	NA	NA	NA	NA	NA	NA	NA	NA	NA	NA	NA	NA	NA	NA	NA	left	NA	rrlrr.bmp	354	NA	NA	NA	NA	NA	NA	NA	NA	NA	NA	NA	NA	NA	NA	NA	NA	NA	NA	NA	NA	NA
Arrow Flanker 2014	12280	1	"<?xml version=""1.0""?>\n<Clock xmlns:dt=""urn:schemas-microsoft-com:datatypes""><Description dt:dt=""string"">E-Prime Primary Realtime Clock</Description><StartTime><Timestamp dt:dt=""int"">0</Timestamp><DateUtc dt:dt=""string"">2015-05-15T15:53:59Z</DateUtc></StartTime><FrequencyChanges><FrequencyChange><Frequency dt:dt=""r8"">2825664</Frequency><Timestamp dt:dt=""r8"">6127114947103</Timestamp><Current dt:dt=""r8"">0</Current><DateUtc dt:dt=""string"">2015-05-15T15:53:59Z</DateUtc></FrequencyChange></FrequencyChanges></Clock>\n"	Arrow Flanker 2014-12280-1	60.018	1.0.0.100	1	-1802815560	Professional	2.0.10.353	2.0.10.353	05-15-2015	5/15/2015 3:54:00 PM	11:54:00	2.0.10.248	14	NA	NA	NA	NA	NA	NA	NA	NA	NA	NA	NA	NA	NA	NA	NA	NA	NA	NA	NA	NA	NA	NA	NA	NA	1	13	13	PracBlockProc	PracBlockList	NA	2	{RIGHTARROW}	-100	NA	1470	incongruent	NA	NA	NA	0	16	600281	0	1	{RIGHTARROW}	-999999	0	602264	0	{RIGHTARROW}	1192	603456	NA	5	13	74	NA	NA	PracTrialProc	PracTrialList	NA	NA	NA	NA	NA	NA	NA	NA	NA	NA	NA	NA	NA	NA	NA	NA	NA	NA	right	NA	llrll.bmp	354	NA	NA	NA	NA	NA	NA	NA	NA	NA	NA	NA	NA	NA	NA	NA	NA	NA	NA	NA	NA	NA
Arrow Flanker 2014	12280	1	"<?xml version=""1.0""?>\n<Clock xmlns:dt=""urn:schemas-microsoft-com:datatypes""><Description dt:dt=""string"">E-Prime Primary Realtime Clock</Description><StartTime><Timestamp dt:dt=""int"">0</Timestamp><DateUtc dt:dt=""string"">2015-05-15T15:53:59Z</DateUtc></StartTime><FrequencyChanges><FrequencyChange><Frequency dt:dt=""r8"">2825664</Frequency><Timestamp dt:dt=""r8"">6127114947103</Timestamp><Current dt:dt=""r8"">0</Current><DateUtc dt:dt=""string"">2015-05-15T15:53:59Z</DateUtc></FrequencyChange></FrequencyChanges></Clock>\n"	Arrow Flanker 2014-12280-1	60.018	1.0.0.100	1	-1802815560	Professional	2.0.10.353	2.0.10.353	05-15-2015	5/15/2015 3:54:00 PM	11:54:00	2.0.10.248	14	NA	NA	NA	NA	NA	NA	NA	NA	NA	NA	NA	NA	NA	NA	NA	NA	NA	NA	NA	NA	NA	NA	NA	NA	1	13	13	PracBlockProc	PracBlockList	NA	3	{RIGHTARROW}	-100	NA	871	congruent	NA	NA	NA	0	17	604997	0	0	{RIGHTARROW}	-999999	0	606380	0	{LEFTARROW}	1348	607728	NA	4	13	75	NA	NA	PracTrialProc	PracTrialList	NA	NA	NA	NA	NA	NA	NA	NA	NA	NA	NA	NA	NA	NA	NA	NA	NA	NA	right	NA	rrrrr.bmp	354	NA	NA	NA	NA	NA	NA	NA	NA	NA	NA	NA	NA	NA	NA	NA	NA	NA	NA	NA	NA	NA
Arrow Flanker 2014	12280	1	"<?xml version=""1.0""?>\n<Clock xmlns:dt=""urn:schemas-microsoft-com:datatypes""><Description dt:dt=""string"">E-Prime Primary Realtime Clock</Description><StartTime><Timestamp dt:dt=""int"">0</Timestamp><DateUtc dt:dt=""string"">2015-05-15T15:53:59Z</DateUtc></StartTime><FrequencyChanges><FrequencyChange><Frequency dt:dt=""r8"">2825664</Frequency><Timestamp dt:dt=""r8"">6127114947103</Timestamp><Current dt:dt=""r8"">0</Current><DateUtc dt:dt=""string"">2015-05-15T15:53:59Z</DateUtc></FrequencyChange></FrequencyChanges></Clock>\n"	Arrow Flanker 2014-12280-1	60.018	1.0.0.100	1	-1802815560	Professional	2.0.10.353	2.0.10.353	05-15-2015	5/15/2015 3:54:00 PM	11:54:00	2.0.10.248	14	NA	NA	NA	NA	NA	NA	NA	NA	NA	NA	NA	NA	NA	NA	NA	NA	NA	NA	NA	NA	NA	NA	NA	NA	1	13	13	PracBlockProc	PracBlockList	NA	4	{LEFTARROW}	-100	NA	601	neutral	NA	NA	NA	0	16	609262	0	0	{LEFTARROW}	0	0	610378	1700	NA	0	0	NA	3	13	76	NA	NA	PracTrialProc	PracTrialList	NA	NA	NA	NA	NA	NA	NA	NA	NA	NA	NA	NA	NA	NA	NA	NA	NA	NA	left	NA	ooloo.bmp	354	NA	NA	NA	NA	NA	NA	NA	NA	NA	NA	NA	NA	NA	NA	NA	NA	NA	NA	NA	NA	NA
Arrow Flanker 2014	12280	1	"<?xml version=""1.0""?>\n<Clock xmlns:dt=""urn:schemas-microsoft-com:datatypes""><Description dt:dt=""string"">E-Prime Primary Realtime Clock</Description><StartTime><Timestamp dt:dt=""int"">0</Timestamp><DateUtc dt:dt=""string"">2015-05-15T15:53:59Z</DateUtc></StartTime><FrequencyChanges><FrequencyChange><Frequency dt:dt=""r8"">2825664</Frequency><Timestamp dt:dt=""r8"">6127114947103</Timestamp><Current dt:dt=""r8"">0</Current><DateUtc dt:dt=""string"">2015-05-15T15:53:59Z</DateUtc></FrequencyChange></FrequencyChanges></Clock>\n"	Arrow Flanker 2014-12280-1	60.018	1.0.0.100	1	-1802815560	Professional	2.0.10.353	2.0.10.353	05-15-2015	5/15/2015 3:54:00 PM	11:54:00	2.0.10.248	14	NA	NA	NA	NA	NA	NA	NA	NA	NA	NA	NA	NA	NA	NA	NA	NA	NA	NA	NA	NA	NA	NA	NA	NA	1	13	13	PracBlockProc	PracBlockList	NA	5	{RIGHTARROW}	-100	NA	700	neutral	NA	NA	NA	0	16	613594	0	0	{RIGHTARROW}	-999999	0	614794	0	{LEFTARROW}	1045	615839	NA	6	13	77	NA	NA	PracTrialProc	PracTrialList	NA	NA	NA	NA	NA	NA	NA	NA	NA	NA	NA	NA	NA	NA	NA	NA	NA	NA	right	NA	ooroo.bmp	354	NA	NA	NA	NA	NA	NA	NA	NA	NA	NA	NA	NA	NA	NA	NA	NA	NA	NA	NA	NA	NA
